onset	duration	cue_type	current_mean_accuracy	duration_error	is_hit	isi_adjusted	onset_delay	response	response_type	reward	rt	rt_time	total_reward	trial_number	trial_phase	trial_type	one_press
11.097	0.25	Control	1.0	0.0	Yes	2.953	-0.003	n/a	GoodResponse	0	n/a	n/a	0	0	Cue	Neutral	False
11.348	3.85	Control	1.0	0.0	Yes	2.953	0.001	2.0	GoodResponse	0	0.495	10.843	0	0	Fixation	Neutral	False
11.843	0.3	Control	1.0	0.0	Yes	2.953	0.001	2.0	GoodResponse	0	0.495	n/a	0	0	ButtonPress	Neutral	False
15.209	0.4	Control	1.0	0.0	Yes	2.953	0.012	2.0	GoodResponse	0	0.289	14.498	0	0	Target	Neutral	False
15.498	0.3	Control	1.0	0.0	Yes	2.953	0.012	2.0	GoodResponse	0	0.289	n/a	0	0	ButtonPress	Neutral	False
15.594	0.3	Control	1.0	n/a	Yes	2.953	n/a	n/a	GoodResponse	0	n/a	n/a	0	0	Blank	Neutral	False
15.895	1.45	Control	1.0	n/a	Yes	2.953	n/a	5.0	GoodResponse	0	0.034	14.929	0	0	Feedback	Neutral	False
17.349	2.953	Control	1.0	n/a	Yes	2.953	n/a	n/a	GoodResponse	0	0.0	n/a	0	0	ISIslide	Neutral	False
22.849	0.25	Lose2	1.0	0.0	Yes	0.251	2.549	n/a	GoodResponse	0	n/a	n/a	0	1	Cue	AvoidedLoss	True
23.099	4.0	Lose2	1.0	0.001	Yes	0.251	0.0	n/a	GoodResponse	0	n/a	n/a	0	1	Fixation	AvoidedLoss	True
27.095	0.39	Lose2	1.0	0.004	Yes	0.251	-0.004	2.0	GoodResponse	0	0.215	26.31	0	1	Target	AvoidedLoss	True
27.31	0.3	Lose2	1.0	0.004	Yes	0.251	-0.004	2.0	GoodResponse	0	0.215	n/a	0	1	ButtonPress	AvoidedLoss	True
27.496	0.31	Lose2	1.0	n/a	Yes	0.251	n/a	n/a	GoodResponse	0	n/a	n/a	0	1	Blank	AvoidedLoss	True
27.797	1.45	Lose2	1.0	n/a	Yes	0.251	n/a	5.0	GoodResponse	0	0.035	26.832	0	1	Feedback	AvoidedLoss	True
29.251	0.251	Lose2	1.0	n/a	Yes	0.251	n/a	n/a	GoodResponse	0	0.0	n/a	0	1	ISIslide	AvoidedLoss	True
29.519	0.25	Control	1.0	0.0	Yes	2.581	0.019	n/a	GoodResponse	0	n/a	n/a	0	2	Cue	Neutral	True
29.769	4.1	Control	1.0	0.0	Yes	2.581	0.0	n/a	GoodResponse	0	n/a	n/a	0	2	Fixation	Neutral	True
33.865	0.38	Control	1.0	0.004	Yes	2.581	-0.004	2.0	GoodResponse	0	0.223	33.088	0	2	Target	Neutral	True
34.088	0.3	Control	1.0	0.004	Yes	2.581	-0.004	2.0	GoodResponse	0	0.223	n/a	0	2	ButtonPress	Neutral	True
34.249	0.32	Control	1.0	n/a	Yes	2.581	n/a	n/a	GoodResponse	0	n/a	n/a	0	2	Blank	Neutral	True
34.567	1.45	Control	1.0	n/a	Yes	2.581	n/a	5.0	GoodResponse	0	0.044	33.611	0	2	Feedback	Neutral	True
36.021	2.581	Control	1.0	n/a	Yes	2.581	n/a	n/a	GoodResponse	0	0.0	n/a	0	2	ISIslide	Neutral	True
38.646	0.25	Win2	1.0	0.0	Yes	2.804	0.046	n/a	GoodResponse	1	n/a	n/a	1	3	Cue	Win	True
38.897	3.95	Win2	1.0	0.0	Yes	2.804	0.001	n/a	GoodResponse	1	n/a	n/a	1	3	Fixation	Win	True
42.842	0.37	Win2	1.0	0.004	Yes	2.804	-0.004	2.0	GoodResponse	1	0.188	42.03	1	3	Target	Win	True
43.03	0.3	Win2	1.0	0.004	Yes	2.804	-0.004	2.0	GoodResponse	1	0.188	n/a	1	3	ButtonPress	Win	True
43.226	0.33	Win2	1.0	n/a	Yes	2.804	n/a	n/a	GoodResponse	1	n/a	n/a	1	3	Blank	Win	True
43.544	1.45	Win2	1.0	n/a	Yes	2.804	n/a	5.0	GoodResponse	1	0.043	42.587	1	3	Feedback	Win	True
44.998	2.804	Win2	1.0	n/a	Yes	2.804	n/a	n/a	GoodResponse	1	0.0	n/a	1	3	ISIslide	Win	True
47.823	0.25	Win2	1.0	0.0	Yes	3.277	0.023	n/a	GoodResponse	1	n/a	n/a	2	4	Cue	Win	True
48.074	4.0	Win2	1.0	0.0	Yes	3.277	0.001	n/a	GoodResponse	1	n/a	n/a	2	4	Fixation	Win	True
52.069	0.36	Win2	1.0	0.004	Yes	3.277	-0.004	2.0	GoodResponse	1	0.184	51.253	2	4	Target	Win	True
52.253	0.3	Win2	1.0	0.004	Yes	3.277	-0.004	2.0	GoodResponse	1	0.184	n/a	2	4	ButtonPress	Win	True
52.437	0.34	Win2	1.0	n/a	Yes	3.277	n/a	n/a	GoodResponse	1	n/a	n/a	2	4	Blank	Win	True
52.772	1.45	Win2	1.0	n/a	Yes	3.277	n/a	5.0	GoodResponse	1	0.035	51.807	2	4	Feedback	Win	True
54.226	3.277	Win2	1.0	n/a	Yes	3.277	n/a	n/a	GoodResponse	1	0.0	n/a	2	4	ISIslide	Win	True
57.519	0.25	Win2	1.0	0.0	Yes	2.781	0.019	n/a	GoodResponse	1	n/a	n/a	3	5	Cue	Win	True
57.77	4.0	Win2	1.0	0.0	Yes	2.781	0.001	n/a	GoodResponse	1	n/a	n/a	3	5	Fixation	Win	True
61.765	0.35	Win2	1.0	0.004	Yes	2.781	-0.004	2.0	GoodResponse	1	0.278	61.043	3	5	Target	Win	True
62.043	0.3	Win2	1.0	0.004	Yes	2.781	-0.004	2.0	GoodResponse	1	0.278	n/a	3	5	ButtonPress	Win	True
62.116	0.35	Win2	1.0	n/a	Yes	2.781	n/a	n/a	GoodResponse	1	n/a	n/a	3	5	Blank	Win	True
62.467	1.45	Win2	1.0	n/a	Yes	2.781	n/a	5.0	GoodResponse	1	0.047	61.514	3	5	Feedback	Win	True
63.922	2.781	Win2	1.0	n/a	Yes	2.781	n/a	n/a	GoodResponse	1	0.0	n/a	3	5	ISIslide	Win	True
66.73	0.25	Lose2	1.0	0.0	Yes	2.72	0.03	n/a	GoodResponse	0	n/a	n/a	3	6	Cue	AvoidedLoss	True
66.981	3.95	Lose2	1.0	0.0	Yes	2.72	0.001	n/a	GoodResponse	0	n/a	n/a	3	6	Fixation	AvoidedLoss	True
70.926	0.34	Lose2	1.0	0.004	Yes	2.72	-0.004	2.0	GoodResponse	0	0.215	70.141	3	6	Target	AvoidedLoss	True
71.141	0.3	Lose2	1.0	0.004	Yes	2.72	-0.004	2.0	GoodResponse	0	0.215	n/a	3	6	ButtonPress	AvoidedLoss	True
71.277	0.36	Lose2	1.0	n/a	Yes	2.72	n/a	n/a	GoodResponse	0	n/a	n/a	3	6	Blank	AvoidedLoss	True
71.628	1.45	Lose2	1.0	n/a	Yes	2.72	n/a	5.0	GoodResponse	0	0.008	70.636	3	6	Feedback	AvoidedLoss	True
73.082	2.72	Lose2	1.0	n/a	Yes	2.72	n/a	n/a	GoodResponse	0	0.0	n/a	3	6	ISIslide	AvoidedLoss	True
75.824	0.25	Lose2	1.0	0.0	Yes	4.026	0.024	n/a	GoodResponse	0	n/a	n/a	3	7	Cue	AvoidedLoss	True
76.075	4.05	Lose2	1.0	0.0	Yes	4.026	0.001	n/a	GoodResponse	0	n/a	n/a	3	7	Fixation	AvoidedLoss	True
80.12	0.33	Lose2	1.0	0.004	Yes	4.026	-0.004	2.0	GoodResponse	0	0.214	79.334	3	7	Target	AvoidedLoss	True
80.334	0.3	Lose2	1.0	0.004	Yes	4.026	-0.004	2.0	GoodResponse	0	0.214	n/a	3	7	ButtonPress	AvoidedLoss	True
80.454	0.37	Lose2	1.0	n/a	Yes	4.026	n/a	n/a	GoodResponse	0	n/a	n/a	3	7	Blank	AvoidedLoss	True
80.822	1.45	Lose2	1.0	n/a	Yes	4.026	n/a	5.0	GoodResponse	0	0.033	79.855	3	7	Feedback	AvoidedLoss	True
82.276	4.026	Lose2	1.0	n/a	Yes	4.026	n/a	n/a	GoodResponse	0	0.0	n/a	3	7	ISIslide	AvoidedLoss	True
86.322	0.25	Lose2	0.8889	0.0	No	3.028	0.022	n/a	NoResponse	-1	n/a	n/a	2	8	Cue	Loss	True
86.573	3.95	Lose2	0.8889	0.0	No	3.028	0.001	n/a	NoResponse	-1	n/a	n/a	2	8	Fixation	Loss	True
90.518	0.32	Lose2	0.8889	0.004	No	3.028	-0.004	2.0	NoResponse	-1	0.375	89.893	2	8	Target	Loss	True
90.852	0.38	Lose2	0.8889	n/a	No	3.028	n/a	n/a	NoResponse	-1	n/a	n/a	2	8	Blank	Loss	True
90.893	0.3	Lose2	0.8889	0.004	No	3.028	-0.004	2.0	NoResponse	-1	0.375	n/a	2	8	ButtonPress	Loss	True
91.22	1.45	Lose2	0.8889	n/a	No	3.028	n/a	5.0	NoResponse	-1	0.025	90.245	2	8	Feedback	Loss	True
92.674	3.028	Lose2	0.8889	n/a	No	3.028	n/a	n/a	NoResponse	-1	0.0	n/a	2	8	ISIslide	Loss	True
95.717	0.25	Lose2	0.8	0.0	No	3.133	0.017	n/a	NoResponse	-1	n/a	n/a	1	9	Cue	Loss	True
95.967	3.95	Lose2	0.8	0.0	No	3.133	0.0	n/a	NoResponse	-1	n/a	n/a	1	9	Fixation	Loss	True
99.929	0.31	Lose2	0.8	0.0	No	3.133	0.012	2.0	NoResponse	-1	0.526	99.455	1	9	Target	Loss	True
100.23	0.39	Lose2	0.8	n/a	No	3.133	n/a	n/a	NoResponse	-1	n/a	n/a	1	9	Blank	Loss	True
100.455	0.3	Lose2	0.8	0.0	No	3.133	0.012	2.0	NoResponse	-1	0.526	n/a	1	9	ButtonPress	Loss	True
100.615	1.45	Lose2	0.8	n/a	No	3.133	n/a	5.0	NoResponse	-1	0.045	99.66	1	9	Feedback	Loss	True
102.069	3.133	Lose2	0.8	n/a	No	3.133	n/a	n/a	NoResponse	-1	0.0	n/a	1	9	ISIslide	Loss	True
105.228	0.25	Control	0.8181999999999999	0.0	Yes	3.272	0.028	n/a	GoodResponse	0	n/a	n/a	1	10	Cue	Neutral	False
105.479	4.0	Control	0.8181999999999999	0.0	Yes	3.272	0.001	2.0	GoodResponse	0	2.649	107.128	1	10	Fixation	Neutral	False
108.128	0.3	Control	0.8181999999999999	0.0	Yes	3.272	0.001	2.0	GoodResponse	0	2.649	n/a	1	10	ButtonPress	Neutral	False
109.474	0.3	Control	0.8181999999999999	0.004	Yes	3.272	-0.004	2.0	GoodResponse	0	0.235	108.709	1	10	Target	Neutral	False
109.709	0.3	Control	0.8181999999999999	0.004	Yes	3.272	-0.004	2.0	GoodResponse	0	0.235	n/a	1	10	ButtonPress	Neutral	False
109.775	0.4	Control	0.8181999999999999	n/a	Yes	3.272	n/a	n/a	GoodResponse	0	n/a	n/a	1	10	Blank	Neutral	False
110.176	1.45	Control	0.8181999999999999	n/a	Yes	3.272	n/a	5.0	GoodResponse	0	0.045	109.221	1	10	Feedback	Neutral	False
111.631	3.272	Control	0.8181999999999999	n/a	Yes	3.272	n/a	n/a	GoodResponse	0	0.0	n/a	1	10	ISIslide	Neutral	False
114.924	0.25	Lose2	0.8332999999999999	0.0	Yes	2.726	0.024	n/a	GoodResponse	0	n/a	n/a	1	11	Cue	AvoidedLoss	True
115.175	4.05	Lose2	0.8332999999999999	0.0	Yes	2.726	0.001	n/a	GoodResponse	0	n/a	n/a	1	11	Fixation	AvoidedLoss	True
119.22	0.29	Lose2	0.8332999999999999	0.004	Yes	2.726	-0.004	2.0	GoodResponse	0	0.189	118.409	1	11	Target	AvoidedLoss	True
119.409	0.3	Lose2	0.8332999999999999	0.004	Yes	2.726	-0.004	2.0	GoodResponse	0	0.189	n/a	1	11	ButtonPress	AvoidedLoss	True
119.521	0.41	Lose2	0.8332999999999999	n/a	Yes	2.726	n/a	n/a	GoodResponse	0	n/a	n/a	1	11	Blank	AvoidedLoss	True
119.922	1.45	Lose2	0.8332999999999999	n/a	Yes	2.726	n/a	5.0	GoodResponse	0	0.007	118.929	1	11	Feedback	AvoidedLoss	True
121.377	2.726	Lose2	0.8332999999999999	n/a	Yes	2.726	n/a	n/a	GoodResponse	0	0.0	n/a	1	11	ISIslide	AvoidedLoss	True
124.118	0.25	Control	0.8462000000000001	0.0	Yes	2.982	0.018	n/a	GoodResponse	0	n/a	n/a	1	12	Cue	Neutral	True
124.369	3.9	Control	0.8462000000000001	0.0	Yes	2.982	0.001	n/a	GoodResponse	0	n/a	n/a	1	12	Fixation	Neutral	True
128.264	0.28	Control	0.8462000000000001	0.004	Yes	2.982	-0.004	2.0	GoodResponse	0	0.226	127.49	1	12	Target	Neutral	True
128.49	0.3	Control	0.8462000000000001	0.004	Yes	2.982	-0.004	2.0	GoodResponse	0	0.226	n/a	1	12	ButtonPress	Neutral	True
128.548	0.42	Control	0.8462000000000001	n/a	Yes	2.982	n/a	n/a	GoodResponse	0	n/a	n/a	1	12	Blank	Neutral	True
128.966	1.45	Control	0.8462000000000001	n/a	Yes	2.982	n/a	5.0	GoodResponse	0	0.035	128.001	1	12	Feedback	Neutral	True
130.42	2.982	Control	0.8462000000000001	n/a	Yes	2.982	n/a	n/a	GoodResponse	0	0.0	n/a	1	12	ISIslide	Neutral	True
133.429	0.25	Control	0.7857	0.0	No	2.771	0.029	n/a	LatePress	0	n/a	n/a	1	13	Cue	Neutral	True
133.68	4.0	Control	0.7857	0.0	No	2.771	0.001	n/a	LatePress	0	n/a	n/a	1	13	Fixation	Neutral	True
137.675	0.27	Control	0.7857	0.004	No	2.771	-0.004	2.0	LatePress	0	0.271	136.946	1	13	Target	Neutral	True
137.946	0.3	Control	0.7857	0.004	No	2.771	-0.004	2.0	LatePress	0	0.271	n/a	1	13	ButtonPress	Neutral	True
137.96	0.43	Control	0.7857	n/a	No	2.771	n/a	n/a	LatePress	0	n/a	n/a	1	13	Blank	Neutral	True
138.377	1.45	Control	0.7857	n/a	No	2.771	n/a	5.0	LatePress	0	0.038	137.415	1	13	Feedback	Neutral	True
139.832	2.771	Control	0.7857	n/a	No	2.771	n/a	n/a	LatePress	0	0.0	n/a	1	13	ISIslide	Neutral	True
142.623	0.25	Win2	0.8	0.001	Yes	2.677	0.023	n/a	GoodResponse	1	n/a	n/a	2	14	Cue	Win	True
142.874	4.1	Win2	0.8	0.0	Yes	2.677	0.001	n/a	GoodResponse	1	n/a	n/a	2	14	Fixation	Win	True
146.97	0.26	Win2	0.8	0.003	Yes	2.677	-0.003	2.0	GoodResponse	1	0.191	146.161	2	14	Target	Win	True
147.161	0.3	Win2	0.8	0.003	Yes	2.677	-0.003	2.0	GoodResponse	1	0.191	n/a	2	14	ButtonPress	Win	True
147.237	0.44	Win2	0.8	n/a	Yes	2.677	n/a	n/a	GoodResponse	1	n/a	n/a	2	14	Blank	Win	True
147.672	1.45	Win2	0.8	n/a	Yes	2.677	n/a	5.0	GoodResponse	1	0.012	146.684	2	14	Feedback	Win	True
149.126	2.677	Win2	0.8	n/a	Yes	2.677	n/a	n/a	GoodResponse	1	0.0	n/a	2	14	ISIslide	Win	True
151.818	0.25	Control	0.8125	0.0	Yes	2.982	0.018	n/a	GoodResponse	0	n/a	n/a	2	15	Cue	Neutral	True
152.068	4.0	Control	0.8125	0.0	Yes	2.982	0.0	n/a	GoodResponse	0	n/a	n/a	2	15	Fixation	Neutral	True
156.064	0.25	Control	0.8125	0.004	Yes	2.982	-0.004	2.0	GoodResponse	0	0.207	155.271	2	15	Target	Neutral	True
156.271	0.3	Control	0.8125	0.004	Yes	2.982	-0.004	2.0	GoodResponse	0	0.207	n/a	2	15	ButtonPress	Neutral	True
156.314	0.45	Control	0.8125	n/a	Yes	2.982	n/a	n/a	GoodResponse	0	n/a	n/a	2	15	Blank	Neutral	True
156.766	1.45	Control	0.8125	n/a	Yes	2.982	n/a	5.0	GoodResponse	0	0.039	155.805	2	15	Feedback	Neutral	True
158.22	2.982	Control	0.8125	n/a	Yes	2.982	n/a	n/a	GoodResponse	0	0.0	n/a	2	15	ISIslide	Neutral	True
161.229	0.25	Win2	0.8234999999999999	0.0	Yes	2.871	0.029	n/a	GoodResponse	1	n/a	n/a	3	16	Cue	Win	False
161.48	4.0	Win2	0.8234999999999999	0.0	Yes	2.871	0.001	2.0	GoodResponse	1	0.177	160.657	3	16	Fixation	Win	False
161.657	0.3	Win2	0.8234999999999999	0.0	Yes	2.871	0.001	2.0	GoodResponse	1	0.177	n/a	3	16	ButtonPress	Win	False
165.475	0.24	Win2	0.8234999999999999	0.004	Yes	2.871	-0.004	2.0	GoodResponse	1	0.232	164.707	3	16	Target	Win	False
165.707	0.3	Win2	0.8234999999999999	0.004	Yes	2.871	-0.004	2.0	GoodResponse	1	0.232	n/a	3	16	ButtonPress	Win	False
165.726	0.46	Win2	0.8234999999999999	n/a	Yes	2.871	n/a	n/a	GoodResponse	1	n/a	n/a	3	16	Blank	Win	False
166.177	1.45	Win2	0.8234999999999999	n/a	Yes	2.871	n/a	5.0	GoodResponse	1	0.043	165.22	3	16	Feedback	Win	False
167.632	2.871	Win2	0.8234999999999999	n/a	Yes	2.871	n/a	n/a	GoodResponse	1	0.0	n/a	3	16	ISIslide	Win	False
170.524	0.25	Lose2	0.7778	0.0	No	2.726	0.024	n/a	NoResponse	-1	n/a	n/a	2	17	Cue	Loss	True
170.774	3.95	Lose2	0.7778	0.0	No	2.726	0.0	n/a	NoResponse	-1	n/a	n/a	2	17	Fixation	Loss	True
174.736	0.23	Lose2	0.7778	0.0	No	2.726	0.012	2.0	NoResponse	-1	0.244	173.98	2	17	Target	Loss	True
174.953	0.47	Lose2	0.7778	n/a	No	2.726	n/a	n/a	NoResponse	-1	n/a	n/a	2	17	Blank	Loss	True
174.98	0.3	Lose2	0.7778	0.0	No	2.726	0.012	2.0	NoResponse	-1	0.244	n/a	2	17	ButtonPress	Loss	True
175.422	1.45	Lose2	0.7778	n/a	No	2.726	n/a	5.0	NoResponse	-1	0.017	174.439	2	17	Feedback	Loss	True
176.876	2.726	Lose2	0.7778	n/a	No	2.726	n/a	n/a	NoResponse	-1	0.0	n/a	2	17	ISIslide	Loss	True
179.617	0.25	Lose2	0.7895	0.001	Yes	2.733	0.017	n/a	GoodResponse	0	n/a	n/a	2	18	Cue	AvoidedLoss	True
179.868	4.05	Lose2	0.7895	0.0	Yes	2.733	0.001	n/a	GoodResponse	0	n/a	n/a	2	18	Fixation	AvoidedLoss	True
183.914	0.22	Lose2	0.7895	0.003	Yes	2.733	-0.003	2.0	GoodResponse	0	0.174	183.088	2	18	Target	AvoidedLoss	True
184.088	0.3	Lose2	0.7895	0.003	Yes	2.733	-0.003	2.0	GoodResponse	0	0.174	n/a	2	18	ButtonPress	AvoidedLoss	True
184.148	0.48	Lose2	0.7895	n/a	Yes	2.733	n/a	n/a	GoodResponse	0	n/a	n/a	2	18	Blank	AvoidedLoss	True
184.616	1.45	Lose2	0.7895	n/a	Yes	2.733	n/a	5.0	GoodResponse	0	0.043	183.659	2	18	Feedback	AvoidedLoss	True
186.07	2.733	Lose2	0.7895	n/a	Yes	2.733	n/a	n/a	GoodResponse	0	0.0	n/a	2	18	ISIslide	AvoidedLoss	True
188.828	0.25	Control	0.8	0.0	Yes	2.922	0.028	n/a	GoodResponse	0	n/a	n/a	2	19	Cue	Neutral	True
189.079	3.95	Control	0.8	0.0	Yes	2.922	0.001	n/a	GoodResponse	0	n/a	n/a	2	19	Fixation	Neutral	True
193.024	0.21	Control	0.8	0.004	Yes	2.922	-0.004	2.0	GoodResponse	0	0.197	192.221	2	19	Target	Neutral	True
193.221	0.3	Control	0.8	0.004	Yes	2.922	-0.004	2.0	GoodResponse	0	0.197	n/a	2	19	ButtonPress	Neutral	True
193.241	0.49	Control	0.8	n/a	Yes	2.922	n/a	n/a	GoodResponse	0	n/a	n/a	2	19	Blank	Neutral	True
193.726	1.45	Control	0.8	n/a	Yes	2.922	n/a	5.0	GoodResponse	0	0.007	192.733	2	19	Feedback	Neutral	True
195.181	2.922	Control	0.8	n/a	Yes	2.922	n/a	n/a	GoodResponse	0	0.0	n/a	2	19	ISIslide	Neutral	True
198.123	0.25	Control	0.7619	0.0	No	2.627	0.023	n/a	NoResponse	0	n/a	n/a	2	20	Cue	Neutral	True
198.374	4.05	Control	0.7619	0.0	No	2.627	0.001	n/a	NoResponse	0	n/a	n/a	2	20	Fixation	Neutral	True
202.419	0.2	Control	0.7619	0.004	No	2.627	-0.004	2.0	NoResponse	0	0.215	201.634	2	20	Target	Neutral	True
202.62	0.5	Control	0.7619	n/a	No	2.627	n/a	n/a	NoResponse	0	n/a	n/a	2	20	Blank	Neutral	True
202.634	0.3	Control	0.7619	0.004	No	2.627	-0.004	2.0	NoResponse	0	0.215	n/a	2	20	ButtonPress	Neutral	True
203.121	1.45	Control	0.7619	n/a	No	2.627	n/a	5.0	NoResponse	0	0.025	202.146	2	20	Feedback	Neutral	True
204.575	2.627	Control	0.7619	n/a	No	2.627	n/a	n/a	NoResponse	0	0.0	n/a	2	20	ISIslide	Neutral	True
207.217	0.25	Control	0.7273000000000001	0.0	No	2.783	0.017	n/a	LatePress	0	n/a	n/a	2	21	Cue	Neutral	False
207.467	4.1	Control	0.7273000000000001	0.0	No	2.783	0.0	2.0	LatePress	0	3.291	209.758	2	21	Fixation	Neutral	False
210.758	0.3	Control	0.7273000000000001	0.0	No	2.783	0.0	2.0	LatePress	0	3.291	n/a	2	21	ButtonPress	Neutral	False
211.563	0.19	Control	0.7273000000000001	0.004	No	2.783	-0.004	2.0	LatePress	0	0.193	210.756	2	21	Target	Neutral	False
211.756	0.3	Control	0.7273000000000001	0.004	No	2.783	-0.004	2.0	LatePress	0	0.193	n/a	2	21	ButtonPress	Neutral	False
211.764	0.51	Control	0.7273000000000001	n/a	No	2.783	n/a	n/a	LatePress	0	n/a	n/a	2	21	Blank	Neutral	False
212.265	1.45	Control	0.7273000000000001	n/a	No	2.783	n/a	5.0	LatePress	0	0.006	211.271	2	21	Feedback	Neutral	False
213.719	2.783	Control	0.7273000000000001	n/a	No	2.783	n/a	n/a	LatePress	0	0.0	n/a	2	21	ISIslide	Neutral	False
216.528	0.25	Control	0.6957	0.0	No	2.772	0.028	n/a	NoResponse	0	n/a	n/a	2	22	Cue	Neutral	True
216.779	4.0	Control	0.6957	0.0	No	2.772	0.001	n/a	NoResponse	0	n/a	n/a	2	22	Fixation	Neutral	True
220.774	0.18	Control	0.6957	0.004	No	2.772	-0.004	2.0	NoResponse	0	0.331	220.105	2	22	Target	Neutral	True
220.958	0.52	Control	0.6957	n/a	No	2.772	n/a	n/a	NoResponse	0	n/a	n/a	2	22	Blank	Neutral	True
221.105	0.3	Control	0.6957	0.004	No	2.772	-0.004	2.0	NoResponse	0	0.331	n/a	2	22	ButtonPress	Neutral	True
221.476	1.45	Control	0.6957	n/a	No	2.772	n/a	5.0	NoResponse	0	0.012	220.488	2	22	Feedback	Neutral	True
222.93	2.772	Control	0.6957	n/a	No	2.772	n/a	n/a	NoResponse	0	0.0	n/a	2	22	ISIslide	Neutral	True
225.722	0.25	Control	0.6667000000000001	0.0	No	2.778	0.022	n/a	LatePress	0	n/a	n/a	2	23	Cue	Neutral	True
225.973	3.9	Control	0.6667000000000001	0.0	No	2.778	0.001	n/a	LatePress	0	n/a	n/a	2	23	Fixation	Neutral	True
229.868	0.17	Control	0.6667000000000001	0.004	No	2.778	-0.004	2.0	LatePress	0	0.18	229.048	2	23	Target	Neutral	True
230.048	0.3	Control	0.6667000000000001	0.004	No	2.778	-0.004	2.0	LatePress	0	0.18	n/a	2	23	ButtonPress	Neutral	True
230.052	0.53	Control	0.6667000000000001	n/a	No	2.778	n/a	n/a	LatePress	0	n/a	n/a	2	23	Blank	Neutral	True
230.57	1.45	Control	0.6667000000000001	n/a	No	2.778	n/a	5.0	LatePress	0	0.04	229.61	2	23	Feedback	Neutral	True
232.024	2.778	Control	0.6667000000000001	n/a	No	2.778	n/a	n/a	LatePress	0	0.0	n/a	2	23	ISIslide	Neutral	True
234.816	0.25	Win2	0.64	0.0	No	3.134	0.016	n/a	NoResponse	0	n/a	n/a	2	24	Cue	MissedWin	True
235.067	3.95	Win2	0.64	0.0	No	3.134	0.001	n/a	NoResponse	0	n/a	n/a	2	24	Fixation	MissedWin	True
239.012	0.16	Win2	0.64	0.004	No	3.134	-0.004	2.0	NoResponse	0	0.175	238.187	2	24	Target	MissedWin	True
239.179	0.54	Win2	0.64	n/a	No	3.134	n/a	n/a	NoResponse	0	n/a	n/a	2	24	Blank	MissedWin	True
239.187	0.3	Win2	0.64	0.004	No	3.134	-0.004	2.0	NoResponse	0	0.175	n/a	2	24	ButtonPress	MissedWin	True
239.714	1.45	Win2	0.64	n/a	No	3.134	n/a	5.0	NoResponse	0	0.018	238.732	2	24	Feedback	MissedWin	True
241.168	3.134	Win2	0.64	n/a	No	3.134	n/a	n/a	NoResponse	0	0.0	n/a	2	24	ISIslide	MissedWin	True
244.328	0.25	Win2	0.6154	0.0	No	3.072	0.028	n/a	LatePress	0	n/a	n/a	2	25	Cue	MissedWin	True
244.578	4.0	Win2	0.6154	0.0	No	3.072	0.0	n/a	LatePress	0	n/a	n/a	2	25	Fixation	MissedWin	True
248.574	0.17	Win2	0.6154	0.004	No	3.072	-0.004	2.0	LatePress	0	0.18	247.754	2	25	Target	MissedWin	True
248.754	0.3	Win2	0.6154	0.004	No	3.072	-0.004	2.0	LatePress	0	0.18	n/a	2	25	ButtonPress	MissedWin	True
248.757	0.53	Win2	0.6154	n/a	No	3.072	n/a	n/a	LatePress	0	n/a	n/a	2	25	Blank	MissedWin	True
249.276	1.45	Win2	0.6154	n/a	No	3.072	n/a	5.0	LatePress	0	0.016	248.292	2	25	Feedback	MissedWin	True
250.73	3.072	Win2	0.6154	n/a	No	3.072	n/a	n/a	LatePress	0	0.0	n/a	2	25	ISIslide	MissedWin	True
253.823	0.25	Win2	0.6296	0.0	Yes	2.927	0.023	n/a	GoodResponse	1	n/a	n/a	3	26	Cue	Win	False
254.073	3.95	Win2	0.6296	0.0	Yes	2.927	0.0	2.0	GoodResponse	1	0.196	253.269	3	26	Fixation	Win	False
254.269	0.3	Win2	0.6296	0.0	Yes	2.927	0.0	2.0	GoodResponse	1	0.196	n/a	3	26	ButtonPress	Win	False
258.019	0.18	Win2	0.6296	0.004	Yes	2.927	-0.004	2.0	GoodResponse	1	0.176	257.195	3	26	Target	Win	False
258.195	0.3	Win2	0.6296	0.004	Yes	2.927	-0.004	2.0	GoodResponse	1	0.176	n/a	3	26	ButtonPress	Win	False
258.202	0.52	Win2	0.6296	n/a	Yes	2.927	n/a	n/a	GoodResponse	1	n/a	n/a	3	26	Blank	Win	False
258.721	1.45	Win2	0.6296	n/a	Yes	2.927	n/a	5.0	GoodResponse	1	0.034	257.755	3	26	Feedback	Win	False
260.175	2.927	Win2	0.6296	n/a	Yes	2.927	n/a	n/a	GoodResponse	1	0.0	n/a	3	26	ISIslide	Win	False
263.117	0.25	Lose2	0.6429	0.0	Yes	2.833	0.017	n/a	GoodResponse	0	n/a	n/a	3	27	Cue	AvoidedLoss	True
263.368	4.05	Lose2	0.6429	0.0	Yes	2.833	0.001	n/a	GoodResponse	0	n/a	n/a	3	27	Fixation	AvoidedLoss	True
267.413	0.19	Lose2	0.6429	0.004	Yes	2.833	-0.004	2.0	GoodResponse	0	0.178	266.591	3	27	Target	AvoidedLoss	True
267.591	0.3	Lose2	0.6429	0.004	Yes	2.833	-0.004	2.0	GoodResponse	0	0.178	n/a	3	27	ButtonPress	AvoidedLoss	True
267.614	0.51	Lose2	0.6429	n/a	Yes	2.833	n/a	n/a	GoodResponse	0	n/a	n/a	3	27	Blank	AvoidedLoss	True
268.115	1.45	Lose2	0.6429	n/a	Yes	2.833	n/a	5.0	GoodResponse	0	0.006	267.121	3	27	Feedback	AvoidedLoss	True
269.57	2.833	Lose2	0.6429	n/a	Yes	2.833	n/a	n/a	GoodResponse	0	0.0	n/a	3	27	ISIslide	AvoidedLoss	True
272.428	0.25	Control	0.6207	0.0	No	2.822	0.028	n/a	NoResponse	0	n/a	n/a	3	28	Cue	Neutral	True
272.679	4.05	Control	0.6207	0.0	No	2.822	0.001	n/a	NoResponse	0	n/a	n/a	3	28	Fixation	Neutral	True
276.724	0.2	Control	0.6207	0.004	No	2.822	-0.004	2.0	NoResponse	0	0.255	275.979	3	28	Target	Neutral	True
276.925	0.5	Control	0.6207	n/a	No	2.822	n/a	n/a	NoResponse	0	n/a	n/a	3	28	Blank	Neutral	True
276.979	0.3	Control	0.6207	0.004	No	2.822	-0.004	2.0	NoResponse	0	0.255	n/a	3	28	ButtonPress	Neutral	True
277.427	1.45	Control	0.6207	n/a	No	2.822	n/a	5.0	NoResponse	0	0.012	276.439	3	28	Feedback	Neutral	True
278.881	2.822	Control	0.6207	n/a	No	2.822	n/a	n/a	NoResponse	0	0.0	n/a	3	28	ISIslide	Neutral	True
281.723	0.25	Lose2	0.6333	0.0	Yes	2.827	0.023	n/a	GoodResponse	0	n/a	n/a	3	29	Cue	AvoidedLoss	True
281.973	3.95	Lose2	0.6333	0.001	Yes	2.827	0.0	n/a	GoodResponse	0	n/a	n/a	3	29	Fixation	AvoidedLoss	True
285.919	0.21	Lose2	0.6333	0.004	Yes	2.827	-0.004	2.0	GoodResponse	0	0.187	285.106	3	29	Target	AvoidedLoss	True
286.106	0.3	Lose2	0.6333	0.004	Yes	2.827	-0.004	2.0	GoodResponse	0	0.187	n/a	3	29	ButtonPress	AvoidedLoss	True
286.136	0.49	Lose2	0.6333	n/a	Yes	2.827	n/a	n/a	GoodResponse	0	n/a	n/a	3	29	Blank	AvoidedLoss	True
286.621	1.45	Lose2	0.6333	n/a	Yes	2.827	n/a	5.0	GoodResponse	0	0.036	285.657	3	29	Feedback	AvoidedLoss	True
288.075	2.827	Lose2	0.6333	n/a	Yes	2.827	n/a	n/a	GoodResponse	0	0.0	n/a	3	29	ISIslide	AvoidedLoss	True
290.917	0.25	Win2	0.6129	0.0	No	2.783	0.017	n/a	NoResponse	0	n/a	n/a	3	30	Cue	MissedWin	True
291.168	3.9	Win2	0.6129	0.0	No	2.783	0.001	n/a	NoResponse	0	n/a	n/a	3	30	Fixation	MissedWin	True
295.063	0.22	Win2	0.6129	0.004	No	2.783	-0.004	2.0	NoResponse	0	0.298	294.361	3	30	Target	MissedWin	True
295.297	0.48	Win2	0.6129	n/a	No	2.783	n/a	n/a	NoResponse	0	n/a	n/a	3	30	Blank	MissedWin	True
295.361	0.3	Win2	0.6129	0.004	No	2.783	-0.004	2.0	NoResponse	0	0.298	n/a	3	30	ButtonPress	MissedWin	True
295.765	1.45	Win2	0.6129	n/a	No	2.783	n/a	5.0	NoResponse	0	0.014	294.779	3	30	Feedback	MissedWin	True
297.219	2.783	Win2	0.6129	n/a	No	2.783	n/a	n/a	NoResponse	0	0.0	n/a	3	30	ISIslide	MissedWin	True
300.027	0.25	Lose2	0.625	0.001	Yes	2.823	0.027	n/a	GoodResponse	0	n/a	n/a	3	31	Cue	AvoidedLoss	True
300.278	4.05	Lose2	0.625	0.0	Yes	2.823	0.001	n/a	GoodResponse	0	n/a	n/a	3	31	Fixation	AvoidedLoss	True
304.324	0.23	Lose2	0.625	0.003	Yes	2.823	-0.003	2.0	GoodResponse	0	0.154	303.478	3	31	Target	AvoidedLoss	True
304.478	0.3	Lose2	0.625	0.003	Yes	2.823	-0.003	2.0	GoodResponse	0	0.154	n/a	3	31	ButtonPress	AvoidedLoss	True
304.558	0.47	Lose2	0.625	n/a	Yes	2.823	n/a	n/a	GoodResponse	0	n/a	n/a	3	31	Blank	AvoidedLoss	True
305.026	1.45	Lose2	0.625	n/a	Yes	2.823	n/a	5.0	GoodResponse	0	0.022	304.048	3	31	Feedback	AvoidedLoss	True
306.48	2.823	Lose2	0.625	n/a	Yes	2.823	n/a	n/a	GoodResponse	0	0.0	n/a	3	31	ISIslide	AvoidedLoss	True
309.322	0.25	Lose2	0.6364	0.0	Yes	2.628	0.022	n/a	GoodResponse	0	n/a	n/a	3	32	Cue	AvoidedLoss	True
309.573	4.15	Lose2	0.6364	0.0	Yes	2.628	0.001	n/a	GoodResponse	0	n/a	n/a	3	32	Fixation	AvoidedLoss	True
313.718	0.24	Lose2	0.6364	0.004	Yes	2.628	-0.004	2.0	GoodResponse	0	0.171	312.889	3	32	Target	AvoidedLoss	True
313.889	0.3	Lose2	0.6364	0.004	Yes	2.628	-0.004	2.0	GoodResponse	0	0.171	n/a	3	32	ButtonPress	AvoidedLoss	True
313.969	0.46	Lose2	0.6364	n/a	Yes	2.628	n/a	n/a	GoodResponse	0	n/a	n/a	3	32	Blank	AvoidedLoss	True
314.42	1.45	Lose2	0.6364	n/a	Yes	2.628	n/a	5.0	GoodResponse	0	0.042	313.462	3	32	Feedback	AvoidedLoss	True
315.875	2.628	Lose2	0.6364	n/a	Yes	2.628	n/a	n/a	GoodResponse	0	0.0	n/a	3	32	ISIslide	AvoidedLoss	True
318.516	0.25	Win2	0.6470999999999999	0.0	Yes	2.684	0.016	n/a	GoodResponse	1	n/a	n/a	4	33	Cue	Win	False
318.767	4.0	Win2	0.6470999999999999	0.0	Yes	2.684	0.001	2.0	GoodResponse	1	3.224	320.991	4	33	Fixation	Win	False
321.991	0.3	Win2	0.6470999999999999	0.0	Yes	2.684	0.001	2.0	GoodResponse	1	3.224	n/a	4	33	ButtonPress	Win	False
322.762	0.25	Win2	0.6470999999999999	0.004	Yes	2.684	-0.004	2.0	GoodResponse	1	0.237	321.999	4	33	Target	Win	False
322.999	0.3	Win2	0.6470999999999999	0.004	Yes	2.684	-0.004	2.0	GoodResponse	1	0.237	n/a	4	33	ButtonPress	Win	False
323.013	0.45	Win2	0.6470999999999999	n/a	Yes	2.684	n/a	n/a	GoodResponse	1	n/a	n/a	4	33	Blank	Win	False
323.464	1.45	Win2	0.6470999999999999	n/a	Yes	2.684	n/a	5.0	GoodResponse	1	0.023	322.487	4	33	Feedback	Win	False
324.919	2.684	Win2	0.6470999999999999	n/a	Yes	2.684	n/a	n/a	GoodResponse	1	0.0	n/a	4	33	ISIslide	Win	False
327.627	0.25	Lose2	0.6570999999999999	0.0	Yes	2.623	0.027	n/a	GoodResponse	0	n/a	n/a	4	34	Cue	AvoidedLoss	False
327.877	4.05	Lose2	0.6570999999999999	0.0	Yes	2.623	0.0	2.0	GoodResponse	0	3.691	330.568	4	34	Fixation	AvoidedLoss	False
331.568	0.3	Lose2	0.6570999999999999	0.0	Yes	2.623	0.0	2.0	GoodResponse	0	3.691	n/a	4	34	ButtonPress	AvoidedLoss	False
331.923	0.26	Lose2	0.6570999999999999	0.004	Yes	2.623	-0.004	2.0	GoodResponse	0	0.182	331.105	4	34	Target	AvoidedLoss	False
332.105	0.3	Lose2	0.6570999999999999	0.004	Yes	2.623	-0.004	2.0	GoodResponse	0	0.182	n/a	4	34	ButtonPress	AvoidedLoss	False
332.19	0.44	Lose2	0.6570999999999999	n/a	Yes	2.623	n/a	n/a	GoodResponse	0	n/a	n/a	4	34	Blank	AvoidedLoss	False
332.625	1.45	Lose2	0.6570999999999999	n/a	Yes	2.623	n/a	5.0	GoodResponse	0	0.032	331.657	4	34	Feedback	AvoidedLoss	False
334.079	2.623	Lose2	0.6570999999999999	n/a	Yes	2.623	n/a	n/a	GoodResponse	0	0.0	n/a	4	34	ISIslide	AvoidedLoss	False
336.72	0.25	Lose2	0.6667000000000001	0.001	Yes	2.68	0.02	n/a	GoodResponse	0	n/a	n/a	4	35	Cue	AvoidedLoss	True
336.971	4.0	Lose2	0.6667000000000001	0.0	Yes	2.68	0.001	n/a	GoodResponse	0	n/a	n/a	4	35	Fixation	AvoidedLoss	True
340.967	0.26	Lose2	0.6667000000000001	0.003	Yes	2.68	-0.003	2.0	GoodResponse	0	0.223	340.19	4	35	Target	AvoidedLoss	True
341.19	0.3	Lose2	0.6667000000000001	0.003	Yes	2.68	-0.003	2.0	GoodResponse	0	0.223	n/a	4	35	ButtonPress	AvoidedLoss	True
341.234	0.44	Lose2	0.6667000000000001	n/a	Yes	2.68	n/a	n/a	GoodResponse	0	n/a	n/a	4	35	Blank	AvoidedLoss	True
341.669	1.45	Lose2	0.6667000000000001	n/a	Yes	2.68	n/a	5.0	GoodResponse	0	0.012	340.681	4	35	Feedback	AvoidedLoss	True
343.123	2.68	Lose2	0.6667000000000001	n/a	Yes	2.68	n/a	n/a	GoodResponse	0	0.0	n/a	4	35	ISIslide	AvoidedLoss	True
345.831	0.25	Control	0.6757	0.0	Yes	2.669	0.031	n/a	GoodResponse	0	n/a	n/a	4	36	Cue	Neutral	True
346.082	4.0	Control	0.6757	0.0	Yes	2.669	0.001	n/a	GoodResponse	0	n/a	n/a	4	36	Fixation	Neutral	True
350.077	0.25	Control	0.6757	0.004	Yes	2.669	-0.004	2.0	GoodResponse	0	0.206	349.283	4	36	Target	Neutral	True
350.283	0.3	Control	0.6757	0.004	Yes	2.669	-0.004	2.0	GoodResponse	0	0.206	n/a	4	36	ButtonPress	Neutral	True
350.328	0.45	Control	0.6757	n/a	Yes	2.669	n/a	n/a	GoodResponse	0	n/a	n/a	4	36	Blank	Neutral	True
350.779	1.45	Control	0.6757	n/a	Yes	2.669	n/a	5.0	GoodResponse	0	0.024	349.803	4	36	Feedback	Neutral	True
352.234	2.669	Control	0.6757	n/a	Yes	2.669	n/a	n/a	GoodResponse	0	0.0	n/a	4	36	ISIslide	Neutral	True
354.925	0.25	Win2	0.6579	0.0	No	2.875	0.025	n/a	NoResponse	0	n/a	n/a	4	37	Cue	MissedWin	False
355.176	4.0	Win2	0.6579	0.0	No	2.875	0.001	2.0	NoResponse	0	3.439	357.615	4	37	Fixation	MissedWin	False
358.615	0.3	Win2	0.6579	0.0	No	2.875	0.001	2.0	NoResponse	0	3.439	n/a	4	37	ButtonPress	MissedWin	False
359.171	0.24	Win2	0.6579	0.004	No	2.875	-0.004	2.0	NoResponse	0	0.29	358.461	4	37	Target	MissedWin	False
359.422	0.46	Win2	0.6579	n/a	No	2.875	n/a	n/a	NoResponse	0	n/a	n/a	4	37	Blank	MissedWin	False
359.461	0.3	Win2	0.6579	0.004	No	2.875	-0.004	2.0	NoResponse	0	0.29	n/a	4	37	ButtonPress	MissedWin	False
359.873	1.45	Win2	0.6579	n/a	No	2.875	n/a	5.0	NoResponse	0	0.007	358.88	4	37	Feedback	MissedWin	False
361.327	2.875	Win2	0.6579	n/a	No	2.875	n/a	n/a	NoResponse	0	0.0	n/a	4	37	ISIslide	MissedWin	False
364.219	0.25	Lose2	0.6409999999999999	0.0	No	2.831	0.019	n/a	PrematurePress	-1	n/a	n/a	3	38	Cue	Loss	True
364.47	3.95	Lose2	0.6409999999999999	0.0	No	2.831	0.001	n/a	PrematurePress	-1	n/a	n/a	3	38	Fixation	Loss	True
368.415	0.24	Lose2	0.6409999999999999	0.004	No	2.831	-0.004	2.0	PrematurePress	-1	0.056	367.471	3	38	Target	Loss	True
368.471	0.3	Lose2	0.6409999999999999	0.004	No	2.831	-0.004	2.0	PrematurePress	-1	0.056	n/a	3	38	ButtonPress	Loss	True
368.666	0.46	Lose2	0.6409999999999999	n/a	No	2.831	n/a	n/a	PrematurePress	-1	n/a	n/a	3	38	Blank	Loss	True
369.117	1.45	Lose2	0.6409999999999999	n/a	No	2.831	n/a	5.0	PrematurePress	-1	0.027	368.144	3	38	Feedback	Loss	True
370.572	2.831	Lose2	0.6409999999999999	n/a	No	2.831	n/a	n/a	PrematurePress	-1	0.0	n/a	3	38	ISIslide	Loss	True
373.43	0.25	Win2	0.65	0.0	Yes	2.97	0.03	n/a	GoodResponse	1	n/a	n/a	4	39	Cue	Win	True
373.681	4.1	Win2	0.65	0.0	Yes	2.97	0.001	n/a	GoodResponse	1	n/a	n/a	4	39	Fixation	Win	True
377.777	0.25	Win2	0.65	0.003	Yes	2.97	-0.003	2.0	GoodResponse	1	0.167	376.944	4	39	Target	Win	True
377.944	0.3	Win2	0.65	0.003	Yes	2.97	-0.003	2.0	GoodResponse	1	0.167	n/a	4	39	ButtonPress	Win	True
378.027	0.45	Win2	0.65	n/a	Yes	2.97	n/a	n/a	GoodResponse	1	n/a	n/a	4	39	Blank	Win	True
378.479	1.45	Win2	0.65	n/a	Yes	2.97	n/a	5.0	GoodResponse	1	0.031	377.51	4	39	Feedback	Win	True
379.933	2.97	Win2	0.65	n/a	Yes	2.97	n/a	n/a	GoodResponse	1	0.0	n/a	4	39	ISIslide	Win	True
382.925	0.25	Win2	0.6585	0.0	Yes	2.725	0.025	n/a	GoodResponse	1	n/a	n/a	5	40	Cue	Win	True
383.176	3.95	Win2	0.6585	0.0	Yes	2.725	0.001	n/a	GoodResponse	1	n/a	n/a	5	40	Fixation	Win	True
387.121	0.26	Win2	0.6585	0.004	Yes	2.725	-0.004	2.0	GoodResponse	1	0.202	386.323	5	40	Target	Win	True
387.323	0.3	Win2	0.6585	0.004	Yes	2.725	-0.004	2.0	GoodResponse	1	0.202	n/a	5	40	ButtonPress	Win	True
387.389	0.44	Win2	0.6585	n/a	Yes	2.725	n/a	n/a	GoodResponse	1	n/a	n/a	5	40	Blank	Win	True
387.823	1.45	Win2	0.6585	n/a	Yes	2.725	n/a	5.0	GoodResponse	1	0.007	386.83	5	40	Feedback	Win	True
389.278	2.725	Win2	0.6585	n/a	Yes	2.725	n/a	n/a	GoodResponse	1	0.0	n/a	5	40	ISIslide	Win	True
392.019	0.25	Win2	0.6429	0.0	No	2.781	0.019	n/a	NoResponse	0	n/a	n/a	5	41	Cue	MissedWin	True
392.27	3.9	Win2	0.6429	0.0	No	2.781	0.001	2.0	NoResponse	0	3.883	395.153	5	41	Fixation	MissedWin	True
396.153	0.3	Win2	0.6429	0.0	No	2.781	0.001	2.0	NoResponse	0	3.883	n/a	5	41	ButtonPress	MissedWin	True
396.165	0.26	Win2	0.6429	0.004	No	2.781	-0.004	n/a	NoResponse	0	n/a	n/a	5	41	Target	MissedWin	True
396.432	0.44	Win2	0.6429	n/a	No	2.781	n/a	n/a	NoResponse	0	n/a	n/a	5	41	Blank	MissedWin	True
396.867	1.45	Win2	0.6429	n/a	No	2.781	n/a	5.0	NoResponse	0	0.034	395.901	5	41	Feedback	MissedWin	True
398.321	2.781	Win2	0.6429	n/a	No	2.781	n/a	n/a	NoResponse	0	0.0	n/a	5	41	ISIslide	MissedWin	True
401.13	0.25	Control	0.6279	0.0	No	2.92	0.03	n/a	NoResponse	0	n/a	n/a	5	42	Cue	Neutral	True
401.38	3.85	Control	0.6279	0.001	No	2.92	0.0	n/a	NoResponse	0	n/a	n/a	5	42	Fixation	Neutral	True
405.242	0.27	Control	0.6279	0.0	No	2.92	0.012	2.0	NoResponse	0	0.285	404.527	5	42	Target	Neutral	True
405.509	0.43	Control	0.6279	n/a	No	2.92	n/a	n/a	NoResponse	0	n/a	n/a	5	42	Blank	Neutral	True
405.527	0.3	Control	0.6279	0.0	No	2.92	0.012	2.0	NoResponse	0	0.285	n/a	5	42	ButtonPress	Neutral	True
405.927	1.45	Control	0.6279	n/a	No	2.92	n/a	5.0	NoResponse	0	0.047	404.974	5	42	Feedback	Neutral	True
407.382	2.92	Control	0.6279	n/a	No	2.92	n/a	n/a	NoResponse	0	0.0	n/a	5	42	ISIslide	Neutral	True
410.324	0.25	Win2	0.6364	0.0	Yes	3.176	0.024	n/a	GoodResponse	1	n/a	n/a	6	43	Cue	Win	True
410.575	4.0	Win2	0.6364	0.0	Yes	3.176	0.001	n/a	GoodResponse	1	n/a	n/a	6	43	Fixation	Win	True
414.57	0.28	Win2	0.6364	0.004	Yes	3.176	-0.004	2.0	GoodResponse	1	0.156	413.726	6	43	Target	Win	True
414.726	0.3	Win2	0.6364	0.004	Yes	3.176	-0.004	2.0	GoodResponse	1	0.156	n/a	6	43	ButtonPress	Win	True
414.854	0.42	Win2	0.6364	n/a	Yes	3.176	n/a	n/a	GoodResponse	1	n/a	n/a	6	43	Blank	Win	True
415.272	1.45	Win2	0.6364	n/a	Yes	3.176	n/a	5.0	GoodResponse	1	0.018	414.29	6	43	Feedback	Win	True
416.726	3.176	Win2	0.6364	n/a	Yes	3.176	n/a	n/a	GoodResponse	1	0.0	n/a	6	43	ISIslide	Win	True
419.919	0.25	Win2	0.6444	0.0	Yes	2.981	0.019	n/a	GoodResponse	1	n/a	n/a	7	44	Cue	Win	True
420.17	4.0	Win2	0.6444	0.0	Yes	2.981	0.001	n/a	GoodResponse	1	n/a	n/a	7	44	Fixation	Win	True
424.165	0.29	Win2	0.6444	0.004	Yes	2.981	-0.004	2.0	GoodResponse	1	0.16	423.325	7	44	Target	Win	True
424.325	0.3	Win2	0.6444	0.004	Yes	2.981	-0.004	2.0	GoodResponse	1	0.16	n/a	7	44	ButtonPress	Win	True
424.466	0.41	Win2	0.6444	n/a	Yes	2.981	n/a	n/a	GoodResponse	1	n/a	n/a	7	44	Blank	Win	True
424.867	1.45	Win2	0.6444	n/a	Yes	2.981	n/a	5.0	GoodResponse	1	0.033	423.9	7	44	Feedback	Win	True
426.322	2.981	Win2	0.6444	n/a	Yes	2.981	n/a	n/a	GoodResponse	1	0.0	n/a	7	44	ISIslide	Win	True
429.331	0.25	Control	0.6522	0.0	Yes	2.869	0.031	n/a	GoodResponse	0	n/a	n/a	7	45	Cue	Neutral	True
429.581	4.1	Control	0.6522	0.001	Yes	2.869	0.0	n/a	GoodResponse	0	n/a	n/a	7	45	Fixation	Neutral	True
433.677	0.3	Control	0.6522	0.004	Yes	2.869	-0.004	2.0	GoodResponse	0	0.22	432.897	7	45	Target	Neutral	True
433.897	0.3	Control	0.6522	0.004	Yes	2.869	-0.004	2.0	GoodResponse	0	0.22	n/a	7	45	ButtonPress	Neutral	True
433.978	0.4	Control	0.6522	n/a	Yes	2.869	n/a	n/a	GoodResponse	0	n/a	n/a	7	45	Blank	Neutral	True
434.379	1.45	Control	0.6522	n/a	Yes	2.869	n/a	5.0	GoodResponse	0	0.033	433.412	7	45	Feedback	Neutral	True
435.833	2.869	Control	0.6522	n/a	Yes	2.869	n/a	n/a	GoodResponse	0	0.0	n/a	7	45	ISIslide	Neutral	True
438.725	0.25	Lose2	0.6596	0.001	Yes	3.375	0.025	n/a	GoodResponse	0	n/a	n/a	7	46	Cue	AvoidedLoss	False
438.976	4.0	Lose2	0.6596	0.0	Yes	3.375	0.001	2.0	GoodResponse	0	3.143	441.119	7	46	Fixation	AvoidedLoss	False
442.119	0.3	Lose2	0.6596	0.0	Yes	3.375	0.001	2.0	GoodResponse	0	3.143	n/a	7	46	ButtonPress	AvoidedLoss	False
442.971	0.31	Lose2	0.6596	0.004	Yes	3.375	-0.004	2.0	GoodResponse	0	0.238	442.209	7	46	Target	AvoidedLoss	False
443.209	0.3	Lose2	0.6596	0.004	Yes	3.375	-0.004	2.0	GoodResponse	0	0.238	n/a	7	46	ButtonPress	AvoidedLoss	False
443.289	0.39	Lose2	0.6596	n/a	Yes	3.375	n/a	n/a	GoodResponse	0	n/a	n/a	7	46	Blank	AvoidedLoss	False
443.674	1.45	Lose2	0.6596	n/a	Yes	3.375	n/a	5.0	GoodResponse	0	0.007	442.681	7	46	Feedback	AvoidedLoss	False
445.128	3.375	Lose2	0.6596	n/a	Yes	3.375	n/a	n/a	GoodResponse	0	0.0	n/a	7	46	ISIslide	AvoidedLoss	False
448.521	0.25	Lose2	0.6667000000000001	0.0	Yes	2.679	0.021	n/a	GoodResponse	0	n/a	n/a	7	47	Cue	AvoidedLoss	True
448.772	4.0	Lose2	0.6667000000000001	0.0	Yes	2.679	0.001	n/a	GoodResponse	0	n/a	n/a	7	47	Fixation	AvoidedLoss	True
452.767	0.31	Lose2	0.6667000000000001	0.004	Yes	2.679	-0.004	2.0	GoodResponse	0	0.208	451.975	7	47	Target	AvoidedLoss	True
452.975	0.3	Lose2	0.6667000000000001	0.004	Yes	2.679	-0.004	2.0	GoodResponse	0	0.208	n/a	7	47	ButtonPress	AvoidedLoss	True
453.085	0.39	Lose2	0.6667000000000001	n/a	Yes	2.679	n/a	n/a	GoodResponse	0	n/a	n/a	7	47	Blank	AvoidedLoss	True
453.47	1.45	Lose2	0.6667000000000001	n/a	Yes	2.679	n/a	5.0	GoodResponse	0	0.016	452.486	7	47	Feedback	AvoidedLoss	True
454.924	2.679	Lose2	0.6667000000000001	n/a	Yes	2.679	n/a	n/a	GoodResponse	0	0.0	n/a	7	47	ISIslide	AvoidedLoss	True
457.615	0.25	Lose2	0.6735	0.0	Yes	3.035	0.015	n/a	GoodResponse	0	n/a	n/a	7	48	Cue	AvoidedLoss	True
457.866	3.95	Lose2	0.6735	0.0	Yes	3.035	0.001	n/a	GoodResponse	0	n/a	n/a	7	48	Fixation	AvoidedLoss	True
461.811	0.3	Lose2	0.6735	0.004	Yes	3.035	-0.004	2.0	GoodResponse	0	0.189	461.0	7	48	Target	AvoidedLoss	True
462	0.3	Lose2	0.6735	0.004	Yes	3.035	-0.004	2.0	GoodResponse	0	0.189	n/a	7	48	ButtonPress	AvoidedLoss	True
462.112	0.4	Lose2	0.6735	n/a	Yes	3.035	n/a	n/a	GoodResponse	0	n/a	n/a	7	48	Blank	AvoidedLoss	True
462.513	1.45	Lose2	0.6735	n/a	Yes	3.035	n/a	5.0	GoodResponse	0	0.045	461.558	7	48	Feedback	AvoidedLoss	True
463.968	3.035	Lose2	0.6735	n/a	Yes	3.035	n/a	n/a	GoodResponse	0	0.0	n/a	7	48	ISIslide	AvoidedLoss	True
467.027	0.25	Control	0.68	0.0	Yes	2.873	0.027	n/a	GoodResponse	0	n/a	n/a	7	49	Cue	Neutral	True
467.278	4.0	Control	0.68	0.0	Yes	2.873	0.001	n/a	GoodResponse	0	n/a	n/a	7	49	Fixation	Neutral	True
471.273	0.29	Control	0.68	0.004	Yes	2.873	-0.004	2.0	GoodResponse	0	0.186	470.459	7	49	Target	Neutral	True
471.459	0.3	Control	0.68	0.004	Yes	2.873	-0.004	2.0	GoodResponse	0	0.186	n/a	7	49	ButtonPress	Neutral	True
471.574	0.41	Control	0.68	n/a	Yes	2.873	n/a	n/a	GoodResponse	0	n/a	n/a	7	49	Blank	Neutral	True
471.975	1.45	Control	0.68	n/a	Yes	2.873	n/a	5.0	GoodResponse	0	0.046	471.021	7	49	Feedback	Neutral	True
473.429	2.873	Control	0.68	n/a	Yes	2.873	n/a	n/a	GoodResponse	0	0.0	n/a	7	49	ISIslide	Neutral	True
476.321	0.25	Control	0.6862999999999999	0.0	Yes	2.779	0.021	n/a	GoodResponse	0	n/a	n/a	7	50	Cue	Neutral	True
476.572	4.0	Control	0.6862999999999999	0.0	Yes	2.779	0.001	n/a	GoodResponse	0	n/a	n/a	7	50	Fixation	Neutral	True
480.567	0.28	Control	0.6862999999999999	0.004	Yes	2.779	-0.004	2.0	GoodResponse	0	0.229	479.796	7	50	Target	Neutral	True
480.796	0.3	Control	0.6862999999999999	0.004	Yes	2.779	-0.004	2.0	GoodResponse	0	0.229	n/a	7	50	ButtonPress	Neutral	True
480.851	0.42	Control	0.6862999999999999	n/a	Yes	2.779	n/a	n/a	GoodResponse	0	n/a	n/a	7	50	Blank	Neutral	True
481.269	1.45	Control	0.6862999999999999	n/a	Yes	2.779	n/a	5.0	GoodResponse	0	0.021	480.29	7	50	Feedback	Neutral	True
482.724	2.779	Control	0.6862999999999999	n/a	Yes	2.779	n/a	n/a	GoodResponse	0	0.0	n/a	7	50	ISIslide	Neutral	True
485.515	0.25	Control	0.6923	0.0	Yes	2.735	0.015	n/a	GoodResponse	0	n/a	n/a	7	51	Cue	Neutral	True
485.766	3.95	Control	0.6923	0.0	Yes	2.735	0.001	n/a	GoodResponse	0	n/a	n/a	7	51	Fixation	Neutral	True
489.711	0.27	Control	0.6923	0.004	Yes	2.735	-0.004	2.0	GoodResponse	0	0.19	488.901	7	51	Target	Neutral	True
489.901	0.3	Control	0.6923	0.004	Yes	2.735	-0.004	2.0	GoodResponse	0	0.19	n/a	7	51	ButtonPress	Neutral	True
489.995	0.43	Control	0.6923	n/a	Yes	2.735	n/a	n/a	GoodResponse	0	n/a	n/a	7	51	Blank	Neutral	True
490.413	1.45	Control	0.6923	n/a	Yes	2.735	n/a	5.0	GoodResponse	0	0.048	489.461	7	51	Feedback	Neutral	True
491.868	2.735	Control	0.6923	n/a	Yes	2.735	n/a	n/a	GoodResponse	0	0.0	n/a	7	51	ISIslide	Neutral	True
494.626	0.25	Control	0.6981	0.0	Yes	2.624	0.026	n/a	GoodResponse	0	n/a	n/a	7	52	Cue	Neutral	True
494.877	4.05	Control	0.6981	0.0	Yes	2.624	0.001	n/a	GoodResponse	0	n/a	n/a	7	52	Fixation	Neutral	True
498.922	0.26	Control	0.6981	0.004	Yes	2.624	-0.004	2.0	GoodResponse	0	0.243	498.165	7	52	Target	Neutral	True
499.165	0.3	Control	0.6981	0.004	Yes	2.624	-0.004	2.0	GoodResponse	0	0.243	n/a	7	52	ButtonPress	Neutral	True
499.19	0.44	Control	0.6981	n/a	Yes	2.624	n/a	n/a	GoodResponse	0	n/a	n/a	7	52	Blank	Neutral	True
499.624	1.45	Control	0.6981	n/a	Yes	2.624	n/a	5.0	GoodResponse	0	0.008	498.632	7	52	Feedback	Neutral	True
501.079	2.624	Control	0.6981	n/a	Yes	2.624	n/a	n/a	GoodResponse	0	0.0	n/a	7	52	ISIslide	Neutral	True
503.72	0.25	Win2	0.7037	0.0	Yes	2.93	0.02	n/a	GoodResponse	1	n/a	n/a	8	53	Cue	Win	True
503.971	4.05	Win2	0.7037	0.0	Yes	2.93	0.001	n/a	GoodResponse	1	n/a	n/a	8	53	Fixation	Win	True
508.016	0.25	Win2	0.7037	0.004	Yes	2.93	-0.004	2.0	GoodResponse	1	0.181	507.197	8	53	Target	Win	True
508.197	0.3	Win2	0.7037	0.004	Yes	2.93	-0.004	2.0	GoodResponse	1	0.181	n/a	8	53	ButtonPress	Win	True
508.267	0.45	Win2	0.7037	n/a	Yes	2.93	n/a	n/a	GoodResponse	1	n/a	n/a	8	53	Blank	Win	True
508.718	1.45	Win2	0.7037	n/a	Yes	2.93	n/a	5.0	GoodResponse	1	0.035	507.753	8	53	Feedback	Win	True
510.172	2.93	Win2	0.7037	n/a	Yes	2.93	n/a	n/a	GoodResponse	1	0.0	n/a	8	53	ISIslide	Win	True
513.131	0.25	Win2	0.6909000000000001	0.0	No	2.719	0.031	n/a	NoResponse	0	n/a	n/a	8	54	Cue	MissedWin	True
513.382	3.95	Win2	0.6909000000000001	0.0	No	2.719	0.001	n/a	NoResponse	0	n/a	n/a	8	54	Fixation	MissedWin	True
517.327	0.24	Win2	0.6909000000000001	0.004	No	2.719	-0.004	2.0	NoResponse	0	0.297	516.624	8	54	Target	MissedWin	True
517.578	0.46	Win2	0.6909000000000001	n/a	No	2.719	n/a	n/a	NoResponse	0	n/a	n/a	8	54	Blank	MissedWin	True
517.624	0.3	Win2	0.6909000000000001	0.004	No	2.719	-0.004	2.0	NoResponse	0	0.297	n/a	8	54	ButtonPress	MissedWin	True
518.029	1.45	Win2	0.6909000000000001	n/a	No	2.719	n/a	5.0	NoResponse	0	0.041	517.07	8	54	Feedback	MissedWin	True
519.484	2.719	Win2	0.6909000000000001	n/a	No	2.719	n/a	n/a	NoResponse	0	0.0	n/a	8	54	ISIslide	MissedWin	True
522.225	0.25	Control	0.6964	0.0	Yes	3.025	0.025	n/a	GoodResponse	0	n/a	n/a	8	55	Cue	Neutral	True
522.476	3.95	Control	0.6964	0.0	Yes	3.025	0.001	n/a	GoodResponse	0	n/a	n/a	8	55	Fixation	Neutral	True
526.421	0.23	Control	0.6964	0.004	Yes	3.025	-0.004	2.0	GoodResponse	0	0.173	525.594	8	55	Target	Neutral	True
526.594	0.3	Control	0.6964	0.004	Yes	3.025	-0.004	2.0	GoodResponse	0	0.173	n/a	8	55	ButtonPress	Neutral	True
526.655	0.47	Control	0.6964	n/a	Yes	3.025	n/a	n/a	GoodResponse	0	n/a	n/a	8	55	Blank	Neutral	True
527.123	1.45	Control	0.6964	n/a	Yes	3.025	n/a	5.0	GoodResponse	0	0.02	526.143	8	55	Feedback	Neutral	True
528.577	3.025	Control	0.6964	n/a	Yes	3.025	n/a	n/a	GoodResponse	0	0.0	n/a	8	55	ISIslide	Neutral	True
531.62	0.25	Control	0.6842	0.0	No	2.83	0.02	n/a	NoResponse	0	n/a	n/a	8	56	Cue	Neutral	True
531.871	3.95	Control	0.6842	0.0	No	2.83	0.001	n/a	NoResponse	0	n/a	n/a	8	56	Fixation	Neutral	True
535.816	0.22	Control	0.6842	0.004	No	2.83	-0.004	2.0	NoResponse	0	0.248	535.064	8	56	Target	Neutral	True
536.05	0.48	Control	0.6842	n/a	No	2.83	n/a	n/a	NoResponse	0	n/a	n/a	8	56	Blank	Neutral	True
536.064	0.3	Control	0.6842	0.004	No	2.83	-0.004	2.0	NoResponse	0	0.248	n/a	8	56	ButtonPress	Neutral	True
536.518	1.45	Control	0.6842	n/a	No	2.83	n/a	5.0	NoResponse	0	0.04	535.558	8	56	Feedback	Neutral	True
537.972	2.83	Control	0.6842	n/a	No	2.83	n/a	n/a	NoResponse	0	0.0	n/a	8	56	ISIslide	Neutral	True
540.831	0.25	Control	0.6897	0.0	Yes	3.469	0.031	n/a	GoodResponse	0	n/a	n/a	8	57	Cue	Neutral	True
541.082	4.0	Control	0.6897	0.0	Yes	3.469	0.001	n/a	GoodResponse	0	n/a	n/a	8	57	Fixation	Neutral	True
545.077	0.21	Control	0.6897	0.004	Yes	3.469	-0.004	2.0	GoodResponse	0	0.19	544.267	8	57	Target	Neutral	True
545.267	0.3	Control	0.6897	0.004	Yes	3.469	-0.004	2.0	GoodResponse	0	0.19	n/a	8	57	ButtonPress	Neutral	True
545.294	0.49	Control	0.6897	n/a	Yes	3.469	n/a	n/a	GoodResponse	0	n/a	n/a	8	57	Blank	Neutral	True
545.779	1.45	Control	0.6897	n/a	Yes	3.469	n/a	5.0	GoodResponse	0	0.046	544.825	8	57	Feedback	Neutral	True
547.233	3.469	Control	0.6897	n/a	Yes	3.469	n/a	n/a	GoodResponse	0	0.0	n/a	8	57	ISIslide	Neutral	True
550.727	0.25	Win2	0.6779999999999999	0.0	No	2.723	0.027	n/a	LatePress	0	n/a	n/a	8	58	Cue	MissedWin	False
550.978	4.05	Win2	0.6779999999999999	0.0	No	2.723	0.001	2.0	LatePress	0	0.144	550.122	8	58	Fixation	MissedWin	False
551.122	0.3	Win2	0.6779999999999999	0.0	No	2.723	0.001	2.0	LatePress	0	0.144	n/a	8	58	ButtonPress	MissedWin	False
555.023	0.2	Win2	0.6779999999999999	0.004	No	2.723	-0.004	2.0	LatePress	0	0.203	554.226	8	58	Target	MissedWin	False
555.224	0.5	Win2	0.6779999999999999	n/a	No	2.723	n/a	n/a	LatePress	0	n/a	n/a	8	58	Blank	MissedWin	False
555.226	0.3	Win2	0.6779999999999999	0.004	No	2.723	-0.004	2.0	LatePress	0	0.203	n/a	8	58	ButtonPress	MissedWin	False
555.725	1.45	Win2	0.6779999999999999	n/a	No	2.723	n/a	5.0	LatePress	0	0.006	554.731	8	58	Feedback	MissedWin	False
557.18	2.723	Win2	0.6779999999999999	n/a	No	2.723	n/a	n/a	LatePress	0	0.0	n/a	8	58	ISIslide	MissedWin	False
559.921	0.25	Lose2	0.6833	0.0	Yes	2.679	0.021	n/a	GoodResponse	0	n/a	n/a	8	59	Cue	AvoidedLoss	True
560.172	4.0	Lose2	0.6833	0.0	Yes	2.679	0.001	n/a	GoodResponse	0	n/a	n/a	8	59	Fixation	AvoidedLoss	True
564.167	0.19	Lose2	0.6833	0.004	Yes	2.679	-0.004	2.0	GoodResponse	0	0.167	563.334	8	59	Target	AvoidedLoss	True
564.334	0.3	Lose2	0.6833	0.004	Yes	2.679	-0.004	2.0	GoodResponse	0	0.167	n/a	8	59	ButtonPress	AvoidedLoss	True
564.368	0.51	Lose2	0.6833	n/a	Yes	2.679	n/a	n/a	GoodResponse	0	n/a	n/a	8	59	Blank	AvoidedLoss	True
564.869	1.45	Lose2	0.6833	n/a	Yes	2.679	n/a	5.0	GoodResponse	0	0.03	563.899	8	59	Feedback	AvoidedLoss	True
566.324	2.679	Lose2	0.6833	n/a	Yes	2.679	n/a	n/a	GoodResponse	0	0.0	n/a	8	59	ISIslide	AvoidedLoss	True
569.015	0.25	Control	0.6720999999999999	0.0	No	2.685	0.015	n/a	NoResponse	0	n/a	n/a	8	60	Cue	Neutral	True
569.266	4.0	Control	0.6720999999999999	0.0	No	2.685	0.001	n/a	NoResponse	0	n/a	n/a	8	60	Fixation	Neutral	True
573.261	0.18	Control	0.6720999999999999	0.004	No	2.685	-0.004	2.0	NoResponse	0	0.254	572.515	8	60	Target	Neutral	True
573.445	0.52	Control	0.6720999999999999	n/a	No	2.685	n/a	n/a	NoResponse	0	n/a	n/a	8	60	Blank	Neutral	True
573.515	0.3	Control	0.6720999999999999	0.004	No	2.685	-0.004	2.0	NoResponse	0	0.254	n/a	8	60	ButtonPress	Neutral	True
573.963	1.45	Control	0.6720999999999999	n/a	No	2.685	n/a	5.0	NoResponse	0	0.009	572.972	8	60	Feedback	Neutral	True
575.417	2.685	Control	0.6720999999999999	n/a	No	2.685	n/a	n/a	NoResponse	0	0.0	n/a	8	60	ISIslide	Neutral	True
578.126	0.25	Lose2	0.6613	0.0	No	2.974	0.026	n/a	LatePress	-1	n/a	n/a	7	61	Cue	Loss	True
578.376	4.0	Lose2	0.6613	0.0	No	2.974	0.0	n/a	LatePress	-1	n/a	n/a	7	61	Fixation	Loss	True
582.372	0.17	Lose2	0.6613	0.004	No	2.974	-0.004	2.0	LatePress	-1	0.174	581.546	7	61	Target	Loss	True
582.546	0.3	Lose2	0.6613	0.004	No	2.974	-0.004	2.0	LatePress	-1	0.174	n/a	7	61	ButtonPress	Loss	True
582.555	0.53	Lose2	0.6613	n/a	No	2.974	n/a	n/a	LatePress	-1	n/a	n/a	7	61	Blank	Loss	True
583.074	1.45	Lose2	0.6613	n/a	No	2.974	n/a	5.0	LatePress	-1	0.02	582.094	7	61	Feedback	Loss	True
584.528	2.974	Lose2	0.6613	n/a	No	2.974	n/a	n/a	LatePress	-1	0.0	n/a	7	61	ISIslide	Loss	True
587.52	0.25	Lose2	0.6507999999999999	0.0	No	2.88	0.02	n/a	LatePress	-1	n/a	n/a	6	62	Cue	Loss	True
587.771	3.9	Lose2	0.6507999999999999	0.0	No	2.88	0.001	n/a	LatePress	-1	n/a	n/a	6	62	Fixation	Loss	True
591.666	0.17	Lose2	0.6507999999999999	0.004	No	2.88	-0.004	2.0	LatePress	-1	0.181	590.847	6	62	Target	Loss	True
591.847	0.3	Lose2	0.6507999999999999	0.004	No	2.88	-0.004	2.0	LatePress	-1	0.181	n/a	6	62	ButtonPress	Loss	True
591.85	0.53	Lose2	0.6507999999999999	n/a	No	2.88	n/a	n/a	LatePress	-1	n/a	n/a	6	62	Blank	Loss	True
592.368	1.45	Lose2	0.6507999999999999	n/a	No	2.88	n/a	5.0	LatePress	-1	0.042	591.41	6	62	Feedback	Loss	True
593.823	2.88	Lose2	0.6507999999999999	n/a	No	2.88	n/a	n/a	LatePress	-1	0.0	n/a	6	62	ISIslide	Loss	True
596.731	0.25	Lose2	0.6406000000000001	0.0	No	2.619	0.031	n/a	NoResponse	-1	n/a	n/a	5	63	Cue	Loss	False
596.982	4.05	Lose2	0.6406000000000001	0.0	No	2.619	0.001	2.0	NoResponse	-1	3.035	599.017	5	63	Fixation	Loss	False
600.017	0.3	Lose2	0.6406000000000001	0.0	No	2.619	0.001	2.0	NoResponse	-1	3.035	n/a	5	63	ButtonPress	Loss	False
601.027	0.18	Lose2	0.6406000000000001	0.004	No	2.619	-0.004	2.0	NoResponse	-1	0.225	600.252	5	63	Target	Loss	False
601.211	0.52	Lose2	0.6406000000000001	n/a	No	2.619	n/a	n/a	NoResponse	-1	n/a	n/a	5	63	Blank	Loss	False
601.252	0.3	Lose2	0.6406000000000001	0.004	No	2.619	-0.004	2.0	NoResponse	-1	0.225	n/a	5	63	ButtonPress	Loss	False
601.73	1.45	Lose2	0.6406000000000001	n/a	No	2.619	n/a	5.0	NoResponse	-1	0.046	600.776	5	63	Feedback	Loss	False
603.184	2.619	Lose2	0.6406000000000001	n/a	No	2.619	n/a	n/a	NoResponse	-1	0.0	n/a	5	63	ISIslide	Loss	False
605.825	0.25	Win2	0.6308	0.0	No	3.125	0.025	n/a	NoResponse	0	n/a	n/a	5	64	Cue	MissedWin	True
606.076	4.15	Win2	0.6308	0.0	No	3.125	0.001	n/a	NoResponse	0	n/a	n/a	5	64	Fixation	MissedWin	True
610.222	0.19	Win2	0.6308	0.003	No	3.125	-0.003	2.0	NoResponse	0	0.239	609.461	5	64	Target	MissedWin	True
610.422	0.51	Win2	0.6308	n/a	No	3.125	n/a	n/a	NoResponse	0	n/a	n/a	5	64	Blank	MissedWin	True
610.461	0.3	Win2	0.6308	0.003	No	3.125	-0.003	2.0	NoResponse	0	0.239	n/a	5	64	ButtonPress	MissedWin	True
610.924	1.45	Win2	0.6308	n/a	No	3.125	n/a	5.0	NoResponse	0	0.023	609.947	5	64	Feedback	MissedWin	True
612.378	3.125	Win2	0.6308	n/a	No	3.125	n/a	n/a	NoResponse	0	0.0	n/a	5	64	ISIslide	MissedWin	True
615.521	0.25	Control	0.6212	0.0	No	2.779	0.021	n/a	NoResponse	0	n/a	n/a	5	65	Cue	Neutral	True
615.771	4.0	Control	0.6212	0.001	No	2.779	0.0	n/a	NoResponse	0	n/a	n/a	5	65	Fixation	Neutral	True
619.767	0.2	Control	0.6212	0.004	No	2.779	-0.004	2.0	NoResponse	0	0.228	618.995	5	65	Target	Neutral	True
619.967	0.5	Control	0.6212	n/a	No	2.779	n/a	n/a	NoResponse	0	n/a	n/a	5	65	Blank	Neutral	True
619.995	0.3	Control	0.6212	0.004	No	2.779	-0.004	2.0	NoResponse	0	0.228	n/a	5	65	ButtonPress	Neutral	True
620.469	1.45	Control	0.6212	n/a	No	2.779	n/a	5.0	NoResponse	0	0.039	619.508	5	65	Feedback	Neutral	True
621.923	2.779	Control	0.6212	n/a	No	2.779	n/a	n/a	NoResponse	0	0.0	n/a	5	65	ISIslide	Neutral	True
624.715	0.25	Win2	0.6269	0.0	Yes	2.785	0.015	n/a	GoodResponse	1	n/a	n/a	6	66	Cue	Win	True
624.966	3.9	Win2	0.6269	0.0	Yes	2.785	0.001	n/a	GoodResponse	1	n/a	n/a	6	66	Fixation	Win	True
628.861	0.21	Win2	0.6269	0.004	Yes	2.785	-0.004	2.0	GoodResponse	1	0.192	628.053	6	66	Target	Win	True
629.053	0.3	Win2	0.6269	0.004	Yes	2.785	-0.004	2.0	GoodResponse	1	0.192	n/a	6	66	ButtonPress	Win	True
629.078	0.49	Win2	0.6269	n/a	Yes	2.785	n/a	n/a	GoodResponse	1	n/a	n/a	6	66	Blank	Win	True
629.563	1.45	Win2	0.6269	n/a	Yes	2.785	n/a	5.0	GoodResponse	1	0.017	628.58	6	66	Feedback	Win	True
631.017	2.785	Win2	0.6269	n/a	Yes	2.785	n/a	n/a	GoodResponse	1	0.0	n/a	6	66	ISIslide	Win	True
633.825	0.25	Control	0.6324000000000001	0.001	Yes	2.725	0.025	n/a	GoodResponse	0	n/a	n/a	6	67	Cue	Neutral	True
634.076	3.95	Control	0.6324000000000001	0.0	Yes	2.725	0.001	n/a	GoodResponse	0	n/a	n/a	6	67	Fixation	Neutral	True
638.021	0.22	Control	0.6324000000000001	0.004	Yes	2.725	-0.004	2.0	GoodResponse	0	0.173	637.194	6	67	Target	Neutral	True
638.194	0.3	Control	0.6324000000000001	0.004	Yes	2.725	-0.004	2.0	GoodResponse	0	0.173	n/a	6	67	ButtonPress	Neutral	True
638.255	0.48	Control	0.6324000000000001	n/a	Yes	2.725	n/a	n/a	GoodResponse	0	n/a	n/a	6	67	Blank	Neutral	True
638.723	1.45	Control	0.6324000000000001	n/a	Yes	2.725	n/a	5.0	GoodResponse	0	0.028	637.751	6	67	Feedback	Neutral	True
640.178	2.725	Control	0.6324000000000001	n/a	Yes	2.725	n/a	n/a	GoodResponse	0	0.0	n/a	6	67	ISIslide	Neutral	True
642.919	0.25	Win2	0.6232	0.0	No	3.081	0.019	n/a	LatePress	0	n/a	n/a	6	68	Cue	MissedWin	True
643.17	4.0	Win2	0.6232	0.0	No	3.081	0.001	n/a	LatePress	0	n/a	n/a	6	68	Fixation	MissedWin	True
647.165	0.23	Win2	0.6232	0.004	No	3.081	-0.004	2.0	LatePress	0	0.232	646.397	6	68	Target	MissedWin	True
647.397	0.3	Win2	0.6232	0.004	No	3.081	-0.004	2.0	LatePress	0	0.232	n/a	6	68	ButtonPress	MissedWin	True
647.399	0.47	Win2	0.6232	n/a	No	3.081	n/a	n/a	LatePress	0	n/a	n/a	6	68	Blank	MissedWin	True
647.867	1.45	Win2	0.6232	n/a	No	3.081	n/a	5.0	LatePress	0	0.006	646.873	6	68	Feedback	MissedWin	True
649.322	3.081	Win2	0.6232	n/a	No	3.081	n/a	n/a	LatePress	0	0.0	n/a	6	68	ISIslide	MissedWin	True
652.431	0.25	Win2	0.6286	0.0	Yes	3.219	0.031	n/a	GoodResponse	1	n/a	n/a	7	69	Cue	Win	True
652.682	3.95	Win2	0.6286	0.0	Yes	3.219	0.001	n/a	GoodResponse	1	n/a	n/a	7	69	Fixation	Win	True
656.627	0.24	Win2	0.6286	0.004	Yes	3.219	-0.004	2.0	GoodResponse	1	0.201	655.828	7	69	Target	Win	True
656.828	0.3	Win2	0.6286	0.004	Yes	3.219	-0.004	2.0	GoodResponse	1	0.201	n/a	7	69	ButtonPress	Win	True
656.878	0.46	Win2	0.6286	n/a	Yes	3.219	n/a	n/a	GoodResponse	1	n/a	n/a	7	69	Blank	Win	True
657.329	1.45	Win2	0.6286	n/a	Yes	3.219	n/a	5.0	GoodResponse	1	0.008	656.337	7	69	Feedback	Win	True
658.783	3.219	Win2	0.6286	n/a	Yes	3.219	n/a	n/a	GoodResponse	1	0.0	n/a	7	69	ISIslide	Win	True
662.026	0.25	Lose2	0.6338	0.001	Yes	3.024	0.026	n/a	GoodResponse	0	n/a	n/a	7	70	Cue	AvoidedLoss	True
662.277	4.05	Lose2	0.6338	0.0	Yes	3.024	0.001	n/a	GoodResponse	0	n/a	n/a	7	70	Fixation	AvoidedLoss	True
666.323	0.25	Lose2	0.6338	0.003	Yes	3.024	-0.003	2.0	GoodResponse	0	0.207	665.53	7	70	Target	AvoidedLoss	True
666.53	0.3	Lose2	0.6338	0.003	Yes	3.024	-0.003	2.0	GoodResponse	0	0.207	n/a	7	70	ButtonPress	AvoidedLoss	True
666.573	0.45	Lose2	0.6338	n/a	Yes	3.024	n/a	n/a	GoodResponse	0	n/a	n/a	7	70	Blank	AvoidedLoss	True
667.025	1.45	Lose2	0.6338	n/a	Yes	3.024	n/a	5.0	GoodResponse	0	0.019	666.044	7	70	Feedback	AvoidedLoss	True
668.479	3.024	Lose2	0.6338	n/a	Yes	3.024	n/a	n/a	GoodResponse	0	0.0	n/a	7	70	ISIslide	AvoidedLoss	True
671.522	0.25	Win2	0.6389	0.0	Yes	2.728	0.022	n/a	GoodResponse	1	n/a	n/a	8	71	Cue	Win	True
671.772	4.05	Win2	0.6389	0.0	Yes	2.728	0.0	n/a	GoodResponse	1	n/a	n/a	8	71	Fixation	Win	True
675.818	0.26	Win2	0.6389	0.004	Yes	2.728	-0.004	2.0	GoodResponse	1	0.187	675.005	8	71	Target	Win	True
676.005	0.3	Win2	0.6389	0.004	Yes	2.728	-0.004	2.0	GoodResponse	1	0.187	n/a	8	71	ButtonPress	Win	True
676.085	0.44	Win2	0.6389	n/a	Yes	2.728	n/a	n/a	GoodResponse	1	n/a	n/a	8	71	Blank	Win	True
676.52	1.45	Win2	0.6389	n/a	Yes	2.728	n/a	5.0	GoodResponse	1	0.036	675.556	8	71	Feedback	Win	True
677.974	2.728	Win2	0.6389	n/a	Yes	2.728	n/a	n/a	GoodResponse	1	0.0	n/a	8	71	ISIslide	Win	True
680.716	0.25	Win2	0.6437999999999999	0.0	Yes	2.784	0.016	n/a	GoodResponse	1	n/a	n/a	9	72	Cue	Win	True
680.966	4.1	Win2	0.6437999999999999	0.001	Yes	2.784	0.0	n/a	GoodResponse	1	n/a	n/a	9	72	Fixation	Win	True
685.062	0.27	Win2	0.6437999999999999	0.004	Yes	2.784	-0.004	2.0	GoodResponse	1	0.206	684.268	9	72	Target	Win	True
685.268	0.3	Win2	0.6437999999999999	0.004	Yes	2.784	-0.004	2.0	GoodResponse	1	0.206	n/a	9	72	ButtonPress	Win	True
685.346	0.43	Win2	0.6437999999999999	n/a	Yes	2.784	n/a	n/a	GoodResponse	1	n/a	n/a	9	72	Blank	Win	True
685.764	1.45	Win2	0.6437999999999999	n/a	Yes	2.784	n/a	5.0	GoodResponse	1	0.011	684.775	9	72	Feedback	Win	True
687.218	2.784	Win2	0.6437999999999999	n/a	Yes	2.784	n/a	n/a	GoodResponse	1	0.0	n/a	9	72	ISIslide	Win	True
690.027	0.25	Win2	0.6486	0.0	Yes	2.673	0.027	n/a	GoodResponse	1	n/a	n/a	10	73	Cue	Win	True
690.278	4.0	Win2	0.6486	0.0	Yes	2.673	0.001	n/a	GoodResponse	1	n/a	n/a	10	73	Fixation	Win	True
694.273	0.28	Win2	0.6486	0.004	Yes	2.673	-0.004	2.0	GoodResponse	1	0.191	693.464	10	73	Target	Win	True
694.464	0.3	Win2	0.6486	0.004	Yes	2.673	-0.004	2.0	GoodResponse	1	0.191	n/a	10	73	ButtonPress	Win	True
694.557	0.42	Win2	0.6486	n/a	Yes	2.673	n/a	n/a	GoodResponse	1	n/a	n/a	10	73	Blank	Win	True
694.975	1.45	Win2	0.6486	n/a	Yes	2.673	n/a	5.0	GoodResponse	1	0.02	693.995	10	73	Feedback	Win	True
696.429	2.673	Win2	0.6486	n/a	Yes	2.673	n/a	n/a	GoodResponse	1	0.0	n/a	10	73	ISIslide	Win	True
699.121	0.25	Lose2	0.6533	0.0	Yes	2.629	0.021	n/a	GoodResponse	0	n/a	n/a	10	74	Cue	AvoidedLoss	True
699.371	4.05	Lose2	0.6533	0.001	Yes	2.629	0.0	n/a	GoodResponse	0	n/a	n/a	10	74	Fixation	AvoidedLoss	True
703.417	0.29	Lose2	0.6533	0.004	Yes	2.629	-0.004	2.0	GoodResponse	0	0.17	702.587	10	74	Target	AvoidedLoss	True
703.587	0.3	Lose2	0.6533	0.004	Yes	2.629	-0.004	2.0	GoodResponse	0	0.17	n/a	10	74	ButtonPress	AvoidedLoss	True
703.718	0.41	Lose2	0.6533	n/a	Yes	2.629	n/a	n/a	GoodResponse	0	n/a	n/a	10	74	Blank	AvoidedLoss	True
704.119	1.45	Lose2	0.6533	n/a	Yes	2.629	n/a	5.0	GoodResponse	0	0.047	703.166	10	74	Feedback	AvoidedLoss	True
705.573	2.629	Lose2	0.6533	n/a	Yes	2.629	n/a	n/a	GoodResponse	0	0.0	n/a	10	74	ISIslide	AvoidedLoss	True
708.231	0.25	Lose2	0.6579	0.0	Yes	2.919	0.031	n/a	GoodResponse	0	n/a	n/a	10	75	Cue	AvoidedLoss	True
708.482	3.95	Lose2	0.6579	0.0	Yes	2.919	0.001	n/a	GoodResponse	0	n/a	n/a	10	75	Fixation	AvoidedLoss	True
712.427	0.3	Lose2	0.6579	0.004	Yes	2.919	-0.004	2.0	GoodResponse	0	0.181	711.608	10	75	Target	AvoidedLoss	True
712.608	0.3	Lose2	0.6579	0.004	Yes	2.919	-0.004	2.0	GoodResponse	0	0.181	n/a	10	75	ButtonPress	AvoidedLoss	True
712.728	0.4	Lose2	0.6579	n/a	Yes	2.919	n/a	n/a	GoodResponse	0	n/a	n/a	10	75	Blank	AvoidedLoss	True
713.129	1.45	Lose2	0.6579	n/a	Yes	2.919	n/a	5.0	GoodResponse	0	0.011	712.14	10	75	Feedback	AvoidedLoss	True
714.584	2.919	Lose2	0.6579	n/a	Yes	2.919	n/a	n/a	GoodResponse	0	0.0	n/a	10	75	ISIslide	AvoidedLoss	True
717.526	0.25	Control	0.6623	0.0	Yes	3.224	0.026	n/a	GoodResponse	0	n/a	n/a	10	76	Cue	Neutral	True
717.776	4.05	Control	0.6623	0.001	Yes	3.224	0.0	n/a	GoodResponse	0	n/a	n/a	10	76	Fixation	Neutral	True
721.822	0.3	Control	0.6623	0.004	Yes	3.224	-0.004	2.0	GoodResponse	0	0.219	721.041	10	76	Target	Neutral	True
722.041	0.3	Control	0.6623	0.004	Yes	3.224	-0.004	2.0	GoodResponse	0	0.219	n/a	10	76	ButtonPress	Neutral	True
722.123	0.4	Control	0.6623	n/a	Yes	3.224	n/a	n/a	GoodResponse	0	n/a	n/a	10	76	Blank	Neutral	True
722.524	1.45	Control	0.6623	n/a	Yes	3.224	n/a	5.0	GoodResponse	0	0.031	721.555	10	76	Feedback	Neutral	True
723.978	3.224	Control	0.6623	n/a	Yes	3.224	n/a	n/a	GoodResponse	0	0.0	n/a	10	76	ISIslide	Neutral	True
727.221	0.25	Lose2	0.6667000000000001	0.0	Yes	2.579	0.021	n/a	GoodResponse	0	n/a	n/a	10	77	Cue	AvoidedLoss	True
727.472	3.95	Lose2	0.6667000000000001	0.0	Yes	2.579	0.001	n/a	GoodResponse	0	n/a	n/a	10	77	Fixation	AvoidedLoss	True
731.417	0.3	Lose2	0.6667000000000001	0.004	Yes	2.579	-0.004	2.0	GoodResponse	0	0.187	730.604	10	77	Target	AvoidedLoss	True
731.604	0.3	Lose2	0.6667000000000001	0.004	Yes	2.579	-0.004	2.0	GoodResponse	0	0.187	n/a	10	77	ButtonPress	AvoidedLoss	True
731.718	0.4	Lose2	0.6667000000000001	n/a	Yes	2.579	n/a	n/a	GoodResponse	0	n/a	n/a	10	77	Blank	AvoidedLoss	True
732.119	1.45	Lose2	0.6667000000000001	n/a	Yes	2.579	n/a	5.0	GoodResponse	0	0.046	731.165	10	77	Feedback	AvoidedLoss	True
733.574	2.579	Lose2	0.6667000000000001	n/a	Yes	2.579	n/a	n/a	GoodResponse	0	0.0	n/a	10	77	ISIslide	AvoidedLoss	True
