onset	duration	cue_type	current_mean_accuracy	duration_error	is_hit	isi_adjusted	onset_delay	response	response_type	reward	rt	rt_time	total_reward	trial_number	trial_phase	trial_type	one_press
11.108	0.25	Control	1.0	0.0	Yes	2.942	0.008	n/a	GoodResponse	0	n/a	n/a	0	0	Cue	Neutral	True
11.359	3.85	Control	1.0	0.0	Yes	2.942	0.001	n/a	GoodResponse	0	n/a	n/a	0	0	Fixation	Neutral	True
15.204	0.4	Control	1.0	0.004	Yes	2.942	-0.004	2.0	GoodResponse	0	0.188	14.392	0	0	Target	Neutral	True
15.392	0.3	Control	1.0	0.004	Yes	2.942	-0.004	2.0	GoodResponse	0	0.188	n/a	0	0	ButtonPress	Neutral	True
15.605	0.3	Control	1.0	n/a	Yes	2.942	n/a	n/a	GoodResponse	0	n/a	n/a	0	0	Blank	Neutral	True
15.906	1.45	Control	1.0	n/a	Yes	2.942	n/a	5.0	GoodResponse	0	0.02	14.926	0	0	Feedback	Neutral	True
17.36	2.942	Control	1.0	n/a	Yes	2.942	n/a	n/a	GoodResponse	0	0.0	n/a	0	0	ISIslide	Neutral	True
20.319	0.25	Lose2	1.0	0.0	Yes	2.781	0.019	n/a	GoodResponse	0	n/a	n/a	0	1	Cue	AvoidedLoss	True
20.57	4.0	Lose2	1.0	0.0	Yes	2.781	0.001	n/a	GoodResponse	0	n/a	n/a	0	1	Fixation	AvoidedLoss	True
24.565	0.39	Lose2	1.0	0.004	Yes	2.781	-0.004	2.0	GoodResponse	0	0.23	23.795	0	1	Target	AvoidedLoss	True
24.795	0.3	Lose2	1.0	0.004	Yes	2.781	-0.004	2.0	GoodResponse	0	0.23	n/a	0	1	ButtonPress	AvoidedLoss	True
24.966	0.31	Lose2	1.0	n/a	Yes	2.781	n/a	n/a	GoodResponse	0	n/a	n/a	0	1	Blank	AvoidedLoss	True
25.267	1.45	Lose2	1.0	n/a	Yes	2.781	n/a	5.0	GoodResponse	0	0.025	24.292	0	1	Feedback	AvoidedLoss	True
26.721	2.781	Lose2	1.0	n/a	Yes	2.781	n/a	n/a	GoodResponse	0	0.0	n/a	0	1	ISIslide	AvoidedLoss	True
29.53	0.25	Control	1.0	0.0	Yes	2.57	0.03	n/a	GoodResponse	0	n/a	n/a	0	2	Cue	Neutral	True
29.781	4.1	Control	1.0	0.0	Yes	2.57	0.001	n/a	GoodResponse	0	n/a	n/a	0	2	Fixation	Neutral	True
33.876	0.38	Control	1.0	0.004	Yes	2.57	-0.004	2.0	GoodResponse	0	0.243	33.119	0	2	Target	Neutral	True
34.119	0.3	Control	1.0	0.004	Yes	2.57	-0.004	2.0	GoodResponse	0	0.243	n/a	0	2	ButtonPress	Neutral	True
34.261	0.32	Control	1.0	n/a	Yes	2.57	n/a	n/a	GoodResponse	0	n/a	n/a	0	2	Blank	Neutral	True
34.578	1.45	Control	1.0	n/a	Yes	2.57	n/a	5.0	GoodResponse	0	0.031	33.609	0	2	Feedback	Neutral	True
36.033	2.57	Control	1.0	n/a	Yes	2.57	n/a	n/a	GoodResponse	0	0.0	n/a	0	2	ISIslide	Neutral	True
38.624	0.25	Win2	1.0	0.0	Yes	2.826	0.024	n/a	GoodResponse	1	n/a	n/a	1	3	Cue	Win	False
38.874	3.95	Win2	1.0	0.001	Yes	2.826	0.0	2.0	GoodResponse	1	0.316	38.19	1	3	Fixation	Win	False
39.19	0.3	Win2	1.0	0.001	Yes	2.826	0.0	2.0	GoodResponse	1	0.316	n/a	1	3	ButtonPress	Win	False
42.82	0.37	Win2	1.0	0.004	Yes	2.826	-0.004	2.0	GoodResponse	1	0.244	42.064	1	3	Target	Win	False
43.064	0.3	Win2	1.0	0.004	Yes	2.826	-0.004	2.0	GoodResponse	1	0.244	n/a	1	3	ButtonPress	Win	False
43.204	0.33	Win2	1.0	n/a	Yes	2.826	n/a	n/a	GoodResponse	1	n/a	n/a	1	3	Blank	Win	False
43.522	1.45	Win2	1.0	n/a	Yes	2.826	n/a	5.0	GoodResponse	1	0.014	42.536	1	3	Feedback	Win	False
44.976	2.826	Win2	1.0	n/a	Yes	2.826	n/a	n/a	GoodResponse	1	0.0	n/a	1	3	ISIslide	Win	False
47.818	0.25	Win2	1.0	0.0	Yes	3.282	0.018	n/a	GoodResponse	1	n/a	n/a	2	4	Cue	Win	True
48.069	4.0	Win2	1.0	0.0	Yes	3.282	0.001	n/a	GoodResponse	1	n/a	n/a	2	4	Fixation	Win	True
52.064	0.36	Win2	1.0	0.004	Yes	3.282	-0.004	2.0	GoodResponse	1	0.221	51.285	2	4	Target	Win	True
52.285	0.3	Win2	1.0	0.004	Yes	3.282	-0.004	2.0	GoodResponse	1	0.221	n/a	2	4	ButtonPress	Win	True
52.432	0.34	Win2	1.0	n/a	Yes	3.282	n/a	n/a	GoodResponse	1	n/a	n/a	2	4	Blank	Win	True
52.766	1.45	Win2	1.0	n/a	Yes	3.282	n/a	5.0	GoodResponse	1	0.038	51.804	2	4	Feedback	Win	True
54.22	3.282	Win2	1.0	n/a	Yes	3.282	n/a	n/a	GoodResponse	1	0.0	n/a	2	4	ISIslide	Win	True
57.53	0.25	Win2	1.0	0.0	Yes	2.77	0.03	n/a	GoodResponse	1	n/a	n/a	3	5	Cue	Win	True
57.781	4.0	Win2	1.0	0.0	Yes	2.77	0.001	n/a	GoodResponse	1	n/a	n/a	3	5	Fixation	Win	True
61.776	0.35	Win2	1.0	0.004	Yes	2.77	-0.004	2.0	GoodResponse	1	0.274	61.05	3	5	Target	Win	True
62.05	0.3	Win2	1.0	0.004	Yes	2.77	-0.004	2.0	GoodResponse	1	0.274	n/a	3	5	ButtonPress	Win	True
62.127	0.35	Win2	1.0	n/a	Yes	2.77	n/a	n/a	GoodResponse	1	n/a	n/a	3	5	Blank	Win	True
62.478	1.45	Win2	1.0	n/a	Yes	2.77	n/a	5.0	GoodResponse	1	0.033	61.511	3	5	Feedback	Win	True
63.933	2.77	Win2	1.0	n/a	Yes	2.77	n/a	n/a	GoodResponse	1	0.0	n/a	3	5	ISIslide	Win	True
66.724	0.25	Lose2	1.0	0.0	Yes	2.726	0.024	n/a	GoodResponse	0	n/a	n/a	3	6	Cue	AvoidedLoss	True
66.975	3.95	Lose2	1.0	0.0	Yes	2.726	0.001	n/a	GoodResponse	0	n/a	n/a	3	6	Fixation	AvoidedLoss	True
70.92	0.34	Lose2	1.0	0.004	Yes	2.726	-0.004	2.0	GoodResponse	0	0.316	70.236	3	6	Target	AvoidedLoss	True
71.236	0.3	Lose2	1.0	0.004	Yes	2.726	-0.004	2.0	GoodResponse	0	0.316	n/a	3	6	ButtonPress	AvoidedLoss	True
71.271	0.36	Lose2	1.0	n/a	Yes	2.726	n/a	n/a	GoodResponse	0	n/a	n/a	3	6	Blank	AvoidedLoss	True
71.622	1.45	Lose2	1.0	n/a	Yes	2.726	n/a	5.0	GoodResponse	0	0.011	70.633	3	6	Feedback	AvoidedLoss	True
73.077	2.726	Lose2	1.0	n/a	Yes	2.726	n/a	n/a	GoodResponse	0	0.0	n/a	3	6	ISIslide	AvoidedLoss	True
75.818	0.25	Lose2	1.0	0.0	Yes	4.032	0.018	n/a	GoodResponse	0	n/a	n/a	3	7	Cue	AvoidedLoss	True
76.069	4.05	Lose2	1.0	0.0	Yes	4.032	0.001	n/a	GoodResponse	0	n/a	n/a	3	7	Fixation	AvoidedLoss	True
80.114	0.33	Lose2	1.0	0.004	Yes	4.032	-0.004	2.0	GoodResponse	0	0.23	79.344	3	7	Target	AvoidedLoss	True
80.344	0.3	Lose2	1.0	0.004	Yes	4.032	-0.004	2.0	GoodResponse	0	0.23	n/a	3	7	ButtonPress	AvoidedLoss	True
80.449	0.37	Lose2	1.0	n/a	Yes	4.032	n/a	n/a	GoodResponse	0	n/a	n/a	3	7	Blank	AvoidedLoss	True
80.816	1.45	Lose2	1.0	n/a	Yes	4.032	n/a	5.0	GoodResponse	0	0.037	79.853	3	7	Feedback	AvoidedLoss	True
82.271	4.032	Lose2	1.0	n/a	Yes	4.032	n/a	n/a	GoodResponse	0	0.0	n/a	3	7	ISIslide	AvoidedLoss	True
86.316	0.25	Lose2	1.0	0.0	Yes	3.034	0.016	n/a	GoodResponse	0	n/a	n/a	3	8	Cue	AvoidedLoss	True
86.567	3.95	Lose2	1.0	0.0	Yes	3.034	0.001	n/a	GoodResponse	0	n/a	n/a	3	8	Fixation	AvoidedLoss	True
90.512	0.32	Lose2	1.0	0.004	Yes	3.034	-0.004	2.0	GoodResponse	0	0.209	89.721	3	8	Target	AvoidedLoss	True
90.721	0.3	Lose2	1.0	0.004	Yes	3.034	-0.004	2.0	GoodResponse	0	0.209	n/a	3	8	ButtonPress	AvoidedLoss	True
90.846	0.38	Lose2	1.0	n/a	Yes	3.034	n/a	n/a	GoodResponse	0	n/a	n/a	3	8	Blank	AvoidedLoss	True
91.214	1.45	Lose2	1.0	n/a	Yes	3.034	n/a	5.0	GoodResponse	0	0.028	90.242	3	8	Feedback	AvoidedLoss	True
92.668	3.034	Lose2	1.0	n/a	Yes	3.034	n/a	n/a	GoodResponse	0	0.0	n/a	3	8	ISIslide	AvoidedLoss	True
95.728	0.25	Lose2	0.9	0.0	No	3.122	0.028	n/a	NoResponse	-1	n/a	n/a	2	9	Cue	Loss	True
95.978	3.95	Lose2	0.9	0.0	No	3.122	0.0	n/a	NoResponse	-1	n/a	n/a	2	9	Fixation	Loss	True
99.94	0.31	Lose2	0.9	0.0	No	3.122	0.012	2.0	NoResponse	-1	0.331	99.271	2	9	Target	Loss	True
100.241	0.39	Lose2	0.9	n/a	No	3.122	n/a	n/a	NoResponse	-1	n/a	n/a	2	9	Blank	Loss	True
100.271	0.3	Lose2	0.9	0.0	No	3.122	0.012	2.0	NoResponse	-1	0.331	n/a	2	9	ButtonPress	Loss	True
100.626	1.45	Lose2	0.9	n/a	No	3.122	n/a	5.0	NoResponse	-1	0.031	99.657	2	9	Feedback	Loss	True
102.08	3.122	Lose2	0.9	n/a	No	3.122	n/a	n/a	NoResponse	-1	0.0	n/a	2	9	ISIslide	Loss	True
105.223	0.25	Control	0.9091	0.0	Yes	3.277	0.023	n/a	GoodResponse	0	n/a	n/a	2	10	Cue	Neutral	True
105.473	4.0	Control	0.9091	0.0	Yes	3.277	0.0	n/a	GoodResponse	0	n/a	n/a	2	10	Fixation	Neutral	True
109.469	0.3	Control	0.9091	0.004	Yes	3.277	-0.004	2.0	GoodResponse	0	0.282	108.751	2	10	Target	Neutral	True
109.751	0.3	Control	0.9091	0.004	Yes	3.277	-0.004	2.0	GoodResponse	0	0.282	n/a	2	10	ButtonPress	Neutral	True
109.77	0.4	Control	0.9091	n/a	Yes	3.277	n/a	n/a	GoodResponse	0	n/a	n/a	2	10	Blank	Neutral	True
110.171	1.45	Control	0.9091	n/a	Yes	3.277	n/a	5.0	GoodResponse	0	0.047	109.218	2	10	Feedback	Neutral	True
111.625	3.277	Control	0.9091	n/a	Yes	3.277	n/a	n/a	GoodResponse	0	0.0	n/a	2	10	ISIslide	Neutral	True
114.918	0.25	Lose2	0.9167000000000001	0.0	Yes	2.732	0.018	n/a	GoodResponse	0	n/a	n/a	2	11	Cue	AvoidedLoss	True
115.169	4.05	Lose2	0.9167000000000001	0.0	Yes	2.732	0.001	n/a	GoodResponse	0	n/a	n/a	2	11	Fixation	AvoidedLoss	True
119.214	0.29	Lose2	0.9167000000000001	0.004	Yes	2.732	-0.004	2.0	GoodResponse	0	0.216	118.43	2	11	Target	AvoidedLoss	True
119.43	0.3	Lose2	0.9167000000000001	0.004	Yes	2.732	-0.004	2.0	GoodResponse	0	0.216	n/a	2	11	ButtonPress	AvoidedLoss	True
119.515	0.41	Lose2	0.9167000000000001	n/a	Yes	2.732	n/a	n/a	GoodResponse	0	n/a	n/a	2	11	Blank	AvoidedLoss	True
119.916	1.45	Lose2	0.9167000000000001	n/a	Yes	2.732	n/a	5.0	GoodResponse	0	0.009	118.925	2	11	Feedback	AvoidedLoss	True
121.371	2.732	Lose2	0.9167000000000001	n/a	Yes	2.732	n/a	n/a	GoodResponse	0	0.0	n/a	2	11	ISIslide	AvoidedLoss	True
124.129	0.25	Control	0.9231	0.0	Yes	2.971	0.029	n/a	GoodResponse	0	n/a	n/a	2	12	Cue	Neutral	True
124.38	3.9	Control	0.9231	0.0	Yes	2.971	0.001	n/a	GoodResponse	0	n/a	n/a	2	12	Fixation	Neutral	True
128.275	0.28	Control	0.9231	0.004	Yes	2.971	-0.004	2.0	GoodResponse	0	0.188	127.463	2	12	Target	Neutral	True
128.463	0.3	Control	0.9231	0.004	Yes	2.971	-0.004	2.0	GoodResponse	0	0.188	n/a	2	12	ButtonPress	Neutral	True
128.559	0.42	Control	0.9231	n/a	Yes	2.971	n/a	n/a	GoodResponse	0	n/a	n/a	2	12	Blank	Neutral	True
128.977	1.45	Control	0.9231	n/a	Yes	2.971	n/a	5.0	GoodResponse	0	0.02	127.997	2	12	Feedback	Neutral	True
130.431	2.971	Control	0.9231	n/a	Yes	2.971	n/a	n/a	GoodResponse	0	0.0	n/a	2	12	ISIslide	Neutral	True
133.423	0.25	Control	0.8571	0.001	No	2.777	0.023	n/a	NoResponse	0	n/a	n/a	2	13	Cue	Neutral	True
133.674	4.0	Control	0.8571	0.0	No	2.777	0.001	n/a	NoResponse	0	n/a	n/a	2	13	Fixation	Neutral	True
137.669	0.27	Control	0.8571	0.004	No	2.777	-0.004	2.0	NoResponse	0	0.295	136.964	2	13	Target	Neutral	True
137.954	0.43	Control	0.8571	n/a	No	2.777	n/a	n/a	NoResponse	0	n/a	n/a	2	13	Blank	Neutral	True
137.964	0.3	Control	0.8571	0.004	No	2.777	-0.004	2.0	NoResponse	0	0.295	n/a	2	13	ButtonPress	Neutral	True
138.372	1.45	Control	0.8571	n/a	No	2.777	n/a	5.0	NoResponse	0	0.04	137.412	2	13	Feedback	Neutral	True
139.826	2.777	Control	0.8571	n/a	No	2.777	n/a	n/a	NoResponse	0	0.0	n/a	2	13	ISIslide	Neutral	True
142.618	0.25	Win2	0.8667	0.0	Yes	2.682	0.018	n/a	GoodResponse	1	n/a	n/a	3	14	Cue	Win	True
142.868	4.1	Win2	0.8667	0.0	Yes	2.682	0.0	n/a	GoodResponse	1	n/a	n/a	3	14	Fixation	Win	True
146.964	0.26	Win2	0.8667	0.004	Yes	2.682	-0.004	2.0	GoodResponse	1	0.238	146.202	3	14	Target	Win	True
147.202	0.3	Win2	0.8667	0.004	Yes	2.682	-0.004	2.0	GoodResponse	1	0.238	n/a	3	14	ButtonPress	Win	True
147.231	0.44	Win2	0.8667	n/a	Yes	2.682	n/a	n/a	GoodResponse	1	n/a	n/a	3	14	Blank	Win	True
147.666	1.45	Win2	0.8667	n/a	Yes	2.682	n/a	5.0	GoodResponse	1	0.015	146.681	3	14	Feedback	Win	True
149.12	2.682	Win2	0.8667	n/a	Yes	2.682	n/a	n/a	GoodResponse	1	0.0	n/a	3	14	ISIslide	Win	True
151.828	0.25	Control	0.8125	0.001	No	2.972	0.028	n/a	NoResponse	0	n/a	n/a	3	15	Cue	Neutral	True
152.079	4.0	Control	0.8125	0.0	No	2.972	0.001	n/a	NoResponse	0	n/a	n/a	3	15	Fixation	Neutral	True
156.074	0.25	Control	0.8125	0.004	No	2.972	-0.004	2.0	NoResponse	0	0.36	155.434	3	15	Target	Neutral	True
156.325	0.45	Control	0.8125	n/a	No	2.972	n/a	n/a	NoResponse	0	n/a	n/a	3	15	Blank	Neutral	True
156.434	0.3	Control	0.8125	0.004	No	2.972	-0.004	2.0	NoResponse	0	0.36	n/a	3	15	ButtonPress	Neutral	True
156.777	1.45	Control	0.8125	n/a	No	2.972	n/a	5.0	NoResponse	0	0.026	155.803	3	15	Feedback	Neutral	True
158.231	2.972	Control	0.8125	n/a	No	2.972	n/a	n/a	NoResponse	0	0.0	n/a	3	15	ISIslide	Neutral	True
161.223	0.25	Win2	0.8234999999999999	0.0	Yes	2.877	0.023	n/a	GoodResponse	1	n/a	n/a	4	16	Cue	Win	False
161.474	4.0	Win2	0.8234999999999999	0.0	Yes	2.877	0.001	2.0	GoodResponse	1	0.473	160.947	4	16	Fixation	Win	False
161.947	0.3	Win2	0.8234999999999999	0.0	Yes	2.877	0.001	2.0	GoodResponse	1	0.473	n/a	4	16	ButtonPress	Win	False
165.469	0.24	Win2	0.8234999999999999	0.004	Yes	2.877	-0.004	2.0	GoodResponse	1	0.208	164.677	4	16	Target	Win	False
165.677	0.3	Win2	0.8234999999999999	0.004	Yes	2.877	-0.004	2.0	GoodResponse	1	0.208	n/a	4	16	ButtonPress	Win	False
165.72	0.46	Win2	0.8234999999999999	n/a	Yes	2.877	n/a	n/a	GoodResponse	1	n/a	n/a	4	16	Blank	Win	False
166.171	1.45	Win2	0.8234999999999999	n/a	Yes	2.877	n/a	5.0	GoodResponse	1	0.045	165.216	4	16	Feedback	Win	False
167.626	2.877	Win2	0.8234999999999999	n/a	Yes	2.877	n/a	n/a	GoodResponse	1	0.0	n/a	4	16	ISIslide	Win	False
170.518	0.25	Lose2	0.7778	0.0	No	2.732	0.018	n/a	NoResponse	-1	n/a	n/a	3	17	Cue	Loss	True
170.768	3.95	Lose2	0.7778	0.0	No	2.732	0.0	n/a	NoResponse	-1	n/a	n/a	3	17	Fixation	Loss	True
174.73	0.23	Lose2	0.7778	0.0	No	2.732	0.012	2.0	NoResponse	-1	0.368	174.098	3	17	Target	Loss	True
174.948	0.47	Lose2	0.7778	n/a	No	2.732	n/a	n/a	NoResponse	-1	n/a	n/a	3	17	Blank	Loss	True
175.098	0.3	Lose2	0.7778	0.0	No	2.732	0.012	2.0	NoResponse	-1	0.368	n/a	3	17	ButtonPress	Loss	True
175.416	1.45	Lose2	0.7778	n/a	No	2.732	n/a	5.0	NoResponse	-1	0.02	174.436	3	17	Feedback	Loss	True
176.87	2.732	Lose2	0.7778	n/a	No	2.732	n/a	n/a	NoResponse	-1	0.0	n/a	3	17	ISIslide	Loss	True
179.628	0.25	Lose2	0.7368000000000001	0.0	No	2.722	0.028	n/a	LatePress	-1	n/a	n/a	2	18	Cue	Loss	True
179.879	4.05	Lose2	0.7368000000000001	0.0	No	2.722	0.001	n/a	LatePress	-1	n/a	n/a	2	18	Fixation	Loss	True
183.924	0.22	Lose2	0.7368000000000001	0.004	No	2.722	-0.004	2.0	LatePress	-1	0.225	183.149	2	18	Target	Loss	True
184.149	0.3	Lose2	0.7368000000000001	0.004	No	2.722	-0.004	2.0	LatePress	-1	0.225	n/a	2	18	ButtonPress	Loss	True
184.158	0.48	Lose2	0.7368000000000001	n/a	No	2.722	n/a	n/a	LatePress	-1	n/a	n/a	2	18	Blank	Loss	True
184.626	1.45	Lose2	0.7368000000000001	n/a	No	2.722	n/a	5.0	LatePress	-1	0.03	183.656	2	18	Feedback	Loss	True
186.081	2.722	Lose2	0.7368000000000001	n/a	No	2.722	n/a	n/a	LatePress	-1	0.0	n/a	2	18	ISIslide	Loss	True
188.822	0.25	Control	0.7	0.0	No	2.928	0.022	n/a	NoResponse	0	n/a	n/a	2	19	Cue	Neutral	True
189.073	3.95	Control	0.7	0.0	No	2.928	0.001	n/a	NoResponse	0	n/a	n/a	2	19	Fixation	Neutral	True
193.018	0.21	Control	0.7	0.004	No	2.928	-0.004	2.0	NoResponse	0	0.247	192.265	2	19	Target	Neutral	True
193.235	0.49	Control	0.7	n/a	No	2.928	n/a	n/a	NoResponse	0	n/a	n/a	2	19	Blank	Neutral	True
193.265	0.3	Control	0.7	0.004	No	2.928	-0.004	2.0	NoResponse	0	0.247	n/a	2	19	ButtonPress	Neutral	True
193.72	1.45	Control	0.7	n/a	No	2.928	n/a	5.0	NoResponse	0	0.009	192.729	2	19	Feedback	Neutral	True
195.175	2.928	Control	0.7	n/a	No	2.928	n/a	n/a	NoResponse	0	0.0	n/a	2	19	ISIslide	Neutral	True
198.117	0.25	Control	0.6667000000000001	0.0	No	2.633	0.017	n/a	NoResponse	0	n/a	n/a	2	20	Cue	Neutral	True
198.367	4.05	Control	0.6667000000000001	0.001	No	2.633	0.0	n/a	NoResponse	0	n/a	n/a	2	20	Fixation	Neutral	True
202.413	0.2	Control	0.6667000000000001	0.004	No	2.633	-0.004	2.0	NoResponse	0	0.364	201.777	2	20	Target	Neutral	True
202.613	0.5	Control	0.6667000000000001	n/a	No	2.633	n/a	n/a	NoResponse	0	n/a	n/a	2	20	Blank	Neutral	True
202.777	0.3	Control	0.6667000000000001	0.004	No	2.633	-0.004	2.0	NoResponse	0	0.364	n/a	2	20	ButtonPress	Neutral	True
203.115	1.45	Control	0.6667000000000001	n/a	No	2.633	n/a	5.0	NoResponse	0	0.028	202.143	2	20	Feedback	Neutral	True
204.569	2.633	Control	0.6667000000000001	n/a	No	2.633	n/a	2.0	NoResponse	0	2.366	n/a	2	20	ISIslide	Neutral	True
207.211	0.25	Control	0.6364	0.0	No	2.789	0.011	n/a	NoResponse	0	n/a	n/a	2	21	Cue	Neutral	True
207.461	4.1	Control	0.6364	0.0	No	2.789	0.0	n/a	NoResponse	0	n/a	n/a	2	21	Fixation	Neutral	True
211.557	0.19	Control	0.6364	0.004	No	2.789	-0.004	2.0	NoResponse	0	0.234	210.791	2	21	Target	Neutral	True
211.757	0.51	Control	0.6364	n/a	No	2.789	n/a	n/a	NoResponse	0	n/a	n/a	2	21	Blank	Neutral	True
211.791	0.3	Control	0.6364	0.004	No	2.789	-0.004	2.0	NoResponse	0	0.234	n/a	2	21	ButtonPress	Neutral	True
212.259	1.45	Control	0.6364	n/a	No	2.789	n/a	5.0	NoResponse	0	0.008	211.267	2	21	Feedback	Neutral	True
213.713	2.789	Control	0.6364	n/a	No	2.789	n/a	n/a	NoResponse	0	0.0	n/a	2	21	ISIslide	Neutral	True
216.522	0.25	Control	0.6087	0.0	No	2.778	0.022	n/a	NoResponse	0	n/a	n/a	2	22	Cue	Neutral	True
216.772	4.0	Control	0.6087	0.0	No	2.778	0.0	n/a	NoResponse	0	n/a	n/a	2	22	Fixation	Neutral	True
220.768	0.2	Control	0.6087	0.004	No	2.778	-0.004	2.0	NoResponse	0	0.238	220.006	2	22	Target	Neutral	True
220.968	0.5	Control	0.6087	n/a	No	2.778	n/a	n/a	NoResponse	0	n/a	n/a	2	22	Blank	Neutral	True
221.006	0.3	Control	0.6087	0.004	No	2.778	-0.004	2.0	NoResponse	0	0.238	n/a	2	22	ButtonPress	Neutral	True
221.47	1.45	Control	0.6087	n/a	No	2.778	n/a	5.0	NoResponse	0	0.014	220.484	2	22	Feedback	Neutral	True
222.924	2.778	Control	0.6087	n/a	No	2.778	n/a	n/a	NoResponse	0	0.0	n/a	2	22	ISIslide	Neutral	True
225.716	0.25	Control	0.5832999999999999	0.0	No	2.784	0.016	n/a	NoResponse	0	n/a	n/a	2	23	Cue	Neutral	True
225.967	3.9	Control	0.5832999999999999	0.0	No	2.784	0.001	n/a	NoResponse	0	n/a	n/a	2	23	Fixation	Neutral	True
229.862	0.21	Control	0.5832999999999999	0.004	No	2.784	-0.004	2.0	NoResponse	0	0.376	229.238	2	23	Target	Neutral	True
230.079	0.49	Control	0.5832999999999999	n/a	No	2.784	n/a	n/a	NoResponse	0	n/a	n/a	2	23	Blank	Neutral	True
230.238	0.3	Control	0.5832999999999999	0.004	No	2.784	-0.004	2.0	NoResponse	0	0.376	n/a	2	23	ButtonPress	Neutral	True
230.564	1.45	Control	0.5832999999999999	n/a	No	2.784	n/a	5.0	NoResponse	0	0.042	229.606	2	23	Feedback	Neutral	True
232.018	2.784	Control	0.5832999999999999	n/a	No	2.784	n/a	n/a	NoResponse	0	0.0	n/a	2	23	ISIslide	Neutral	True
234.826	0.25	Win2	0.6	0.0	Yes	3.124	0.026	n/a	GoodResponse	1	n/a	n/a	3	24	Cue	Win	True
235.077	3.95	Win2	0.6	0.0	Yes	3.124	0.001	n/a	GoodResponse	1	n/a	n/a	3	24	Fixation	Win	True
239.022	0.22	Win2	0.6	0.004	Yes	3.124	-0.004	2.0	GoodResponse	1	0.2	238.222	3	24	Target	Win	True
239.222	0.3	Win2	0.6	0.004	Yes	3.124	-0.004	2.0	GoodResponse	1	0.2	n/a	3	24	ButtonPress	Win	True
239.256	0.48	Win2	0.6	n/a	Yes	3.124	n/a	n/a	GoodResponse	1	n/a	n/a	3	24	Blank	Win	True
239.724	1.45	Win2	0.6	n/a	Yes	3.124	n/a	5.0	GoodResponse	1	0.008	238.732	3	24	Feedback	Win	True
241.179	3.124	Win2	0.6	n/a	Yes	3.124	n/a	n/a	GoodResponse	1	0.0	n/a	3	24	ISIslide	Win	True
244.321	0.25	Win2	0.6154	0.0	Yes	3.079	0.021	n/a	GoodResponse	1	n/a	n/a	4	25	Cue	Win	True
244.572	4.0	Win2	0.6154	0.0	Yes	3.079	0.001	n/a	GoodResponse	1	n/a	n/a	4	25	Fixation	Win	True
248.567	0.23	Win2	0.6154	0.004	Yes	3.079	-0.004	2.0	GoodResponse	1	0.222	247.789	4	25	Target	Win	True
248.789	0.3	Win2	0.6154	0.004	Yes	3.079	-0.004	2.0	GoodResponse	1	0.222	n/a	4	25	ButtonPress	Win	True
248.801	0.47	Win2	0.6154	n/a	Yes	3.079	n/a	n/a	GoodResponse	1	n/a	n/a	4	25	Blank	Win	True
249.269	1.45	Win2	0.6154	n/a	Yes	3.079	n/a	5.0	GoodResponse	1	0.019	248.288	4	25	Feedback	Win	True
250.724	3.079	Win2	0.6154	n/a	Yes	3.079	n/a	n/a	GoodResponse	1	0.0	n/a	4	25	ISIslide	Win	True
253.816	0.25	Win2	0.6296	0.0	Yes	2.934	0.016	n/a	GoodResponse	1	n/a	n/a	5	26	Cue	Win	True
254.067	3.95	Win2	0.6296	0.0	Yes	2.934	0.001	n/a	GoodResponse	1	n/a	n/a	5	26	Fixation	Win	True
258.012	0.24	Win2	0.6296	0.004	Yes	2.934	-0.004	2.0	GoodResponse	1	0.221	257.233	5	26	Target	Win	True
258.233	0.3	Win2	0.6296	0.004	Yes	2.934	-0.004	2.0	GoodResponse	1	0.221	n/a	5	26	ButtonPress	Win	True
258.263	0.46	Win2	0.6296	n/a	Yes	2.934	n/a	n/a	GoodResponse	1	n/a	n/a	5	26	Blank	Win	True
258.714	1.45	Win2	0.6296	n/a	Yes	2.934	n/a	5.0	GoodResponse	1	0.038	257.752	5	26	Feedback	Win	True
260.169	2.934	Win2	0.6296	n/a	Yes	2.934	n/a	n/a	GoodResponse	1	0.0	n/a	5	26	ISIslide	Win	True
263.128	0.25	Lose2	0.6429	0.0	Yes	2.822	0.028	n/a	GoodResponse	0	n/a	n/a	5	27	Cue	AvoidedLoss	False
263.378	4.05	Lose2	0.6429	0.0	Yes	2.822	0.0	2.0	GoodResponse	0	3.577	265.955	5	27	Fixation	AvoidedLoss	False
266.955	0.3	Lose2	0.6429	0.0	Yes	2.822	0.0	2.0	GoodResponse	0	3.577	n/a	5	27	ButtonPress	AvoidedLoss	False
267.424	0.25	Lose2	0.6429	0.004	Yes	2.822	-0.004	2.0	GoodResponse	0	0.192	266.616	5	27	Target	AvoidedLoss	False
267.616	0.3	Lose2	0.6429	0.004	Yes	2.822	-0.004	2.0	GoodResponse	0	0.192	n/a	5	27	ButtonPress	AvoidedLoss	False
267.674	0.45	Lose2	0.6429	n/a	Yes	2.822	n/a	n/a	GoodResponse	0	n/a	n/a	5	27	Blank	AvoidedLoss	False
268.126	1.45	Lose2	0.6429	n/a	Yes	2.822	n/a	5.0	GoodResponse	0	0.041	267.167	5	27	Feedback	AvoidedLoss	False
269.58	2.822	Lose2	0.6429	n/a	Yes	2.822	n/a	n/a	GoodResponse	0	0.0	n/a	5	27	ISIslide	AvoidedLoss	False
272.422	0.25	Control	0.6552	0.0	Yes	2.828	0.022	n/a	GoodResponse	0	n/a	n/a	5	28	Cue	Neutral	True
272.673	4.05	Control	0.6552	0.0	Yes	2.828	0.001	n/a	GoodResponse	0	n/a	n/a	5	28	Fixation	Neutral	True
276.718	0.26	Control	0.6552	0.004	Yes	2.828	-0.004	2.0	GoodResponse	0	0.258	275.976	5	28	Target	Neutral	True
276.976	0.3	Control	0.6552	0.004	Yes	2.828	-0.004	2.0	GoodResponse	0	0.258	n/a	5	28	ButtonPress	Neutral	True
276.986	0.44	Control	0.6552	n/a	Yes	2.828	n/a	n/a	GoodResponse	0	n/a	n/a	5	28	Blank	Neutral	True
277.42	1.45	Control	0.6552	n/a	Yes	2.828	n/a	5.0	GoodResponse	0	0.014	276.434	5	28	Feedback	Neutral	True
278.875	2.828	Control	0.6552	n/a	Yes	2.828	n/a	n/a	GoodResponse	0	0.0	n/a	5	28	ISIslide	Neutral	True
281.716	0.25	Lose2	0.6333	0.0	No	2.834	0.016	n/a	NoResponse	-1	n/a	n/a	4	29	Cue	Loss	True
281.967	3.95	Lose2	0.6333	0.0	No	2.834	0.001	n/a	NoResponse	-1	n/a	n/a	4	29	Fixation	Loss	True
285.912	0.26	Lose2	0.6333	0.004	No	2.834	-0.004	2.0	NoResponse	-1	0.441	285.353	4	29	Target	Loss	True
286.18	0.44	Lose2	0.6333	n/a	No	2.834	n/a	n/a	NoResponse	-1	n/a	n/a	4	29	Blank	Loss	True
286.353	0.3	Lose2	0.6333	0.004	No	2.834	-0.004	2.0	NoResponse	-1	0.441	n/a	4	29	ButtonPress	Loss	True
286.614	1.45	Lose2	0.6333	n/a	No	2.834	n/a	5.0	NoResponse	-1	0.04	285.654	4	29	Feedback	Loss	True
288.069	2.834	Lose2	0.6333	n/a	No	2.834	n/a	n/a	NoResponse	-1	0.0	n/a	4	29	ISIslide	Loss	True
290.927	0.25	Win2	0.6452	0.0	Yes	2.773	0.027	n/a	GoodResponse	1	n/a	n/a	5	30	Cue	Win	True
291.178	3.9	Win2	0.6452	0.0	Yes	2.773	0.001	n/a	GoodResponse	1	n/a	n/a	5	30	Fixation	Win	True
295.073	0.27	Win2	0.6452	0.004	Yes	2.773	-0.004	2.0	GoodResponse	1	0.262	294.335	5	30	Target	Win	True
295.335	0.3	Win2	0.6452	0.004	Yes	2.773	-0.004	2.0	GoodResponse	1	0.262	n/a	5	30	ButtonPress	Win	True
295.357	0.43	Win2	0.6452	n/a	Yes	2.773	n/a	n/a	GoodResponse	1	n/a	n/a	5	30	Blank	Win	True
295.775	1.45	Win2	0.6452	n/a	Yes	2.773	n/a	5.0	GoodResponse	1	0.001	294.776	5	30	Feedback	Win	True
297.229	2.773	Win2	0.6452	n/a	Yes	2.773	n/a	n/a	GoodResponse	1	0.0	n/a	5	30	ISIslide	Win	True
300.021	0.25	Lose2	0.6562	0.0	Yes	2.829	0.021	n/a	GoodResponse	0	n/a	n/a	5	31	Cue	AvoidedLoss	True
300.272	4.05	Lose2	0.6562	0.0	Yes	2.829	0.001	n/a	GoodResponse	0	n/a	n/a	5	31	Fixation	AvoidedLoss	True
304.317	0.28	Lose2	0.6562	0.004	Yes	2.829	-0.004	2.0	GoodResponse	0	0.204	303.521	5	31	Target	AvoidedLoss	True
304.521	0.3	Lose2	0.6562	0.004	Yes	2.829	-0.004	2.0	GoodResponse	0	0.204	n/a	5	31	ButtonPress	AvoidedLoss	True
304.601	0.42	Lose2	0.6562	n/a	Yes	2.829	n/a	n/a	GoodResponse	0	n/a	n/a	5	31	Blank	AvoidedLoss	True
305.019	1.45	Lose2	0.6562	n/a	Yes	2.829	n/a	5.0	GoodResponse	0	0.025	304.044	5	31	Feedback	AvoidedLoss	True
306.474	2.829	Lose2	0.6562	n/a	Yes	2.829	n/a	n/a	GoodResponse	0	0.0	n/a	5	31	ISIslide	AvoidedLoss	True
309.315	0.25	Lose2	0.6667000000000001	0.001	Yes	2.635	0.015	n/a	GoodResponse	0	n/a	n/a	5	32	Cue	AvoidedLoss	True
309.566	4.15	Lose2	0.6667000000000001	0.0	Yes	2.635	0.001	n/a	GoodResponse	0	n/a	n/a	5	32	Fixation	AvoidedLoss	True
313.712	0.28	Lose2	0.6667000000000001	0.003	Yes	2.635	-0.003	2.0	GoodResponse	0	0.273	312.985	5	32	Target	AvoidedLoss	True
313.985	0.3	Lose2	0.6667000000000001	0.003	Yes	2.635	-0.003	2.0	GoodResponse	0	0.273	n/a	5	32	ButtonPress	AvoidedLoss	True
313.996	0.42	Lose2	0.6667000000000001	n/a	Yes	2.635	n/a	n/a	GoodResponse	0	n/a	n/a	5	32	Blank	AvoidedLoss	True
314.414	1.45	Lose2	0.6667000000000001	n/a	Yes	2.635	n/a	5.0	GoodResponse	0	0.044	313.458	5	32	Feedback	AvoidedLoss	True
315.868	2.635	Lose2	0.6667000000000001	n/a	Yes	2.635	n/a	n/a	GoodResponse	0	0.0	n/a	5	32	ISIslide	AvoidedLoss	True
318.526	0.25	Win2	0.6765000000000001	0.0	Yes	2.674	0.026	n/a	GoodResponse	1	n/a	n/a	6	33	Cue	Win	True
318.777	4.0	Win2	0.6765000000000001	0.0	Yes	2.674	0.001	n/a	GoodResponse	1	n/a	n/a	6	33	Fixation	Win	True
322.772	0.27	Win2	0.6765000000000001	0.004	Yes	2.674	-0.004	2.0	GoodResponse	1	0.223	321.995	6	33	Target	Win	True
322.995	0.3	Win2	0.6765000000000001	0.004	Yes	2.674	-0.004	2.0	GoodResponse	1	0.223	n/a	6	33	ButtonPress	Win	True
323.056	0.43	Win2	0.6765000000000001	n/a	Yes	2.674	n/a	n/a	GoodResponse	1	n/a	n/a	6	33	Blank	Win	True
323.474	1.45	Win2	0.6765000000000001	n/a	Yes	2.674	n/a	5.0	GoodResponse	1	0.008	322.482	6	33	Feedback	Win	True
324.929	2.674	Win2	0.6765000000000001	n/a	Yes	2.674	n/a	n/a	GoodResponse	1	0.0	n/a	6	33	ISIslide	Win	True
327.62	0.25	Lose2	0.6857	0.0	Yes	2.63	0.02	n/a	GoodResponse	0	n/a	n/a	6	34	Cue	AvoidedLoss	True
327.871	4.05	Lose2	0.6857	0.0	Yes	2.63	0.001	n/a	GoodResponse	0	n/a	n/a	6	34	Fixation	AvoidedLoss	True
331.916	0.26	Lose2	0.6857	0.004	Yes	2.63	-0.004	2.0	GoodResponse	0	0.228	331.144	6	34	Target	AvoidedLoss	True
332.144	0.3	Lose2	0.6857	0.004	Yes	2.63	-0.004	2.0	GoodResponse	0	0.228	n/a	6	34	ButtonPress	AvoidedLoss	True
332.184	0.44	Lose2	0.6857	n/a	Yes	2.63	n/a	n/a	GoodResponse	0	n/a	n/a	6	34	Blank	AvoidedLoss	True
332.618	1.45	Lose2	0.6857	n/a	Yes	2.63	n/a	5.0	GoodResponse	0	0.035	331.653	6	34	Feedback	AvoidedLoss	True
334.073	2.63	Lose2	0.6857	n/a	Yes	2.63	n/a	n/a	GoodResponse	0	0.0	n/a	6	34	ISIslide	AvoidedLoss	True
336.731	0.25	Lose2	0.6667000000000001	0.0	No	2.669	0.031	n/a	NoResponse	-1	n/a	n/a	5	35	Cue	Loss	True
336.981	4.0	Lose2	0.6667000000000001	0.0	No	2.669	0.0	n/a	NoResponse	-1	n/a	n/a	5	35	Fixation	Loss	True
340.977	0.25	Lose2	0.6667000000000001	0.004	No	2.669	-0.004	2.0	NoResponse	-1	0.291	340.268	5	35	Target	Loss	True
341.227	0.45	Lose2	0.6667000000000001	n/a	No	2.669	n/a	n/a	NoResponse	-1	n/a	n/a	5	35	Blank	Loss	True
341.268	0.3	Lose2	0.6667000000000001	0.004	No	2.669	-0.004	2.0	NoResponse	-1	0.291	n/a	5	35	ButtonPress	Loss	True
341.679	1.45	Lose2	0.6667000000000001	n/a	No	2.669	n/a	5.0	NoResponse	-1	0.047	340.726	5	35	Feedback	Loss	True
343.133	2.669	Lose2	0.6667000000000001	n/a	No	2.669	n/a	n/a	NoResponse	-1	0.0	n/a	5	35	ISIslide	Loss	True
345.824	0.25	Control	0.6757	0.001	Yes	2.676	0.024	n/a	GoodResponse	0	n/a	n/a	5	36	Cue	Neutral	True
346.075	4.0	Control	0.6757	0.0	Yes	2.676	0.001	n/a	GoodResponse	0	n/a	n/a	5	36	Fixation	Neutral	True
350.071	0.24	Control	0.6757	0.003	Yes	2.676	-0.003	2.0	GoodResponse	0	0.223	349.294	5	36	Target	Neutral	True
350.294	0.3	Control	0.6757	0.003	Yes	2.676	-0.003	2.0	GoodResponse	0	0.223	n/a	5	36	ButtonPress	Neutral	True
350.321	0.46	Control	0.6757	n/a	Yes	2.676	n/a	n/a	GoodResponse	0	n/a	n/a	5	36	Blank	Neutral	True
350.773	1.45	Control	0.6757	n/a	Yes	2.676	n/a	5.0	GoodResponse	0	0.026	349.799	5	36	Feedback	Neutral	True
352.227	2.676	Control	0.6757	n/a	Yes	2.676	n/a	n/a	GoodResponse	0	0.0	n/a	5	36	ISIslide	Neutral	True
354.918	0.25	Win2	0.6579	0.0	No	2.882	0.018	n/a	NoResponse	0	n/a	n/a	5	37	Cue	MissedWin	True
355.169	4.0	Win2	0.6579	0.0	No	2.882	0.001	n/a	NoResponse	0	n/a	n/a	5	37	Fixation	MissedWin	True
359.164	0.23	Win2	0.6579	0.004	No	2.882	-0.004	2.0	NoResponse	0	0.243	358.407	5	37	Target	MissedWin	True
359.398	0.47	Win2	0.6579	n/a	No	2.882	n/a	n/a	NoResponse	0	n/a	n/a	5	37	Blank	MissedWin	True
359.407	0.3	Win2	0.6579	0.004	No	2.882	-0.004	2.0	NoResponse	0	0.243	n/a	5	37	ButtonPress	MissedWin	True
359.866	1.45	Win2	0.6579	n/a	No	2.882	n/a	5.0	NoResponse	0	0.008	358.874	5	37	Feedback	MissedWin	True
361.321	2.882	Win2	0.6579	n/a	No	2.882	n/a	n/a	NoResponse	0	0.0	n/a	5	37	ISIslide	MissedWin	True
364.229	0.25	Lose2	0.6409999999999999	0.001	No	2.821	0.029	n/a	NoResponse	-1	n/a	n/a	4	38	Cue	Loss	True
364.48	3.95	Lose2	0.6409999999999999	0.0	No	2.821	0.001	n/a	NoResponse	-1	n/a	n/a	4	38	Fixation	Loss	True
368.425	0.23	Lose2	0.6409999999999999	0.004	No	2.821	-0.004	2.0	NoResponse	-1	0.366	367.791	4	38	Target	Loss	True
368.659	0.47	Lose2	0.6409999999999999	n/a	No	2.821	n/a	n/a	NoResponse	-1	n/a	n/a	4	38	Blank	Loss	True
368.791	0.3	Lose2	0.6409999999999999	0.004	No	2.821	-0.004	2.0	NoResponse	-1	0.366	n/a	4	38	ButtonPress	Loss	True
369.127	1.45	Lose2	0.6409999999999999	n/a	No	2.821	n/a	5.0	NoResponse	-1	0.013	368.14	4	38	Feedback	Loss	True
370.582	2.821	Lose2	0.6409999999999999	n/a	No	2.821	n/a	n/a	NoResponse	-1	0.0	n/a	4	38	ISIslide	Loss	True
373.424	0.25	Win2	0.65	0.0	Yes	2.976	0.024	n/a	GoodResponse	1	n/a	n/a	5	39	Cue	Win	True
373.674	4.1	Win2	0.65	0.0	Yes	2.976	0.0	n/a	GoodResponse	1	n/a	n/a	5	39	Fixation	Win	True
377.77	0.24	Win2	0.65	0.004	Yes	2.976	-0.004	2.0	GoodResponse	1	0.239	377.009	5	39	Target	Win	True
378.009	0.3	Win2	0.65	0.004	Yes	2.976	-0.004	2.0	GoodResponse	1	0.239	n/a	5	39	ButtonPress	Win	True
378.021	0.46	Win2	0.65	n/a	Yes	2.976	n/a	n/a	GoodResponse	1	n/a	n/a	5	39	Blank	Win	True
378.472	1.45	Win2	0.65	n/a	Yes	2.976	n/a	5.0	GoodResponse	1	0.034	377.506	5	39	Feedback	Win	True
379.926	2.976	Win2	0.65	n/a	Yes	2.976	n/a	n/a	GoodResponse	1	0.0	n/a	5	39	ISIslide	Win	True
382.919	0.25	Win2	0.6341	0.0	No	2.731	0.019	n/a	NoResponse	0	n/a	n/a	5	40	Cue	MissedWin	True
383.169	3.95	Win2	0.6341	0.0	No	2.731	0.0	n/a	NoResponse	0	n/a	n/a	5	40	Fixation	MissedWin	True
387.114	0.25	Win2	0.6341	0.005	No	2.731	-0.005	2.0	NoResponse	0	0.288	386.402	5	40	Target	MissedWin	True
387.365	0.45	Win2	0.6341	n/a	No	2.731	n/a	n/a	NoResponse	0	n/a	n/a	5	40	Blank	MissedWin	True
387.402	0.3	Win2	0.6341	0.005	No	2.731	-0.005	2.0	NoResponse	0	0.288	n/a	5	40	ButtonPress	MissedWin	True
387.817	1.45	Win2	0.6341	n/a	No	2.731	n/a	5.0	NoResponse	0	0.008	386.825	5	40	Feedback	MissedWin	True
389.271	2.731	Win2	0.6341	n/a	No	2.731	n/a	n/a	NoResponse	0	0.0	n/a	5	40	ISIslide	MissedWin	True
392.029	0.25	Win2	0.6429	0.0	Yes	2.771	0.029	n/a	GoodResponse	1	n/a	n/a	6	41	Cue	Win	True
392.28	3.9	Win2	0.6429	0.0	Yes	2.771	0.001	n/a	GoodResponse	1	n/a	n/a	6	41	Fixation	Win	True
396.175	0.26	Win2	0.6429	0.004	Yes	2.771	-0.004	2.0	GoodResponse	1	0.23	395.405	6	41	Target	Win	True
396.405	0.3	Win2	0.6429	0.004	Yes	2.771	-0.004	2.0	GoodResponse	1	0.23	n/a	6	41	ButtonPress	Win	True
396.442	0.44	Win2	0.6429	n/a	Yes	2.771	n/a	n/a	GoodResponse	1	n/a	n/a	6	41	Blank	Win	True
396.877	1.45	Win2	0.6429	n/a	Yes	2.771	n/a	5.0	GoodResponse	1	0.019	395.896	6	41	Feedback	Win	True
398.331	2.771	Win2	0.6429	n/a	Yes	2.771	n/a	n/a	GoodResponse	1	0.0	n/a	6	41	ISIslide	Win	True
401.123	0.25	Control	0.6279	0.0	No	2.927	0.023	n/a	NoResponse	0	n/a	n/a	6	42	Cue	Neutral	True
401.374	3.85	Control	0.6279	0.0	No	2.927	0.001	n/a	NoResponse	0	n/a	n/a	6	42	Fixation	Neutral	True
405.219	0.27	Control	0.6279	0.004	No	2.927	-0.004	2.0	NoResponse	0	0.397	404.616	6	42	Target	Neutral	True
405.503	0.43	Control	0.6279	n/a	No	2.927	n/a	n/a	NoResponse	0	n/a	n/a	6	42	Blank	Neutral	True
405.616	0.3	Control	0.6279	0.004	No	2.927	-0.004	2.0	NoResponse	0	0.397	n/a	6	42	ButtonPress	Neutral	True
405.921	1.45	Control	0.6279	n/a	No	2.927	n/a	5.0	NoResponse	0	0.048	404.969	6	42	Feedback	Neutral	True
407.375	2.927	Control	0.6279	n/a	No	2.927	n/a	n/a	NoResponse	0	0.0	n/a	6	42	ISIslide	Neutral	True
410.317	0.25	Win2	0.6364	0.0	Yes	3.183	0.017	n/a	GoodResponse	1	n/a	n/a	7	43	Cue	Win	True
410.568	4.0	Win2	0.6364	0.0	Yes	3.183	0.001	n/a	GoodResponse	1	n/a	n/a	7	43	Fixation	Win	True
414.563	0.28	Win2	0.6364	0.004	Yes	3.183	-0.004	2.0	GoodResponse	1	0.223	413.786	7	43	Target	Win	True
414.786	0.3	Win2	0.6364	0.004	Yes	3.183	-0.004	2.0	GoodResponse	1	0.223	n/a	7	43	ButtonPress	Win	True
414.847	0.42	Win2	0.6364	n/a	Yes	3.183	n/a	n/a	GoodResponse	1	n/a	n/a	7	43	Blank	Win	True
415.265	1.45	Win2	0.6364	n/a	Yes	3.183	n/a	5.0	GoodResponse	1	0.021	414.286	7	43	Feedback	Win	True
416.72	3.183	Win2	0.6364	n/a	Yes	3.183	n/a	n/a	GoodResponse	1	0.0	n/a	7	43	ISIslide	Win	True
419.929	0.25	Win2	0.6444	0.0	Yes	2.971	0.029	n/a	GoodResponse	1	n/a	n/a	8	44	Cue	Win	True
420.18	4.0	Win2	0.6444	0.0	Yes	2.971	0.001	n/a	GoodResponse	1	n/a	n/a	8	44	Fixation	Win	True
424.175	0.29	Win2	0.6444	0.004	Yes	2.971	-0.004	2.0	GoodResponse	1	0.179	423.354	8	44	Target	Win	True
424.354	0.3	Win2	0.6444	0.004	Yes	2.971	-0.004	2.0	GoodResponse	1	0.179	n/a	8	44	ButtonPress	Win	True
424.476	0.41	Win2	0.6444	n/a	Yes	2.971	n/a	n/a	GoodResponse	1	n/a	n/a	8	44	Blank	Win	True
424.877	1.45	Win2	0.6444	n/a	Yes	2.971	n/a	5.0	GoodResponse	1	0.018	423.895	8	44	Feedback	Win	True
426.332	2.971	Win2	0.6444	n/a	Yes	2.971	n/a	n/a	GoodResponse	1	0.0	n/a	8	44	ISIslide	Win	True
429.324	0.25	Control	0.6522	0.0	Yes	2.876	0.024	n/a	GoodResponse	0	n/a	n/a	8	45	Cue	Neutral	True
429.575	4.1	Control	0.6522	0.0	Yes	2.876	0.001	n/a	GoodResponse	0	n/a	n/a	8	45	Fixation	Neutral	True
433.67	0.3	Control	0.6522	0.004	Yes	2.876	-0.004	2.0	GoodResponse	0	0.219	432.889	8	45	Target	Neutral	True
433.889	0.3	Control	0.6522	0.004	Yes	2.876	-0.004	2.0	GoodResponse	0	0.219	n/a	8	45	ButtonPress	Neutral	True
433.971	0.4	Control	0.6522	n/a	Yes	2.876	n/a	n/a	GoodResponse	0	n/a	n/a	8	45	Blank	Neutral	True
434.372	1.45	Control	0.6522	n/a	Yes	2.876	n/a	5.0	GoodResponse	0	0.035	433.407	8	45	Feedback	Neutral	True
435.827	2.876	Control	0.6522	n/a	Yes	2.876	n/a	n/a	GoodResponse	0	0.0	n/a	8	45	ISIslide	Neutral	True
438.719	0.25	Lose2	0.6596	0.0	Yes	3.381	0.019	n/a	GoodResponse	0	n/a	n/a	8	46	Cue	AvoidedLoss	True
438.969	4.0	Lose2	0.6596	0.0	Yes	3.381	0.0	n/a	GoodResponse	0	n/a	n/a	8	46	Fixation	AvoidedLoss	True
442.965	0.31	Lose2	0.6596	0.004	Yes	3.381	-0.004	2.0	GoodResponse	0	0.201	442.166	8	46	Target	AvoidedLoss	True
443.166	0.3	Lose2	0.6596	0.004	Yes	3.381	-0.004	2.0	GoodResponse	0	0.201	n/a	8	46	ButtonPress	AvoidedLoss	True
443.282	0.39	Lose2	0.6596	n/a	Yes	3.381	n/a	n/a	GoodResponse	0	n/a	n/a	8	46	Blank	AvoidedLoss	True
443.667	1.45	Lose2	0.6596	n/a	Yes	3.381	n/a	5.0	GoodResponse	0	0.009	442.676	8	46	Feedback	AvoidedLoss	True
445.121	3.381	Lose2	0.6596	n/a	Yes	3.381	n/a	n/a	GoodResponse	0	0.0	n/a	8	46	ISIslide	AvoidedLoss	True
448.531	0.25	Lose2	0.6667000000000001	0.0	Yes	2.669	0.031	n/a	GoodResponse	0	n/a	n/a	8	47	Cue	AvoidedLoss	True
448.782	4.0	Lose2	0.6667000000000001	0.0	Yes	2.669	0.001	n/a	GoodResponse	0	n/a	n/a	8	47	Fixation	AvoidedLoss	True
452.777	0.31	Lose2	0.6667000000000001	0.004	Yes	2.669	-0.004	2.0	GoodResponse	0	0.213	451.99	8	47	Target	AvoidedLoss	True
452.99	0.3	Lose2	0.6667000000000001	0.004	Yes	2.669	-0.004	2.0	GoodResponse	0	0.213	n/a	8	47	ButtonPress	AvoidedLoss	True
453.095	0.39	Lose2	0.6667000000000001	n/a	Yes	2.669	n/a	n/a	GoodResponse	0	n/a	n/a	8	47	Blank	AvoidedLoss	True
453.479	1.45	Lose2	0.6667000000000001	n/a	Yes	2.669	n/a	5.0	GoodResponse	0	0.002	452.481	8	47	Feedback	AvoidedLoss	True
454.934	2.669	Lose2	0.6667000000000001	n/a	Yes	2.669	n/a	n/a	GoodResponse	0	0.0	n/a	8	47	ISIslide	AvoidedLoss	True
457.625	0.25	Lose2	0.6735	0.0	Yes	3.025	0.025	n/a	GoodResponse	0	n/a	n/a	8	48	Cue	AvoidedLoss	True
457.876	3.95	Lose2	0.6735	0.0	Yes	3.025	0.001	n/a	GoodResponse	0	n/a	n/a	8	48	Fixation	AvoidedLoss	True
461.821	0.3	Lose2	0.6735	0.004	Yes	3.025	-0.004	2.0	GoodResponse	0	0.189	461.01	8	48	Target	AvoidedLoss	True
462.01	0.3	Lose2	0.6735	0.004	Yes	3.025	-0.004	2.0	GoodResponse	0	0.189	n/a	8	48	ButtonPress	AvoidedLoss	True
462.122	0.4	Lose2	0.6735	n/a	Yes	3.025	n/a	n/a	GoodResponse	0	n/a	n/a	8	48	Blank	AvoidedLoss	True
462.523	1.45	Lose2	0.6735	n/a	Yes	3.025	n/a	5.0	GoodResponse	0	0.03	461.553	8	48	Feedback	AvoidedLoss	True
463.977	3.025	Lose2	0.6735	n/a	Yes	3.025	n/a	n/a	GoodResponse	0	0.0	n/a	8	48	ISIslide	AvoidedLoss	True
467.02	0.25	Control	0.66	0.0	No	2.88	0.02	n/a	PrematurePress	0	n/a	n/a	8	49	Cue	Neutral	True
467.271	4.0	Control	0.66	0.0	No	2.88	0.001	n/a	PrematurePress	0	n/a	n/a	8	49	Fixation	Neutral	True
471.266	0.29	Control	0.66	0.004	No	2.88	-0.004	2.0	PrematurePress	0	0.058	470.324	8	49	Target	Neutral	True
471.324	0.3	Control	0.66	0.004	No	2.88	-0.004	2.0	PrematurePress	0	0.058	n/a	8	49	ButtonPress	Neutral	True
471.567	0.41	Control	0.66	n/a	No	2.88	n/a	n/a	PrematurePress	0	n/a	n/a	8	49	Blank	Neutral	True
471.968	1.45	Control	0.66	n/a	No	2.88	n/a	5.0	PrematurePress	0	0.0	470.968	8	49	Feedback	Neutral	True
473.422	2.88	Control	0.66	n/a	No	2.88	n/a	n/a	PrematurePress	0	0.0	n/a	8	49	ISIslide	Neutral	True
476.314	0.25	Control	0.6667000000000001	0.0	Yes	2.786	0.014	n/a	GoodResponse	0	n/a	n/a	8	50	Cue	Neutral	True
476.565	4.0	Control	0.6667000000000001	0.0	Yes	2.786	0.001	n/a	GoodResponse	0	n/a	n/a	8	50	Fixation	Neutral	True
480.56	0.29	Control	0.6667000000000001	0.004	Yes	2.786	-0.004	2.0	GoodResponse	0	0.149	479.709	8	50	Target	Neutral	True
480.709	0.3	Control	0.6667000000000001	0.004	Yes	2.786	-0.004	2.0	GoodResponse	0	0.149	n/a	8	50	ButtonPress	Neutral	True
480.861	0.41	Control	0.6667000000000001	n/a	Yes	2.786	n/a	n/a	GoodResponse	0	n/a	n/a	8	50	Blank	Neutral	True
481.262	1.45	Control	0.6667000000000001	n/a	Yes	2.786	n/a	5.0	GoodResponse	0	0.023	480.285	8	50	Feedback	Neutral	True
482.717	2.786	Control	0.6667000000000001	n/a	Yes	2.786	n/a	n/a	GoodResponse	0	0.0	n/a	8	50	ISIslide	Neutral	True
485.525	0.25	Control	0.6731	0.0	Yes	2.725	0.025	n/a	GoodResponse	0	n/a	n/a	8	51	Cue	Neutral	True
485.776	3.95	Control	0.6731	0.0	Yes	2.725	0.001	n/a	GoodResponse	0	n/a	n/a	8	51	Fixation	Neutral	True
489.721	0.28	Control	0.6731	0.004	Yes	2.725	-0.004	2.0	GoodResponse	0	0.21	488.931	8	51	Target	Neutral	True
489.931	0.3	Control	0.6731	0.004	Yes	2.725	-0.004	2.0	GoodResponse	0	0.21	n/a	8	51	ButtonPress	Neutral	True
490.005	0.42	Control	0.6731	n/a	Yes	2.725	n/a	n/a	GoodResponse	0	n/a	n/a	8	51	Blank	Neutral	True
490.423	1.45	Control	0.6731	n/a	Yes	2.725	n/a	5.0	GoodResponse	0	0.033	489.456	8	51	Feedback	Neutral	True
491.877	2.725	Control	0.6731	n/a	Yes	2.725	n/a	n/a	GoodResponse	0	0.0	n/a	8	51	ISIslide	Neutral	True
494.619	0.25	Control	0.6604000000000001	0.0	No	2.631	0.019	n/a	NoResponse	0	n/a	n/a	8	52	Cue	Neutral	True
494.87	4.05	Control	0.6604000000000001	0.0	No	2.631	0.001	n/a	NoResponse	0	n/a	n/a	8	52	Fixation	Neutral	True
498.915	0.27	Control	0.6604000000000001	0.004	No	2.631	-0.004	2.0	NoResponse	0	0.55	498.465	8	52	Target	Neutral	True
499.199	0.43	Control	0.6604000000000001	n/a	No	2.631	n/a	n/a	NoResponse	0	n/a	n/a	8	52	Blank	Neutral	True
499.465	0.3	Control	0.6604000000000001	0.004	No	2.631	-0.004	2.0	NoResponse	0	0.55	n/a	8	52	ButtonPress	Neutral	True
499.617	1.45	Control	0.6604000000000001	n/a	No	2.631	n/a	5.0	NoResponse	0	0.008	498.625	8	52	Feedback	Neutral	True
501.071	2.631	Control	0.6604000000000001	n/a	No	2.631	n/a	n/a	NoResponse	0	0.0	n/a	8	52	ISIslide	Neutral	True
503.729	0.25	Win2	0.6667000000000001	0.001	Yes	2.921	0.029	n/a	GoodResponse	1	n/a	n/a	9	53	Cue	Win	True
503.98	4.05	Win2	0.6667000000000001	0.0	Yes	2.921	0.001	n/a	GoodResponse	1	n/a	n/a	9	53	Fixation	Win	True
508.026	0.27	Win2	0.6667000000000001	0.003	Yes	2.921	-0.003	2.0	GoodResponse	1	0.194	507.22	9	53	Target	Win	True
508.22	0.3	Win2	0.6667000000000001	0.003	Yes	2.921	-0.003	2.0	GoodResponse	1	0.194	n/a	9	53	ButtonPress	Win	True
508.31	0.43	Win2	0.6667000000000001	n/a	Yes	2.921	n/a	n/a	GoodResponse	1	n/a	n/a	9	53	Blank	Win	True
508.728	1.45	Win2	0.6667000000000001	n/a	Yes	2.921	n/a	5.0	GoodResponse	1	0.019	507.747	9	53	Feedback	Win	True
510.182	2.921	Win2	0.6667000000000001	n/a	Yes	2.921	n/a	n/a	GoodResponse	1	0.0	n/a	9	53	ISIslide	Win	True
513.124	0.25	Win2	0.6545000000000001	0.0	No	2.726	0.024	n/a	NoResponse	0	n/a	n/a	9	54	Cue	MissedWin	True
513.375	3.95	Win2	0.6545000000000001	0.0	No	2.726	0.001	n/a	NoResponse	0	n/a	n/a	9	54	Fixation	MissedWin	True
517.32	0.26	Win2	0.6545000000000001	0.004	No	2.726	-0.004	2.0	NoResponse	0	0.332	516.652	9	54	Target	MissedWin	True
517.587	0.44	Win2	0.6545000000000001	n/a	No	2.726	n/a	n/a	NoResponse	0	n/a	n/a	9	54	Blank	MissedWin	True
517.652	0.3	Win2	0.6545000000000001	0.004	No	2.726	-0.004	2.0	NoResponse	0	0.332	n/a	9	54	ButtonPress	MissedWin	True
518.022	1.45	Win2	0.6545000000000001	n/a	No	2.726	n/a	5.0	NoResponse	0	0.043	517.065	9	54	Feedback	MissedWin	True
519.476	2.726	Win2	0.6545000000000001	n/a	No	2.726	n/a	n/a	NoResponse	0	0.0	n/a	9	54	ISIslide	MissedWin	True
522.218	0.25	Control	0.6607	0.0	Yes	3.032	0.018	n/a	GoodResponse	0	n/a	n/a	9	55	Cue	Neutral	True
522.469	3.95	Control	0.6607	0.0	Yes	3.032	0.001	n/a	GoodResponse	0	n/a	n/a	9	55	Fixation	Neutral	True
526.414	0.27	Control	0.6607	0.004	Yes	3.032	-0.004	2.0	GoodResponse	0	0.155	525.569	9	55	Target	Neutral	True
526.569	0.3	Control	0.6607	0.004	Yes	3.032	-0.004	2.0	GoodResponse	0	0.155	n/a	9	55	ButtonPress	Neutral	True
526.698	0.43	Control	0.6607	n/a	Yes	3.032	n/a	n/a	GoodResponse	0	n/a	n/a	9	55	Blank	Neutral	True
527.116	1.45	Control	0.6607	n/a	Yes	3.032	n/a	5.0	GoodResponse	0	0.022	526.138	9	55	Feedback	Neutral	True
528.57	3.032	Control	0.6607	n/a	Yes	3.032	n/a	n/a	GoodResponse	0	0.0	n/a	9	55	ISIslide	Neutral	True
531.629	0.25	Control	0.6491	0.001	No	2.821	0.029	n/a	NoResponse	0	n/a	n/a	9	56	Cue	Neutral	True
531.88	3.95	Control	0.6491	0.0	No	2.821	0.001	n/a	NoResponse	0	n/a	n/a	9	56	Fixation	Neutral	True
535.825	0.27	Control	0.6491	0.004	No	2.821	-0.004	2.0	NoResponse	0	0.375	535.2	9	56	Target	Neutral	True
536.109	0.43	Control	0.6491	n/a	No	2.821	n/a	n/a	NoResponse	0	n/a	n/a	9	56	Blank	Neutral	True
536.2	0.3	Control	0.6491	0.004	No	2.821	-0.004	2.0	NoResponse	0	0.375	n/a	9	56	ButtonPress	Neutral	True
536.527	1.45	Control	0.6491	n/a	No	2.821	n/a	5.0	NoResponse	0	0.025	535.552	9	56	Feedback	Neutral	True
537.982	2.821	Control	0.6491	n/a	No	2.821	n/a	n/a	NoResponse	0	0.0	n/a	9	56	ISIslide	Neutral	True
540.824	0.25	Control	0.6552	0.0	Yes	3.476	0.024	n/a	GoodResponse	0	n/a	n/a	9	57	Cue	Neutral	True
541.074	4.0	Control	0.6552	0.0	Yes	3.476	0.0	n/a	GoodResponse	0	n/a	n/a	9	57	Fixation	Neutral	True
545.07	0.28	Control	0.6552	0.004	Yes	3.476	-0.004	2.0	GoodResponse	0	0.21	544.28	9	57	Target	Neutral	True
545.28	0.3	Control	0.6552	0.004	Yes	3.476	-0.004	2.0	GoodResponse	0	0.21	n/a	9	57	ButtonPress	Neutral	True
545.354	0.42	Control	0.6552	n/a	Yes	3.476	n/a	n/a	GoodResponse	0	n/a	n/a	9	57	Blank	Neutral	True
545.772	1.45	Control	0.6552	n/a	Yes	3.476	n/a	5.0	GoodResponse	0	0.048	544.82	9	57	Feedback	Neutral	True
547.226	3.476	Control	0.6552	n/a	Yes	3.476	n/a	n/a	GoodResponse	0	0.0	n/a	9	57	ISIslide	Neutral	True
550.72	0.25	Win2	0.6609999999999999	0.0	Yes	2.73	0.02	n/a	GoodResponse	1	n/a	n/a	10	58	Cue	Win	True
550.97	4.05	Win2	0.6609999999999999	0.001	Yes	2.73	0.0	n/a	GoodResponse	1	n/a	n/a	10	58	Fixation	Win	True
555.016	0.28	Win2	0.6609999999999999	0.004	Yes	2.73	-0.004	2.0	GoodResponse	1	0.225	554.241	10	58	Target	Win	True
555.241	0.3	Win2	0.6609999999999999	0.004	Yes	2.73	-0.004	2.0	GoodResponse	1	0.225	n/a	10	58	ButtonPress	Win	True
555.3	0.42	Win2	0.6609999999999999	n/a	Yes	2.73	n/a	n/a	GoodResponse	1	n/a	n/a	10	58	Blank	Win	True
555.718	1.45	Win2	0.6609999999999999	n/a	Yes	2.73	n/a	5.0	GoodResponse	1	0.008	554.726	10	58	Feedback	Win	True
557.172	2.73	Win2	0.6609999999999999	n/a	Yes	2.73	n/a	n/a	GoodResponse	1	0.0	n/a	10	58	ISIslide	Win	True
559.931	0.25	Lose2	0.6667000000000001	0.0	Yes	2.669	0.031	n/a	GoodResponse	0	n/a	n/a	10	59	Cue	AvoidedLoss	True
560.181	4.0	Lose2	0.6667000000000001	0.0	Yes	2.669	0.0	n/a	GoodResponse	0	n/a	n/a	10	59	Fixation	AvoidedLoss	True
564.177	0.28	Lose2	0.6667000000000001	0.004	Yes	2.669	-0.004	2.0	GoodResponse	0	0.252	563.429	10	59	Target	AvoidedLoss	True
564.429	0.3	Lose2	0.6667000000000001	0.004	Yes	2.669	-0.004	2.0	GoodResponse	0	0.252	n/a	10	59	ButtonPress	AvoidedLoss	True
564.461	0.42	Lose2	0.6667000000000001	n/a	Yes	2.669	n/a	n/a	GoodResponse	0	n/a	n/a	10	59	Blank	AvoidedLoss	True
564.879	1.45	Lose2	0.6667000000000001	n/a	Yes	2.669	n/a	5.0	GoodResponse	0	0.014	563.893	10	59	Feedback	AvoidedLoss	True
566.333	2.669	Lose2	0.6667000000000001	n/a	Yes	2.669	n/a	n/a	GoodResponse	0	0.0	n/a	10	59	ISIslide	AvoidedLoss	True
569.024	0.25	Control	0.6720999999999999	0.0	Yes	2.676	0.024	n/a	GoodResponse	0	n/a	n/a	10	60	Cue	Neutral	True
569.275	4.0	Control	0.6720999999999999	0.0	Yes	2.676	0.001	n/a	GoodResponse	0	n/a	n/a	10	60	Fixation	Neutral	True
573.27	0.27	Control	0.6720999999999999	0.004	Yes	2.676	-0.004	2.0	GoodResponse	0	0.237	572.507	10	60	Target	Neutral	True
573.507	0.3	Control	0.6720999999999999	0.004	Yes	2.676	-0.004	2.0	GoodResponse	0	0.237	n/a	10	60	ButtonPress	Neutral	True
573.555	0.43	Control	0.6720999999999999	n/a	Yes	2.676	n/a	n/a	GoodResponse	0	n/a	n/a	10	60	Blank	Neutral	True
573.973	1.45	Control	0.6720999999999999	n/a	Yes	2.676	n/a	5.0	GoodResponse	0	0.041	573.014	10	60	Feedback	Neutral	True
575.427	2.676	Control	0.6720999999999999	n/a	Yes	2.676	n/a	n/a	GoodResponse	0	0.0	n/a	10	60	ISIslide	Neutral	True
578.118	0.25	Lose2	0.6613	0.0	No	2.982	0.018	n/a	NoResponse	-1	n/a	n/a	9	61	Cue	Loss	True
578.369	4.0	Lose2	0.6613	0.0	No	2.982	0.001	n/a	NoResponse	-1	n/a	n/a	9	61	Fixation	Loss	True
582.364	0.26	Lose2	0.6613	0.004	No	2.982	-0.004	2.0	NoResponse	-1	0.335	581.699	9	61	Target	Loss	True
582.632	0.44	Lose2	0.6613	n/a	No	2.982	n/a	n/a	NoResponse	-1	n/a	n/a	9	61	Blank	Loss	True
582.699	0.3	Lose2	0.6613	0.004	No	2.982	-0.004	2.0	NoResponse	-1	0.335	n/a	9	61	ButtonPress	Loss	True
583.066	1.45	Lose2	0.6613	n/a	No	2.982	n/a	5.0	NoResponse	-1	0.022	582.088	9	61	Feedback	Loss	True
584.521	2.982	Lose2	0.6613	n/a	No	2.982	n/a	n/a	NoResponse	-1	0.0	n/a	9	61	ISIslide	Loss	True
587.53	0.25	Lose2	0.6667000000000001	0.0	Yes	2.87	0.03	n/a	GoodResponse	0	n/a	n/a	9	62	Cue	AvoidedLoss	True
587.78	3.9	Lose2	0.6667000000000001	0.0	Yes	2.87	0.0	n/a	GoodResponse	0	n/a	n/a	9	62	Fixation	AvoidedLoss	True
591.692	0.26	Lose2	0.6667000000000001	0.0	Yes	2.87	0.012	2.0	GoodResponse	0	0.224	590.916	9	62	Target	AvoidedLoss	True
591.916	0.3	Lose2	0.6667000000000001	0.0	Yes	2.87	0.012	2.0	GoodResponse	0	0.224	n/a	9	62	ButtonPress	AvoidedLoss	True
591.943	0.44	Lose2	0.6667000000000001	n/a	Yes	2.87	n/a	n/a	GoodResponse	0	n/a	n/a	9	62	Blank	AvoidedLoss	True
592.377	1.45	Lose2	0.6667000000000001	n/a	Yes	2.87	n/a	5.0	GoodResponse	0	0.028	591.405	9	62	Feedback	AvoidedLoss	True
593.832	2.87	Lose2	0.6667000000000001	n/a	Yes	2.87	n/a	n/a	GoodResponse	0	0.0	n/a	9	62	ISIslide	AvoidedLoss	True
596.724	0.25	Lose2	0.6562	0.0	No	2.626	0.024	n/a	NoResponse	-1	n/a	n/a	8	63	Cue	Loss	True
596.975	4.05	Lose2	0.6562	0.0	No	2.626	0.001	n/a	NoResponse	-1	n/a	n/a	8	63	Fixation	Loss	True
601.02	0.25	Lose2	0.6562	0.004	No	2.626	-0.004	2.0	NoResponse	-1	0.35	600.37	8	63	Target	Loss	True
601.271	0.45	Lose2	0.6562	n/a	No	2.626	n/a	n/a	NoResponse	-1	n/a	n/a	8	63	Blank	Loss	True
601.37	0.3	Lose2	0.6562	0.004	No	2.626	-0.004	2.0	NoResponse	-1	0.35	n/a	8	63	ButtonPress	Loss	True
601.722	1.45	Lose2	0.6562	n/a	No	2.626	n/a	5.0	NoResponse	-1	0.049	600.771	8	63	Feedback	Loss	True
603.176	2.626	Lose2	0.6562	n/a	No	2.626	n/a	n/a	NoResponse	-1	0.0	n/a	8	63	ISIslide	Loss	True
605.818	0.25	Win2	0.6615000000000001	0.0	Yes	3.132	0.018	n/a	GoodResponse	1	n/a	n/a	9	64	Cue	Win	True
606.068	4.15	Win2	0.6615000000000001	0.0	Yes	3.132	0.0	n/a	GoodResponse	1	n/a	n/a	9	64	Fixation	Win	True
610.214	0.25	Win2	0.6615000000000001	0.004	Yes	3.132	-0.004	2.0	GoodResponse	1	0.213	609.427	9	64	Target	Win	True
610.427	0.3	Win2	0.6615000000000001	0.004	Yes	3.132	-0.004	2.0	GoodResponse	1	0.213	n/a	9	64	ButtonPress	Win	True
610.465	0.45	Win2	0.6615000000000001	n/a	Yes	3.132	n/a	n/a	GoodResponse	1	n/a	n/a	9	64	Blank	Win	True
610.916	1.45	Win2	0.6615000000000001	n/a	Yes	3.132	n/a	5.0	GoodResponse	1	0.025	609.941	9	64	Feedback	Win	True
612.371	3.132	Win2	0.6615000000000001	n/a	Yes	3.132	n/a	n/a	GoodResponse	1	0.0	n/a	9	64	ISIslide	Win	True
615.513	0.25	Control	0.6667000000000001	0.0	Yes	2.787	0.013	n/a	GoodResponse	0	n/a	n/a	9	65	Cue	Neutral	True
615.764	4.0	Control	0.6667000000000001	0.0	Yes	2.787	0.001	n/a	GoodResponse	0	n/a	n/a	9	65	Fixation	Neutral	True
619.759	0.25	Control	0.6667000000000001	0.004	Yes	2.787	-0.004	2.0	GoodResponse	0	0.202	618.961	9	65	Target	Neutral	True
619.961	0.3	Control	0.6667000000000001	0.004	Yes	2.787	-0.004	2.0	GoodResponse	0	0.202	n/a	9	65	ButtonPress	Neutral	True
620.01	0.45	Control	0.6667000000000001	n/a	Yes	2.787	n/a	n/a	GoodResponse	0	n/a	n/a	9	65	Blank	Neutral	True
620.461	1.45	Control	0.6667000000000001	n/a	Yes	2.787	n/a	5.0	GoodResponse	0	0.041	619.502	9	65	Feedback	Neutral	True
621.916	2.787	Control	0.6667000000000001	n/a	Yes	2.787	n/a	n/a	GoodResponse	0	0.0	n/a	9	65	ISIslide	Neutral	True
624.724	0.25	Win2	0.6567000000000001	0.0	No	2.776	0.024	n/a	NoResponse	0	n/a	n/a	9	66	Cue	MissedWin	True
624.975	3.9	Win2	0.6567000000000001	0.0	No	2.776	0.001	n/a	NoResponse	0	n/a	n/a	9	66	Fixation	MissedWin	True
628.87	0.24	Win2	0.6567000000000001	0.004	No	2.776	-0.004	2.0	NoResponse	0	0.267	628.137	9	66	Target	MissedWin	True
629.121	0.46	Win2	0.6567000000000001	n/a	No	2.776	n/a	n/a	NoResponse	0	n/a	n/a	9	66	Blank	MissedWin	True
629.137	0.3	Win2	0.6567000000000001	0.004	No	2.776	-0.004	2.0	NoResponse	0	0.267	n/a	9	66	ButtonPress	MissedWin	True
629.572	1.45	Win2	0.6567000000000001	n/a	No	2.776	n/a	5.0	NoResponse	0	0.008	628.58	9	66	Feedback	MissedWin	True
631.026	2.776	Win2	0.6567000000000001	n/a	No	2.776	n/a	n/a	NoResponse	0	0.0	n/a	9	66	ISIslide	MissedWin	True
633.818	0.25	Control	0.6618	0.0	Yes	2.732	0.018	n/a	GoodResponse	0	n/a	n/a	9	67	Cue	Neutral	False
634.069	3.95	Control	0.6618	0.0	Yes	2.732	0.001	2.0	GoodResponse	0	3.742	636.811	9	67	Fixation	Neutral	False
637.811	0.3	Control	0.6618	0.0	Yes	2.732	0.001	2.0	GoodResponse	0	3.742	n/a	9	67	ButtonPress	Neutral	False
638.014	0.24	Control	0.6618	0.004	Yes	2.732	-0.004	2.0	GoodResponse	0	0.238	637.252	9	67	Target	Neutral	False
638.252	0.3	Control	0.6618	0.004	Yes	2.732	-0.004	2.0	GoodResponse	0	0.238	n/a	9	67	ButtonPress	Neutral	False
638.265	0.46	Control	0.6618	n/a	Yes	2.732	n/a	n/a	GoodResponse	0	n/a	n/a	9	67	Blank	Neutral	False
638.716	1.45	Control	0.6618	n/a	Yes	2.732	n/a	5.0	GoodResponse	0	0.03	637.746	9	67	Feedback	Neutral	False
640.17	2.732	Control	0.6618	n/a	Yes	2.732	n/a	n/a	GoodResponse	0	0.0	n/a	9	67	ISIslide	Neutral	False
642.928	0.25	Win2	0.6667000000000001	0.001	Yes	3.072	0.028	n/a	GoodResponse	1	n/a	n/a	10	68	Cue	Win	True
643.179	4.0	Win2	0.6667000000000001	0.0	Yes	3.072	0.001	n/a	GoodResponse	1	n/a	n/a	10	68	Fixation	Win	True
647.174	0.24	Win2	0.6667000000000001	0.004	Yes	3.072	-0.004	2.0	GoodResponse	1	0.206	646.38	10	68	Target	Win	True
647.38	0.3	Win2	0.6667000000000001	0.004	Yes	3.072	-0.004	2.0	GoodResponse	1	0.206	n/a	10	68	ButtonPress	Win	True
647.425	0.46	Win2	0.6667000000000001	n/a	Yes	3.072	n/a	n/a	GoodResponse	1	n/a	n/a	10	68	Blank	Win	True
647.877	1.45	Win2	0.6667000000000001	n/a	Yes	3.072	n/a	5.0	GoodResponse	1	0.039	646.916	10	68	Feedback	Win	True
649.331	3.072	Win2	0.6667000000000001	n/a	Yes	3.072	n/a	n/a	GoodResponse	1	0.0	n/a	10	68	ISIslide	Win	True
652.423	0.25	Win2	0.6570999999999999	0.001	No	3.227	0.023	n/a	NoResponse	0	n/a	n/a	10	69	Cue	MissedWin	True
652.674	3.95	Win2	0.6570999999999999	0.0	No	3.227	0.001	n/a	NoResponse	0	n/a	n/a	10	69	Fixation	MissedWin	True
656.619	0.23	Win2	0.6570999999999999	0.004	No	3.227	-0.004	2.0	NoResponse	0	0.242	655.861	10	69	Target	MissedWin	True
656.853	0.47	Win2	0.6570999999999999	n/a	No	3.227	n/a	n/a	NoResponse	0	n/a	n/a	10	69	Blank	MissedWin	True
656.861	0.3	Win2	0.6570999999999999	0.004	No	3.227	-0.004	2.0	NoResponse	0	0.242	n/a	10	69	ButtonPress	MissedWin	True
657.321	1.45	Win2	0.6570999999999999	n/a	No	3.227	n/a	5.0	NoResponse	0	0.009	656.33	10	69	Feedback	MissedWin	True
658.776	3.227	Win2	0.6570999999999999	n/a	No	3.227	n/a	n/a	NoResponse	0	0.0	n/a	10	69	ISIslide	MissedWin	True
662.019	0.25	Lose2	0.662	0.0	Yes	3.031	0.019	n/a	GoodResponse	0	n/a	n/a	10	70	Cue	AvoidedLoss	True
662.27	4.05	Lose2	0.662	0.0	Yes	3.031	0.001	n/a	GoodResponse	0	n/a	n/a	10	70	Fixation	AvoidedLoss	True
666.315	0.23	Lose2	0.662	0.004	Yes	3.031	-0.004	2.0	GoodResponse	0	0.177	665.492	10	70	Target	AvoidedLoss	True
666.492	0.3	Lose2	0.662	0.004	Yes	3.031	-0.004	2.0	GoodResponse	0	0.177	n/a	10	70	ButtonPress	AvoidedLoss	True
666.549	0.47	Lose2	0.662	n/a	Yes	3.031	n/a	n/a	GoodResponse	0	n/a	n/a	10	70	Blank	AvoidedLoss	True
667.017	1.45	Lose2	0.662	n/a	Yes	3.031	n/a	5.0	GoodResponse	0	0.021	666.038	10	70	Feedback	AvoidedLoss	True
668.471	3.031	Lose2	0.662	n/a	Yes	3.031	n/a	n/a	GoodResponse	0	0.0	n/a	10	70	ISIslide	AvoidedLoss	True
671.531	0.25	Win2	0.6528	0.0	No	2.719	0.031	n/a	PrematurePress	0	n/a	n/a	10	71	Cue	MissedWin	False
671.781	4.05	Win2	0.6528	0.0	No	2.719	0.0	2.0	PrematurePress	0	3.67	674.451	10	71	Fixation	MissedWin	False
675.451	0.3	Win2	0.6528	0.0	No	2.719	0.0	2.0	PrematurePress	0	3.67	n/a	10	71	ButtonPress	MissedWin	False
675.827	0.23	Win2	0.6528	0.004	No	2.719	-0.004	2.0	PrematurePress	0	0.032	674.859	10	71	Target	MissedWin	False
675.859	0.3	Win2	0.6528	0.004	No	2.719	-0.004	2.0	PrematurePress	0	0.032	n/a	10	71	ButtonPress	MissedWin	False
676.061	0.47	Win2	0.6528	n/a	No	2.719	n/a	n/a	PrematurePress	0	n/a	n/a	10	71	Blank	MissedWin	False
676.529	1.45	Win2	0.6528	n/a	No	2.719	n/a	5.0	PrematurePress	0	0.021	675.55	10	71	Feedback	MissedWin	False
677.983	2.719	Win2	0.6528	n/a	No	2.719	n/a	n/a	PrematurePress	0	0.0	n/a	10	71	ISIslide	MissedWin	False
680.725	0.25	Win2	0.6437999999999999	0.0	No	2.775	0.025	n/a	NoResponse	0	n/a	n/a	10	72	Cue	MissedWin	True
680.975	4.1	Win2	0.6437999999999999	0.0	No	2.775	0.0	n/a	NoResponse	0	n/a	n/a	10	72	Fixation	MissedWin	True
685.071	0.24	Win2	0.6437999999999999	0.004	No	2.775	-0.004	2.0	NoResponse	0	0.252	684.323	10	72	Target	MissedWin	True
685.322	0.46	Win2	0.6437999999999999	n/a	No	2.775	n/a	n/a	NoResponse	0	n/a	n/a	10	72	Blank	MissedWin	True
685.323	0.3	Win2	0.6437999999999999	0.004	No	2.775	-0.004	2.0	NoResponse	0	0.252	n/a	10	72	ButtonPress	MissedWin	True
685.773	1.45	Win2	0.6437999999999999	n/a	No	2.775	n/a	5.0	NoResponse	0	0.044	684.817	10	72	Feedback	MissedWin	True
687.227	2.775	Win2	0.6437999999999999	n/a	No	2.775	n/a	n/a	NoResponse	0	0.0	n/a	10	72	ISIslide	MissedWin	True
690.019	0.25	Win2	0.6486	0.0	Yes	2.681	0.019	n/a	GoodResponse	1	n/a	n/a	11	73	Cue	Win	True
690.27	4.0	Win2	0.6486	0.0	Yes	2.681	0.001	n/a	GoodResponse	1	n/a	n/a	11	73	Fixation	Win	True
694.265	0.25	Win2	0.6486	0.004	Yes	2.681	-0.004	2.0	GoodResponse	1	0.22	693.485	11	73	Target	Win	True
694.485	0.3	Win2	0.6486	0.004	Yes	2.681	-0.004	2.0	GoodResponse	1	0.22	n/a	11	73	ButtonPress	Win	True
694.516	0.45	Win2	0.6486	n/a	Yes	2.681	n/a	n/a	GoodResponse	1	n/a	n/a	11	73	Blank	Win	True
694.967	1.45	Win2	0.6486	n/a	Yes	2.681	n/a	5.0	GoodResponse	1	0.021	693.988	11	73	Feedback	Win	True
696.422	2.681	Win2	0.6486	n/a	Yes	2.681	n/a	n/a	GoodResponse	1	0.0	n/a	11	73	ISIslide	Win	True
699.13	0.25	Lose2	0.6533	0.0	Yes	2.62	0.03	n/a	GoodResponse	0	n/a	n/a	11	74	Cue	AvoidedLoss	True
699.38	4.05	Lose2	0.6533	0.0	Yes	2.62	0.0	n/a	GoodResponse	0	n/a	n/a	11	74	Fixation	AvoidedLoss	True
703.426	0.26	Lose2	0.6533	0.004	Yes	2.62	-0.004	2.0	GoodResponse	0	0.227	702.653	11	74	Target	AvoidedLoss	True
703.653	0.3	Lose2	0.6533	0.004	Yes	2.62	-0.004	2.0	GoodResponse	0	0.227	n/a	11	74	ButtonPress	AvoidedLoss	True
703.693	0.44	Lose2	0.6533	n/a	Yes	2.62	n/a	n/a	GoodResponse	0	n/a	n/a	11	74	Blank	AvoidedLoss	True
704.128	1.45	Lose2	0.6533	n/a	Yes	2.62	n/a	5.0	GoodResponse	0	0.031	703.159	11	74	Feedback	AvoidedLoss	True
705.582	2.62	Lose2	0.6533	n/a	Yes	2.62	n/a	n/a	GoodResponse	0	0.0	n/a	11	74	ISIslide	AvoidedLoss	True
708.223	0.25	Lose2	0.6579	0.001	Yes	2.927	0.023	n/a	GoodResponse	0	n/a	n/a	11	75	Cue	AvoidedLoss	True
708.474	3.95	Lose2	0.6579	0.0	Yes	2.927	0.001	n/a	GoodResponse	0	n/a	n/a	11	75	Fixation	AvoidedLoss	True
712.419	0.27	Lose2	0.6579	0.004	Yes	2.927	-0.004	2.0	GoodResponse	0	0.206	711.625	11	75	Target	AvoidedLoss	True
712.625	0.3	Lose2	0.6579	0.004	Yes	2.927	-0.004	2.0	GoodResponse	0	0.206	n/a	11	75	ButtonPress	AvoidedLoss	True
712.704	0.43	Lose2	0.6579	n/a	Yes	2.927	n/a	n/a	GoodResponse	0	n/a	n/a	11	75	Blank	AvoidedLoss	True
713.121	1.45	Lose2	0.6579	n/a	Yes	2.927	n/a	5.0	GoodResponse	0	0.014	712.135	11	75	Feedback	AvoidedLoss	True
714.576	2.927	Lose2	0.6579	n/a	Yes	2.927	n/a	n/a	GoodResponse	0	0.0	n/a	11	75	ISIslide	AvoidedLoss	True
717.518	0.25	Control	0.6623	0.0	Yes	3.232	0.018	n/a	GoodResponse	0	n/a	n/a	11	76	Cue	Neutral	True
717.769	4.05	Control	0.6623	0.0	Yes	3.232	0.001	n/a	GoodResponse	0	n/a	n/a	11	76	Fixation	Neutral	True
721.814	0.27	Control	0.6623	0.004	Yes	3.232	-0.004	2.0	GoodResponse	0	0.223	721.037	11	76	Target	Neutral	True
722.037	0.3	Control	0.6623	0.004	Yes	3.232	-0.004	2.0	GoodResponse	0	0.223	n/a	11	76	ButtonPress	Neutral	True
722.098	0.43	Control	0.6623	n/a	Yes	3.232	n/a	n/a	GoodResponse	0	n/a	n/a	11	76	Blank	Neutral	True
722.516	1.45	Control	0.6623	n/a	Yes	3.232	n/a	5.0	GoodResponse	0	0.032	721.548	11	76	Feedback	Neutral	True
723.97	3.232	Control	0.6623	n/a	Yes	3.232	n/a	n/a	GoodResponse	0	0.0	n/a	11	76	ISIslide	Neutral	True
727.23	0.25	Lose2	0.6667000000000001	0.0	Yes	2.57	0.03	n/a	GoodResponse	0	n/a	n/a	11	77	Cue	AvoidedLoss	True
727.481	3.95	Lose2	0.6667000000000001	0.0	Yes	2.57	0.001	n/a	GoodResponse	0	n/a	n/a	11	77	Fixation	AvoidedLoss	True
731.426	0.27	Lose2	0.6667000000000001	0.004	Yes	2.57	-0.004	2.0	GoodResponse	0	0.235	730.661	11	77	Target	AvoidedLoss	True
731.661	0.3	Lose2	0.6667000000000001	0.004	Yes	2.57	-0.004	2.0	GoodResponse	0	0.235	n/a	11	77	ButtonPress	AvoidedLoss	True
731.71	0.43	Lose2	0.6667000000000001	n/a	Yes	2.57	n/a	n/a	GoodResponse	0	n/a	n/a	11	77	Blank	AvoidedLoss	True
732.128	1.45	Lose2	0.6667000000000001	n/a	Yes	2.57	n/a	5.0	GoodResponse	0	0.03	731.158	11	77	Feedback	AvoidedLoss	True
733.583	2.57	Lose2	0.6667000000000001	n/a	Yes	2.57	n/a	n/a	GoodResponse	0	0.0	n/a	11	77	ISIslide	AvoidedLoss	True
