onset	duration	cue_type	current_mean_accuracy	duration_error	is_hit	isi_adjusted	onset_delay	response	response_type	reward	rt	rt_time	total_reward	trial_number	trial_phase	trial_type	one_press
11.109	0.25	Control	1.0	0.001	Yes	2.941	0.009	n/a	GoodResponse	0	n/a	n/a	0	0	Cue	Neutral	True
11.359	3.85	Control	1.0	0.0	Yes	2.941	0.0	n/a	GoodResponse	0	n/a	n/a	0	0	Fixation	Neutral	True
15.208	0.4	Control	1.0	0.001	Yes	2.941	-0.001	4.0	GoodResponse	0	0.31	14.518	0	0	Target	Neutral	True
15.518	0.3	Control	1.0	0.001	Yes	2.941	-0.001	4.0	GoodResponse	0	0.31	n/a	0	0	ButtonPress	Neutral	True
15.608	0.3	Control	1.0	n/a	Yes	2.941	n/a	n/a	GoodResponse	0	n/a	n/a	0	0	Blank	Neutral	True
15.908	1.45	Control	1.0	n/a	Yes	2.941	n/a	5.0	GoodResponse	0	0.018	14.926	0	0	Feedback	Neutral	True
17.357	2.941	Control	1.0	n/a	Yes	2.941	n/a	n/a	GoodResponse	0	0.0	n/a	0	0	ISIslide	Neutral	True
20.339	0.25	Lose2	1.0	0.001	Yes	2.761	0.039	n/a	GoodResponse	0	n/a	n/a	0	1	Cue	AvoidedLoss	True
20.589	4.0	Lose2	1.0	0.0	Yes	2.761	0.0	n/a	GoodResponse	0	n/a	n/a	0	1	Fixation	AvoidedLoss	True
24.588	0.39	Lose2	1.0	0.001	Yes	2.761	-0.001	4.0	GoodResponse	0	0.246	23.834	0	1	Target	AvoidedLoss	True
24.834	0.3	Lose2	1.0	0.001	Yes	2.761	-0.001	4.0	GoodResponse	0	0.246	n/a	0	1	ButtonPress	AvoidedLoss	True
24.988	0.31	Lose2	1.0	n/a	Yes	2.761	n/a	n/a	GoodResponse	0	n/a	n/a	0	1	Blank	AvoidedLoss	True
25.288	1.45	Lose2	1.0	n/a	Yes	2.761	n/a	5.0	GoodResponse	0	0.006	24.294	0	1	Feedback	AvoidedLoss	True
26.737	2.761	Lose2	1.0	n/a	Yes	2.761	n/a	n/a	GoodResponse	0	0.0	n/a	0	1	ISIslide	AvoidedLoss	True
29.52	0.25	Control	1.0	0.0	Yes	2.58	0.02	n/a	GoodResponse	0	n/a	n/a	0	2	Cue	Neutral	True
29.769	4.1	Control	1.0	0.001	Yes	2.58	-0.001	n/a	GoodResponse	0	n/a	n/a	0	2	Fixation	Neutral	True
33.868	0.38	Control	1.0	0.002	Yes	2.58	-0.002	4.0	GoodResponse	0	0.273	33.141	0	2	Target	Neutral	True
34.141	0.3	Control	1.0	0.002	Yes	2.58	-0.002	4.0	GoodResponse	0	0.273	n/a	0	2	ButtonPress	Neutral	True
34.251	0.32	Control	1.0	n/a	Yes	2.58	n/a	n/a	GoodResponse	0	n/a	n/a	0	2	Blank	Neutral	True
34.568	1.45	Control	1.0	n/a	Yes	2.58	n/a	5.0	GoodResponse	0	0.041	33.609	0	2	Feedback	Neutral	True
36.017	2.58	Control	1.0	n/a	Yes	2.58	n/a	n/a	GoodResponse	0	0.0	n/a	0	2	ISIslide	Neutral	True
38.666	0.25	Win2	1.0	0.0	Yes	2.784	0.066	n/a	GoodResponse	1	n/a	n/a	1	3	Cue	Win	True
38.916	3.95	Win2	1.0	0.0	Yes	2.784	0.0	n/a	GoodResponse	1	n/a	n/a	1	3	Fixation	Win	True
42.865	0.37	Win2	1.0	0.001	Yes	2.784	-0.001	4.0	GoodResponse	1	0.263	42.128	1	3	Target	Win	True
43.128	0.3	Win2	1.0	0.001	Yes	2.784	-0.001	4.0	GoodResponse	1	0.263	n/a	1	3	ButtonPress	Win	True
43.248	0.33	Win2	1.0	n/a	Yes	2.784	n/a	n/a	GoodResponse	1	n/a	n/a	1	3	Blank	Win	True
43.565	1.45	Win2	1.0	n/a	Yes	2.784	n/a	5.0	GoodResponse	1	0.02	42.585	1	3	Feedback	Win	True
45.014	2.784	Win2	1.0	n/a	Yes	2.784	n/a	n/a	GoodResponse	1	0.0	n/a	1	3	ISIslide	Win	True
47.83	0.25	Win2	1.0	0.0	Yes	3.27	0.03	n/a	GoodResponse	1	n/a	n/a	2	4	Cue	Win	True
48.08	4.0	Win2	1.0	0.0	Yes	3.27	0.0	n/a	GoodResponse	1	n/a	n/a	2	4	Fixation	Win	True
52.078	0.36	Win2	1.0	0.002	Yes	3.27	-0.002	4.0	GoodResponse	1	0.27	51.348	2	4	Target	Win	True
52.348	0.3	Win2	1.0	0.002	Yes	3.27	-0.002	4.0	GoodResponse	1	0.27	n/a	2	4	ButtonPress	Win	True
52.445	0.34	Win2	1.0	n/a	Yes	3.27	n/a	n/a	GoodResponse	1	n/a	n/a	2	4	Blank	Win	True
52.778	1.45	Win2	1.0	n/a	Yes	3.27	n/a	5.0	GoodResponse	1	0.026	51.804	2	4	Feedback	Win	True
54.227	3.27	Win2	1.0	n/a	Yes	3.27	n/a	n/a	GoodResponse	1	0.0	n/a	2	4	ISIslide	Win	True
57.526	0.25	Win2	1.0	0.0	Yes	2.774	0.026	n/a	GoodResponse	1	n/a	n/a	3	5	Cue	Win	True
57.776	4.0	Win2	1.0	0.0	Yes	2.774	0.0	n/a	GoodResponse	1	n/a	n/a	3	5	Fixation	Win	True
61.775	0.35	Win2	1.0	0.001	Yes	2.774	-0.001	4.0	GoodResponse	1	0.248	61.023	3	5	Target	Win	True
62.023	0.3	Win2	1.0	0.001	Yes	2.774	-0.001	4.0	GoodResponse	1	0.248	n/a	3	5	ButtonPress	Win	True
62.125	0.35	Win2	1.0	n/a	Yes	2.774	n/a	n/a	GoodResponse	1	n/a	n/a	3	5	Blank	Win	True
62.474	1.45	Win2	1.0	n/a	Yes	2.774	n/a	5.0	GoodResponse	1	0.037	61.511	3	5	Feedback	Win	True
63.924	2.774	Win2	1.0	n/a	Yes	2.774	n/a	n/a	GoodResponse	1	0.0	n/a	3	5	ISIslide	Win	True
66.723	0.25	Lose2	1.0	0.0	Yes	2.727	0.023	n/a	GoodResponse	0	n/a	n/a	3	6	Cue	AvoidedLoss	True
66.973	3.95	Lose2	1.0	0.0	Yes	2.727	0.0	n/a	GoodResponse	0	n/a	n/a	3	6	Fixation	AvoidedLoss	True
70.921	0.34	Lose2	1.0	0.002	Yes	2.727	-0.002	4.0	GoodResponse	0	0.25	70.171	3	6	Target	AvoidedLoss	True
71.171	0.3	Lose2	1.0	0.002	Yes	2.727	-0.002	4.0	GoodResponse	0	0.25	n/a	3	6	ButtonPress	AvoidedLoss	True
71.271	0.36	Lose2	1.0	n/a	Yes	2.727	n/a	n/a	GoodResponse	0	n/a	n/a	3	6	Blank	AvoidedLoss	True
71.621	1.45	Lose2	1.0	n/a	Yes	2.727	n/a	5.0	GoodResponse	0	0.012	70.633	3	6	Feedback	AvoidedLoss	True
73.071	2.727	Lose2	1.0	n/a	Yes	2.727	n/a	n/a	GoodResponse	0	0.0	n/a	3	6	ISIslide	AvoidedLoss	True
75.82	0.25	Lose2	1.0	0.0	Yes	4.03	0.02	n/a	GoodResponse	0	n/a	n/a	3	7	Cue	AvoidedLoss	True
76.07	4.05	Lose2	1.0	0.0	Yes	4.03	0.0	n/a	GoodResponse	0	n/a	n/a	3	7	Fixation	AvoidedLoss	True
80.118	0.33	Lose2	1.0	0.002	Yes	4.03	-0.002	4.0	GoodResponse	0	0.249	79.367	3	7	Target	AvoidedLoss	True
80.367	0.3	Lose2	1.0	0.002	Yes	4.03	-0.002	4.0	GoodResponse	0	0.249	n/a	3	7	ButtonPress	AvoidedLoss	True
80.451	0.37	Lose2	1.0	n/a	Yes	4.03	n/a	n/a	GoodResponse	0	n/a	n/a	3	7	Blank	AvoidedLoss	True
80.818	1.45	Lose2	1.0	n/a	Yes	4.03	n/a	5.0	GoodResponse	0	0.035	79.853	3	7	Feedback	AvoidedLoss	True
82.267	4.03	Lose2	1.0	n/a	Yes	4.03	n/a	n/a	GoodResponse	0	0.0	n/a	3	7	ISIslide	AvoidedLoss	True
86.316	0.25	Lose2	1.0	0.0	Yes	3.034	0.016	n/a	GoodResponse	0	n/a	n/a	3	8	Cue	AvoidedLoss	True
86.566	3.95	Lose2	1.0	0.0	Yes	3.034	0.0	n/a	GoodResponse	0	n/a	n/a	3	8	Fixation	AvoidedLoss	True
90.515	0.32	Lose2	1.0	0.001	Yes	3.034	-0.001	4.0	GoodResponse	0	0.245	89.76	3	8	Target	AvoidedLoss	True
90.76	0.3	Lose2	1.0	0.001	Yes	3.034	-0.001	4.0	GoodResponse	0	0.245	n/a	3	8	ButtonPress	AvoidedLoss	True
90.848	0.38	Lose2	1.0	n/a	Yes	3.034	n/a	n/a	GoodResponse	0	n/a	n/a	3	8	Blank	AvoidedLoss	True
91.214	1.45	Lose2	1.0	n/a	Yes	3.034	n/a	5.0	GoodResponse	0	0.028	90.242	3	8	Feedback	AvoidedLoss	True
92.664	3.034	Lose2	1.0	n/a	Yes	3.034	n/a	n/a	GoodResponse	0	0.0	n/a	3	8	ISIslide	AvoidedLoss	True
95.729	0.25	Lose2	1.0	0.0	Yes	3.121	0.029	n/a	GoodResponse	0	n/a	n/a	3	9	Cue	AvoidedLoss	True
95.979	3.95	Lose2	1.0	0.0	Yes	3.121	0.0	n/a	GoodResponse	0	n/a	n/a	3	9	Fixation	AvoidedLoss	True
99.928	0.31	Lose2	1.0	0.001	Yes	3.121	-0.001	4.0	GoodResponse	0	0.251	99.179	3	9	Target	AvoidedLoss	True
100.179	0.3	Lose2	1.0	0.001	Yes	3.121	-0.001	4.0	GoodResponse	0	0.251	n/a	3	9	ButtonPress	AvoidedLoss	True
100.244	0.39	Lose2	1.0	n/a	Yes	3.121	n/a	n/a	GoodResponse	0	n/a	n/a	3	9	Blank	AvoidedLoss	True
100.628	1.45	Lose2	1.0	n/a	Yes	3.121	n/a	5.0	GoodResponse	0	0.029	99.657	3	9	Feedback	AvoidedLoss	True
102.077	3.121	Lose2	1.0	n/a	Yes	3.121	n/a	n/a	GoodResponse	0	0.0	n/a	3	9	ISIslide	AvoidedLoss	True
105.226	0.25	Control	1.0	0.0	Yes	3.274	0.026	n/a	GoodResponse	0	n/a	n/a	3	10	Cue	Neutral	True
105.476	4.0	Control	1.0	0.0	Yes	3.274	0.0	n/a	GoodResponse	0	n/a	n/a	3	10	Fixation	Neutral	True
109.474	0.3	Control	1.0	0.002	Yes	3.274	-0.002	4.0	GoodResponse	0	0.253	108.727	3	10	Target	Neutral	True
109.727	0.3	Control	1.0	0.002	Yes	3.274	-0.002	4.0	GoodResponse	0	0.253	n/a	3	10	ButtonPress	Neutral	True
109.774	0.4	Control	1.0	n/a	Yes	3.274	n/a	n/a	GoodResponse	0	n/a	n/a	3	10	Blank	Neutral	True
110.174	1.45	Control	1.0	n/a	Yes	3.274	n/a	5.0	GoodResponse	0	0.044	109.218	3	10	Feedback	Neutral	True
111.624	3.274	Control	1.0	n/a	Yes	3.274	n/a	n/a	GoodResponse	0	0.0	n/a	3	10	ISIslide	Neutral	True
114.922	0.25	Lose2	1.0	0.001	Yes	2.728	0.022	n/a	GoodResponse	0	n/a	n/a	3	11	Cue	AvoidedLoss	True
115.172	4.05	Lose2	1.0	0.0	Yes	2.728	0.0	n/a	GoodResponse	0	n/a	n/a	3	11	Fixation	AvoidedLoss	True
119.221	0.29	Lose2	1.0	0.001	Yes	2.728	-0.001	4.0	GoodResponse	0	0.256	118.477	3	11	Target	AvoidedLoss	True
119.477	0.3	Lose2	1.0	0.001	Yes	2.728	-0.001	4.0	GoodResponse	0	0.256	n/a	3	11	ButtonPress	AvoidedLoss	True
119.521	0.41	Lose2	1.0	n/a	Yes	2.728	n/a	n/a	GoodResponse	0	n/a	n/a	3	11	Blank	AvoidedLoss	True
119.921	1.45	Lose2	1.0	n/a	Yes	2.728	n/a	5.0	GoodResponse	0	0.006	118.927	3	11	Feedback	AvoidedLoss	True
121.37	2.728	Lose2	1.0	n/a	Yes	2.728	n/a	n/a	GoodResponse	0	0.0	n/a	3	11	ISIslide	AvoidedLoss	True
124.119	0.25	Control	0.9231	0.0	No	2.981	0.019	n/a	NoResponse	0	n/a	n/a	3	12	Cue	Neutral	True
124.369	3.9	Control	0.9231	0.0	No	2.981	0.0	n/a	NoResponse	0	n/a	n/a	3	12	Fixation	Neutral	True
128.268	0.28	Control	0.9231	0.001	No	2.981	-0.001	4.0	NoResponse	0	0.341	127.609	3	12	Target	Neutral	True
128.551	0.42	Control	0.9231	n/a	No	2.981	n/a	n/a	NoResponse	0	n/a	n/a	3	12	Blank	Neutral	True
128.609	0.3	Control	0.9231	0.001	No	2.981	-0.001	4.0	NoResponse	0	0.341	n/a	3	12	ButtonPress	Neutral	True
128.967	1.45	Control	0.9231	n/a	No	2.981	n/a	5.0	NoResponse	0	0.031	127.998	3	12	Feedback	Neutral	True
130.417	2.981	Control	0.9231	n/a	No	2.981	n/a	n/a	NoResponse	0	0.0	n/a	3	12	ISIslide	Neutral	True
133.416	0.25	Control	0.9286	0.0	Yes	2.784	0.016	n/a	GoodResponse	0	n/a	n/a	3	13	Cue	Neutral	True
133.666	4.0	Control	0.9286	0.0	Yes	2.784	0.0	n/a	GoodResponse	0	n/a	n/a	3	13	Fixation	Neutral	True
137.664	0.27	Control	0.9286	0.002	Yes	2.784	-0.002	4.0	GoodResponse	0	0.228	136.892	3	13	Target	Neutral	True
137.892	0.3	Control	0.9286	0.002	Yes	2.784	-0.002	4.0	GoodResponse	0	0.228	n/a	3	13	ButtonPress	Neutral	True
137.948	0.43	Control	0.9286	n/a	Yes	2.784	n/a	n/a	GoodResponse	0	n/a	n/a	3	13	Blank	Neutral	True
138.364	1.45	Control	0.9286	n/a	Yes	2.784	n/a	5.0	GoodResponse	0	0.048	137.412	3	13	Feedback	Neutral	True
139.814	2.784	Control	0.9286	n/a	Yes	2.784	n/a	n/a	GoodResponse	0	0.0	n/a	3	13	ISIslide	Neutral	True
142.613	0.25	Win2	0.9333	0.0	Yes	2.687	0.013	n/a	GoodResponse	1	n/a	n/a	4	14	Cue	Win	True
142.863	4.1	Win2	0.9333	0.0	Yes	2.687	0.0	n/a	GoodResponse	1	n/a	n/a	4	14	Fixation	Win	True
146.961	0.26	Win2	0.9333	0.002	Yes	2.687	-0.002	4.0	GoodResponse	1	0.238	146.199	4	14	Target	Win	True
147.199	0.3	Win2	0.9333	0.002	Yes	2.687	-0.002	4.0	GoodResponse	1	0.238	n/a	4	14	ButtonPress	Win	True
147.228	0.44	Win2	0.9333	n/a	Yes	2.687	n/a	n/a	GoodResponse	1	n/a	n/a	4	14	Blank	Win	True
147.661	1.45	Win2	0.9333	n/a	Yes	2.687	n/a	5.0	GoodResponse	1	0.02	146.681	4	14	Feedback	Win	True
149.11	2.687	Win2	0.9333	n/a	Yes	2.687	n/a	n/a	GoodResponse	1	0.0	n/a	4	14	ISIslide	Win	True
151.826	0.25	Control	0.875	0.0	No	2.974	0.026	n/a	NoResponse	0	n/a	n/a	4	15	Cue	Neutral	True
152.076	4.0	Control	0.875	0.0	No	2.974	0.0	n/a	NoResponse	0	n/a	n/a	4	15	Fixation	Neutral	True
156.075	0.25	Control	0.875	0.001	No	2.974	-0.001	4.0	NoResponse	0	0.265	155.34	4	15	Target	Neutral	True
156.324	0.45	Control	0.875	n/a	No	2.974	n/a	n/a	NoResponse	0	n/a	n/a	4	15	Blank	Neutral	True
156.34	0.3	Control	0.875	0.001	No	2.974	-0.001	4.0	NoResponse	0	0.265	n/a	4	15	ButtonPress	Neutral	True
156.774	1.45	Control	0.875	n/a	No	2.974	n/a	5.0	NoResponse	0	0.029	155.803	4	15	Feedback	Neutral	True
158.224	2.974	Control	0.875	n/a	No	2.974	n/a	n/a	NoResponse	0	0.0	n/a	4	15	ISIslide	Neutral	True
161.223	0.25	Win2	0.8824	0.0	Yes	2.877	0.023	n/a	GoodResponse	1	n/a	n/a	5	16	Cue	Win	True
161.473	4.0	Win2	0.8824	0.0	Yes	2.877	0.0	n/a	GoodResponse	1	n/a	n/a	5	16	Fixation	Win	True
165.471	0.24	Win2	0.8824	0.002	Yes	2.877	-0.002	4.0	GoodResponse	1	0.237	164.708	5	16	Target	Win	True
165.708	0.3	Win2	0.8824	0.002	Yes	2.877	-0.002	4.0	GoodResponse	1	0.237	n/a	5	16	ButtonPress	Win	True
165.721	0.46	Win2	0.8824	n/a	Yes	2.877	n/a	n/a	GoodResponse	1	n/a	n/a	5	16	Blank	Win	True
166.171	1.45	Win2	0.8824	n/a	Yes	2.877	n/a	5.0	GoodResponse	1	0.046	165.217	5	16	Feedback	Win	True
167.62	2.877	Win2	0.8824	n/a	Yes	2.877	n/a	n/a	GoodResponse	1	0.0	n/a	5	16	ISIslide	Win	True
170.519	0.25	Lose2	0.8889	0.0	Yes	2.731	0.019	n/a	GoodResponse	0	n/a	n/a	5	17	Cue	AvoidedLoss	True
170.769	3.95	Lose2	0.8889	0.0	Yes	2.731	0.0	n/a	GoodResponse	0	n/a	n/a	5	17	Fixation	AvoidedLoss	True
174.718	0.23	Lose2	0.8889	0.001	Yes	2.731	-0.001	4.0	GoodResponse	0	0.215	173.933	5	17	Target	AvoidedLoss	True
174.933	0.3	Lose2	0.8889	0.001	Yes	2.731	-0.001	4.0	GoodResponse	0	0.215	n/a	5	17	ButtonPress	AvoidedLoss	True
174.951	0.47	Lose2	0.8889	n/a	Yes	2.731	n/a	n/a	GoodResponse	0	n/a	n/a	5	17	Blank	AvoidedLoss	True
175.418	1.45	Lose2	0.8889	n/a	Yes	2.731	n/a	5.0	GoodResponse	0	0.018	174.436	5	17	Feedback	AvoidedLoss	True
176.867	2.731	Lose2	0.8889	n/a	Yes	2.731	n/a	n/a	GoodResponse	0	0.0	n/a	5	17	ISIslide	AvoidedLoss	True
179.616	0.25	Lose2	0.8421	0.0	No	2.734	0.016	n/a	NoResponse	-1	n/a	n/a	4	18	Cue	Loss	True
179.866	4.05	Lose2	0.8421	0.0	No	2.734	0.0	n/a	NoResponse	-1	n/a	n/a	4	18	Fixation	Loss	True
183.915	0.22	Lose2	0.8421	0.001	No	2.734	-0.001	4.0	NoResponse	-1	0.246	183.161	4	18	Target	Loss	True
184.148	0.48	Lose2	0.8421	n/a	No	2.734	n/a	n/a	NoResponse	-1	n/a	n/a	4	18	Blank	Loss	True
184.161	0.3	Lose2	0.8421	0.001	No	2.734	-0.001	4.0	NoResponse	-1	0.246	n/a	4	18	ButtonPress	Loss	True
184.614	1.45	Lose2	0.8421	n/a	No	2.734	n/a	5.0	NoResponse	-1	0.042	183.656	4	18	Feedback	Loss	True
186.064	2.734	Lose2	0.8421	n/a	No	2.734	n/a	n/a	NoResponse	-1	0.0	n/a	4	18	ISIslide	Loss	True
188.813	0.25	Control	0.8	0.0	No	2.937	0.013	n/a	NoResponse	0	n/a	n/a	4	19	Cue	Neutral	True
189.063	3.95	Control	0.8	0.0	No	2.937	0.0	n/a	NoResponse	0	n/a	n/a	4	19	Fixation	Neutral	True
193.011	0.21	Control	0.8	0.002	No	2.937	-0.002	4.0	NoResponse	0	0.266	192.277	4	19	Target	Neutral	True
193.228	0.49	Control	0.8	n/a	No	2.937	n/a	n/a	NoResponse	0	n/a	n/a	4	19	Blank	Neutral	True
193.277	0.3	Control	0.8	0.002	No	2.937	-0.002	4.0	NoResponse	0	0.266	n/a	4	19	ButtonPress	Neutral	True
193.711	1.45	Control	0.8	n/a	No	2.937	n/a	5.0	NoResponse	0	0.018	192.729	4	19	Feedback	Neutral	True
195.161	2.937	Control	0.8	n/a	No	2.937	n/a	n/a	NoResponse	0	0.0	n/a	4	19	ISIslide	Neutral	True
198.126	0.25	Control	0.7619	0.0	No	2.624	0.026	n/a	NoResponse	0	n/a	n/a	4	20	Cue	Neutral	True
198.376	4.05	Control	0.7619	0.0	No	2.624	0.0	n/a	NoResponse	0	n/a	n/a	4	20	Fixation	Neutral	True
202.425	0.2	Control	0.7619	0.001	No	2.624	-0.001	4.0	NoResponse	0	0.223	201.648	4	20	Target	Neutral	True
202.625	0.5	Control	0.7619	n/a	No	2.624	n/a	n/a	NoResponse	0	n/a	n/a	4	20	Blank	Neutral	True
202.648	0.3	Control	0.7619	0.001	No	2.624	-0.001	4.0	NoResponse	0	0.223	n/a	4	20	ButtonPress	Neutral	True
203.124	1.45	Control	0.7619	n/a	No	2.624	n/a	5.0	NoResponse	0	0.019	202.143	4	20	Feedback	Neutral	True
204.574	2.624	Control	0.7619	n/a	No	2.624	n/a	n/a	NoResponse	0	0.0	n/a	4	20	ISIslide	Neutral	True
207.223	0.25	Control	0.7273000000000001	0.0	No	2.777	0.023	n/a	NoResponse	0	n/a	n/a	4	21	Cue	Neutral	True
207.473	4.1	Control	0.7273000000000001	0.0	No	2.777	0.0	n/a	NoResponse	0	n/a	n/a	4	21	Fixation	Neutral	True
211.571	0.19	Control	0.7273000000000001	0.002	No	2.777	-0.002	4.0	NoResponse	0	0.238	210.809	4	21	Target	Neutral	True
211.771	0.51	Control	0.7273000000000001	n/a	No	2.777	n/a	n/a	NoResponse	0	n/a	n/a	4	21	Blank	Neutral	True
211.809	0.3	Control	0.7273000000000001	0.002	No	2.777	-0.002	4.0	NoResponse	0	0.238	n/a	4	21	ButtonPress	Neutral	True
212.271	1.45	Control	0.7273000000000001	n/a	No	2.777	n/a	5.0	NoResponse	0	0.043	211.314	4	21	Feedback	Neutral	True
213.721	2.777	Control	0.7273000000000001	n/a	No	2.777	n/a	n/a	NoResponse	0	0.0	n/a	4	21	ISIslide	Neutral	True
216.52	0.25	Control	0.6957	0.0	No	2.78	0.02	n/a	NoResponse	0	n/a	n/a	4	22	Cue	Neutral	True
216.77	4.0	Control	0.6957	0.0	No	2.78	0.0	n/a	NoResponse	0	n/a	n/a	4	22	Fixation	Neutral	True
220.768	0.18	Control	0.6957	0.002	No	2.78	-0.002	4.0	NoResponse	0	0.234	220.002	4	22	Target	Neutral	True
220.951	0.52	Control	0.6957	n/a	No	2.78	n/a	n/a	NoResponse	0	n/a	n/a	4	22	Blank	Neutral	True
221.002	0.3	Control	0.6957	0.002	No	2.78	-0.002	4.0	NoResponse	0	0.234	n/a	4	22	ButtonPress	Neutral	True
221.468	1.45	Control	0.6957	n/a	No	2.78	n/a	5.0	NoResponse	0	0.017	220.485	4	22	Feedback	Neutral	True
222.917	2.78	Control	0.6957	n/a	No	2.78	n/a	n/a	NoResponse	0	0.0	n/a	4	22	ISIslide	Neutral	True
225.716	0.25	Control	0.6667000000000001	0.0	No	2.784	0.016	n/a	NoResponse	0	n/a	n/a	4	23	Cue	Neutral	True
225.966	3.9	Control	0.6667000000000001	0.0	No	2.784	0.0	n/a	NoResponse	0	n/a	n/a	4	23	Fixation	Neutral	True
229.865	0.17	Control	0.6667000000000001	0.001	No	2.784	-0.001	4.0	NoResponse	0	0.276	229.141	4	23	Target	Neutral	True
230.032	0.53	Control	0.6667000000000001	n/a	No	2.784	n/a	n/a	NoResponse	0	n/a	n/a	4	23	Blank	Neutral	True
230.141	0.3	Control	0.6667000000000001	0.001	No	2.784	-0.001	4.0	NoResponse	0	0.276	n/a	4	23	ButtonPress	Neutral	True
230.565	1.45	Control	0.6667000000000001	n/a	No	2.784	n/a	5.0	NoResponse	0	0.042	229.607	4	23	Feedback	Neutral	True
232.014	2.784	Control	0.6667000000000001	n/a	No	2.784	n/a	n/a	NoResponse	0	0.0	n/a	4	23	ISIslide	Neutral	True
234.813	0.25	Win2	0.64	0.0	No	3.137	0.013	n/a	NoResponse	0	n/a	n/a	4	24	Cue	MissedWin	True
235.063	3.95	Win2	0.64	0.0	No	3.137	0.0	n/a	NoResponse	0	n/a	n/a	4	24	Fixation	MissedWin	True
239.012	0.16	Win2	0.64	0.001	No	3.137	-0.001	4.0	NoResponse	0	0.211	238.223	4	24	Target	MissedWin	True
239.178	0.54	Win2	0.64	n/a	No	3.137	n/a	n/a	NoResponse	0	n/a	n/a	4	24	Blank	MissedWin	True
239.223	0.3	Win2	0.64	0.001	No	3.137	-0.001	4.0	NoResponse	0	0.211	n/a	4	24	ButtonPress	MissedWin	True
239.711	1.45	Win2	0.64	n/a	No	3.137	n/a	5.0	NoResponse	0	0.017	238.728	4	24	Feedback	MissedWin	True
241.161	3.137	Win2	0.64	n/a	No	3.137	n/a	n/a	NoResponse	0	0.0	n/a	4	24	ISIslide	MissedWin	True
244.326	0.25	Win2	0.6154	0.001	No	3.074	0.026	n/a	NoResponse	0	n/a	n/a	4	25	Cue	MissedWin	True
244.576	4.0	Win2	0.6154	0.0	No	3.074	0.0	n/a	NoResponse	0	n/a	n/a	4	25	Fixation	MissedWin	True
248.575	0.17	Win2	0.6154	0.001	No	3.074	-0.001	4.0	NoResponse	0	0.221	247.796	4	25	Target	MissedWin	True
248.742	0.53	Win2	0.6154	n/a	No	3.074	n/a	n/a	NoResponse	0	n/a	n/a	4	25	Blank	MissedWin	True
248.796	0.3	Win2	0.6154	0.001	No	3.074	-0.001	4.0	NoResponse	0	0.221	n/a	4	25	ButtonPress	MissedWin	True
249.275	1.45	Win2	0.6154	n/a	No	3.074	n/a	5.0	NoResponse	0	0.014	248.289	4	25	Feedback	MissedWin	True
250.724	3.074	Win2	0.6154	n/a	No	3.074	n/a	n/a	NoResponse	0	0.0	n/a	4	25	ISIslide	MissedWin	True
253.823	0.25	Win2	0.5926	0.0	No	2.927	0.023	n/a	NoResponse	0	n/a	n/a	4	26	Cue	MissedWin	True
254.073	3.95	Win2	0.5926	0.0	No	2.927	0.0	n/a	NoResponse	0	n/a	n/a	4	26	Fixation	MissedWin	True
258.022	0.18	Win2	0.5926	0.001	No	2.927	-0.001	4.0	NoResponse	0	0.223	257.245	4	26	Target	MissedWin	True
258.205	0.52	Win2	0.5926	n/a	No	2.927	n/a	n/a	NoResponse	0	n/a	n/a	4	26	Blank	MissedWin	True
258.245	0.3	Win2	0.5926	0.001	No	2.927	-0.001	4.0	NoResponse	0	0.223	n/a	4	26	ButtonPress	MissedWin	True
258.721	1.45	Win2	0.5926	n/a	No	2.927	n/a	5.0	NoResponse	0	0.031	257.752	4	26	Feedback	MissedWin	True
260.171	2.927	Win2	0.5926	n/a	No	2.927	n/a	n/a	NoResponse	0	0.0	n/a	4	26	ISIslide	MissedWin	True
263.12	0.25	Lose2	0.5714	0.0	No	2.83	0.02	n/a	NoResponse	-1	n/a	n/a	3	27	Cue	Loss	True
263.37	4.05	Lose2	0.5714	0.0	No	2.83	0.0	n/a	NoResponse	-1	n/a	n/a	3	27	Fixation	Loss	True
267.418	0.19	Lose2	0.5714	0.002	No	2.83	-0.002	4.0	NoResponse	-1	0.217	266.635	3	27	Target	Loss	True
267.618	0.51	Lose2	0.5714	n/a	No	2.83	n/a	n/a	NoResponse	-1	n/a	n/a	3	27	Blank	Loss	True
267.635	0.3	Lose2	0.5714	0.002	No	2.83	-0.002	4.0	NoResponse	-1	0.217	n/a	3	27	ButtonPress	Loss	True
268.118	1.45	Lose2	0.5714	n/a	No	2.83	n/a	5.0	NoResponse	-1	0.049	267.167	3	27	Feedback	Loss	True
269.567	2.83	Lose2	0.5714	n/a	No	2.83	n/a	n/a	NoResponse	-1	0.0	n/a	3	27	ISIslide	Loss	True
272.416	0.25	Control	0.5517	0.001	No	2.834	0.016	n/a	NoResponse	0	n/a	n/a	3	28	Cue	Neutral	True
272.666	4.05	Control	0.5517	0.0	No	2.834	0.0	n/a	NoResponse	0	n/a	n/a	3	28	Fixation	Neutral	True
276.715	0.2	Control	0.5517	0.001	No	2.834	-0.001	4.0	NoResponse	0	0.264	275.979	3	28	Target	Neutral	True
276.915	0.5	Control	0.5517	n/a	No	2.834	n/a	n/a	NoResponse	0	n/a	n/a	3	28	Blank	Neutral	True
276.979	0.3	Control	0.5517	0.001	No	2.834	-0.001	4.0	NoResponse	0	0.264	n/a	3	28	ButtonPress	Neutral	True
277.415	1.45	Control	0.5517	n/a	No	2.834	n/a	5.0	NoResponse	0	0.019	276.434	3	28	Feedback	Neutral	True
278.864	2.834	Control	0.5517	n/a	No	2.834	n/a	n/a	NoResponse	0	0.0	n/a	3	28	ISIslide	Neutral	True
281.73	0.25	Lose2	0.5333	0.0	No	2.82	0.03	n/a	NoResponse	-1	n/a	n/a	2	29	Cue	Loss	True
281.98	3.95	Lose2	0.5333	0.0	No	2.82	0.0	n/a	NoResponse	-1	n/a	n/a	2	29	Fixation	Loss	True
285.928	0.21	Lose2	0.5333	0.002	No	2.82	-0.002	4.0	NoResponse	-1	0.231	285.159	2	29	Target	Loss	True
286.145	0.49	Lose2	0.5333	n/a	No	2.82	n/a	n/a	NoResponse	-1	n/a	n/a	2	29	Blank	Loss	True
286.159	0.3	Lose2	0.5333	0.002	No	2.82	-0.002	4.0	NoResponse	-1	0.231	n/a	2	29	ButtonPress	Loss	True
286.628	1.45	Lose2	0.5333	n/a	No	2.82	n/a	5.0	NoResponse	-1	0.026	285.654	2	29	Feedback	Loss	True
288.078	2.82	Lose2	0.5333	n/a	No	2.82	n/a	n/a	NoResponse	-1	0.0	n/a	2	29	ISIslide	Loss	True
290.927	0.25	Win2	0.5161	0.0	No	2.773	0.027	n/a	LatePress	0	n/a	n/a	2	30	Cue	MissedWin	True
291.176	3.9	Win2	0.5161	0.001	No	2.773	-0.001	n/a	LatePress	0	n/a	n/a	2	30	Fixation	MissedWin	True
295.075	0.22	Win2	0.5161	0.002	No	2.773	-0.002	4.0	LatePress	0	0.22	294.295	2	30	Target	MissedWin	True
295.295	0.3	Win2	0.5161	0.002	No	2.773	-0.002	4.0	LatePress	0	0.22	n/a	2	30	ButtonPress	MissedWin	True
295.308	0.48	Win2	0.5161	n/a	No	2.773	n/a	n/a	LatePress	0	n/a	n/a	2	30	Blank	MissedWin	True
295.775	1.45	Win2	0.5161	n/a	No	2.773	n/a	5.0	LatePress	0	0.001	294.776	2	30	Feedback	MissedWin	True
297.224	2.773	Win2	0.5161	n/a	No	2.773	n/a	n/a	LatePress	0	0.0	n/a	2	30	ISIslide	MissedWin	True
300.023	0.25	Lose2	0.5312	0.0	Yes	2.827	0.023	n/a	GoodResponse	0	n/a	n/a	2	31	Cue	AvoidedLoss	True
300.273	4.05	Lose2	0.5312	0.0	Yes	2.827	0.0	n/a	GoodResponse	0	n/a	n/a	2	31	Fixation	AvoidedLoss	True
304.322	0.23	Lose2	0.5312	0.001	Yes	2.827	-0.001	4.0	GoodResponse	0	0.202	303.524	2	31	Target	AvoidedLoss	True
304.524	0.3	Lose2	0.5312	0.001	Yes	2.827	-0.001	4.0	GoodResponse	0	0.202	n/a	2	31	ButtonPress	AvoidedLoss	True
304.555	0.47	Lose2	0.5312	n/a	Yes	2.827	n/a	n/a	GoodResponse	0	n/a	n/a	2	31	Blank	AvoidedLoss	True
305.022	1.45	Lose2	0.5312	n/a	Yes	2.827	n/a	5.0	GoodResponse	0	0.023	304.045	2	31	Feedback	AvoidedLoss	True
306.471	2.827	Lose2	0.5312	n/a	Yes	2.827	n/a	n/a	GoodResponse	0	0.0	n/a	2	31	ISIslide	AvoidedLoss	True
309.32	0.25	Lose2	0.5455	0.0	Yes	2.63	0.02	n/a	GoodResponse	0	n/a	n/a	2	32	Cue	AvoidedLoss	True
309.57	4.15	Lose2	0.5455	0.0	Yes	2.63	0.0	n/a	GoodResponse	0	n/a	n/a	2	32	Fixation	AvoidedLoss	True
313.718	0.24	Lose2	0.5455	0.002	Yes	2.63	-0.002	4.0	GoodResponse	0	0.229	312.947	2	32	Target	AvoidedLoss	True
313.947	0.3	Lose2	0.5455	0.002	Yes	2.63	-0.002	4.0	GoodResponse	0	0.229	n/a	2	32	ButtonPress	AvoidedLoss	True
313.968	0.46	Lose2	0.5455	n/a	Yes	2.63	n/a	n/a	GoodResponse	0	n/a	n/a	2	32	Blank	AvoidedLoss	True
314.418	1.45	Lose2	0.5455	n/a	Yes	2.63	n/a	5.0	GoodResponse	0	0.04	313.458	2	32	Feedback	AvoidedLoss	True
315.868	2.63	Lose2	0.5455	n/a	Yes	2.63	n/a	n/a	GoodResponse	0	0.0	n/a	2	32	ISIslide	AvoidedLoss	True
318.517	0.25	Win2	0.5588000000000001	0.0	Yes	2.683	0.017	n/a	GoodResponse	1	n/a	n/a	3	33	Cue	Win	True
318.767	4.0	Win2	0.5588000000000001	0.0	Yes	2.683	0.0	n/a	GoodResponse	1	n/a	n/a	3	33	Fixation	Win	True
322.765	0.25	Win2	0.5588000000000001	0.002	Yes	2.683	-0.002	4.0	GoodResponse	1	0.219	321.984	3	33	Target	Win	True
322.984	0.3	Win2	0.5588000000000001	0.002	Yes	2.683	-0.002	4.0	GoodResponse	1	0.219	n/a	3	33	ButtonPress	Win	True
323.015	0.45	Win2	0.5588000000000001	n/a	Yes	2.683	n/a	n/a	GoodResponse	1	n/a	n/a	3	33	Blank	Win	True
323.465	1.45	Win2	0.5588000000000001	n/a	Yes	2.683	n/a	5.0	GoodResponse	1	0.018	322.483	3	33	Feedback	Win	True
324.914	2.683	Win2	0.5588000000000001	n/a	Yes	2.683	n/a	n/a	GoodResponse	1	0.0	n/a	3	33	ISIslide	Win	True
327.614	0.25	Lose2	0.5714	0.0	Yes	2.636	0.014	n/a	GoodResponse	0	n/a	n/a	3	34	Cue	AvoidedLoss	True
327.863	4.05	Lose2	0.5714	0.001	Yes	2.636	-0.001	n/a	GoodResponse	0	n/a	n/a	3	34	Fixation	AvoidedLoss	True
331.912	0.26	Lose2	0.5714	0.002	Yes	2.636	-0.002	4.0	GoodResponse	0	0.178	331.09	3	34	Target	AvoidedLoss	True
332.09	0.3	Lose2	0.5714	0.002	Yes	2.636	-0.002	4.0	GoodResponse	0	0.178	n/a	3	34	ButtonPress	AvoidedLoss	True
332.179	0.44	Lose2	0.5714	n/a	Yes	2.636	n/a	n/a	GoodResponse	0	n/a	n/a	3	34	Blank	AvoidedLoss	True
332.612	1.45	Lose2	0.5714	n/a	Yes	2.636	n/a	5.0	GoodResponse	0	0.042	331.654	3	34	Feedback	AvoidedLoss	True
334.061	2.636	Lose2	0.5714	n/a	Yes	2.636	n/a	n/a	GoodResponse	0	0.0	n/a	3	34	ISIslide	AvoidedLoss	True
336.727	0.25	Lose2	0.5832999999999999	0.0	Yes	2.673	0.027	n/a	GoodResponse	0	n/a	n/a	3	35	Cue	AvoidedLoss	True
336.977	4.0	Lose2	0.5832999999999999	0.0	Yes	2.673	0.0	n/a	GoodResponse	0	n/a	n/a	3	35	Fixation	AvoidedLoss	True
340.975	0.27	Lose2	0.5832999999999999	0.002	Yes	2.673	-0.002	4.0	GoodResponse	0	0.213	340.188	3	35	Target	AvoidedLoss	True
341.188	0.3	Lose2	0.5832999999999999	0.002	Yes	2.673	-0.002	4.0	GoodResponse	0	0.213	n/a	3	35	ButtonPress	AvoidedLoss	True
341.259	0.43	Lose2	0.5832999999999999	n/a	Yes	2.673	n/a	n/a	GoodResponse	0	n/a	n/a	3	35	Blank	AvoidedLoss	True
341.675	1.45	Lose2	0.5832999999999999	n/a	Yes	2.673	n/a	5.0	GoodResponse	0	0.007	340.682	3	35	Feedback	AvoidedLoss	True
343.125	2.673	Lose2	0.5832999999999999	n/a	Yes	2.673	n/a	n/a	GoodResponse	0	0.0	n/a	3	35	ISIslide	AvoidedLoss	True
345.824	0.25	Control	0.5676	0.0	No	2.676	0.024	n/a	NoResponse	0	n/a	n/a	3	36	Cue	Neutral	True
346.074	4.0	Control	0.5676	0.0	No	2.676	0.0	n/a	NoResponse	0	n/a	n/a	3	36	Fixation	Neutral	True
350.072	0.28	Control	0.5676	0.002	No	2.676	-0.002	4.0	NoResponse	0	0.303	349.375	3	36	Target	Neutral	True
350.355	0.42	Control	0.5676	n/a	No	2.676	n/a	n/a	NoResponse	0	n/a	n/a	3	36	Blank	Neutral	True
350.375	0.3	Control	0.5676	0.002	No	2.676	-0.002	4.0	NoResponse	0	0.303	n/a	3	36	ButtonPress	Neutral	True
350.772	1.45	Control	0.5676	n/a	No	2.676	n/a	5.0	NoResponse	0	0.027	349.799	3	36	Feedback	Neutral	True
352.221	2.676	Control	0.5676	n/a	No	2.676	n/a	n/a	NoResponse	0	0.0	n/a	3	36	ISIslide	Neutral	True
354.92	0.25	Win2	0.5789	0.001	Yes	2.88	0.02	n/a	GoodResponse	1	n/a	n/a	4	37	Cue	Win	True
355.17	4.0	Win2	0.5789	0.0	Yes	2.88	0.0	n/a	GoodResponse	1	n/a	n/a	4	37	Fixation	Win	True
359.169	0.29	Win2	0.5789	0.001	Yes	2.88	-0.001	4.0	GoodResponse	1	0.289	358.458	4	37	Target	Win	True
359.458	0.3	Win2	0.5789	0.001	Yes	2.88	-0.001	4.0	GoodResponse	1	0.289	n/a	4	37	ButtonPress	Win	True
359.469	0.41	Win2	0.5789	n/a	Yes	2.88	n/a	n/a	GoodResponse	1	n/a	n/a	4	37	Blank	Win	True
359.869	1.45	Win2	0.5789	n/a	Yes	2.88	n/a	5.0	GoodResponse	1	0.006	358.875	4	37	Feedback	Win	True
361.318	2.88	Win2	0.5789	n/a	Yes	2.88	n/a	n/a	GoodResponse	1	0.0	n/a	4	37	ISIslide	Win	True
364.217	0.25	Lose2	0.5897	0.0	Yes	2.833	0.017	n/a	GoodResponse	0	n/a	n/a	4	38	Cue	AvoidedLoss	True
364.467	3.95	Lose2	0.5897	0.0	Yes	2.833	0.0	n/a	GoodResponse	0	n/a	n/a	4	38	Fixation	AvoidedLoss	True
368.416	0.3	Lose2	0.5897	0.001	Yes	2.833	-0.001	4.0	GoodResponse	0	0.24	367.656	4	38	Target	AvoidedLoss	True
368.656	0.3	Lose2	0.5897	0.001	Yes	2.833	-0.001	4.0	GoodResponse	0	0.24	n/a	4	38	ButtonPress	AvoidedLoss	True
368.716	0.4	Lose2	0.5897	n/a	Yes	2.833	n/a	n/a	GoodResponse	0	n/a	n/a	4	38	Blank	AvoidedLoss	True
369.115	1.45	Lose2	0.5897	n/a	Yes	2.833	n/a	5.0	GoodResponse	0	0.026	368.141	4	38	Feedback	AvoidedLoss	True
370.565	2.833	Lose2	0.5897	n/a	Yes	2.833	n/a	n/a	GoodResponse	0	0.0	n/a	4	38	ISIslide	AvoidedLoss	True
373.414	0.25	Win2	0.6	0.0	Yes	2.986	0.014	n/a	GoodResponse	1	n/a	n/a	5	39	Cue	Win	True
373.664	4.1	Win2	0.6	0.0	Yes	2.986	0.0	n/a	GoodResponse	1	n/a	n/a	5	39	Fixation	Win	True
377.762	0.31	Win2	0.6	0.002	Yes	2.986	-0.002	4.0	GoodResponse	1	0.261	377.023	5	39	Target	Win	True
378.023	0.3	Win2	0.6	0.002	Yes	2.986	-0.002	4.0	GoodResponse	1	0.261	n/a	5	39	ButtonPress	Win	True
378.079	0.39	Win2	0.6	n/a	Yes	2.986	n/a	n/a	GoodResponse	1	n/a	n/a	5	39	Blank	Win	True
378.462	1.45	Win2	0.6	n/a	Yes	2.986	n/a	5.0	GoodResponse	1	0.045	377.507	5	39	Feedback	Win	True
379.912	2.986	Win2	0.6	n/a	Yes	2.986	n/a	n/a	GoodResponse	1	0.0	n/a	5	39	ISIslide	Win	True
382.927	0.25	Win2	0.6098	0.0	Yes	2.723	0.027	n/a	GoodResponse	1	n/a	n/a	6	40	Cue	Win	True
383.177	3.95	Win2	0.6098	0.0	Yes	2.723	0.0	n/a	GoodResponse	1	n/a	n/a	6	40	Fixation	Win	True
387.126	0.32	Win2	0.6098	0.001	Yes	2.723	-0.001	4.0	GoodResponse	1	0.272	386.398	6	40	Target	Win	True
387.398	0.3	Win2	0.6098	0.001	Yes	2.723	-0.001	4.0	GoodResponse	1	0.272	n/a	6	40	ButtonPress	Win	True
387.459	0.38	Win2	0.6098	n/a	Yes	2.723	n/a	n/a	GoodResponse	1	n/a	n/a	6	40	Blank	Win	True
387.825	1.45	Win2	0.6098	n/a	Yes	2.723	n/a	5.0	GoodResponse	1	0.047	386.872	6	40	Feedback	Win	True
389.275	2.723	Win2	0.6098	n/a	Yes	2.723	n/a	n/a	GoodResponse	1	0.0	n/a	6	40	ISIslide	Win	True
392.024	0.25	Win2	0.619	0.0	Yes	2.776	0.024	n/a	GoodResponse	1	n/a	n/a	7	41	Cue	Win	True
392.274	3.9	Win2	0.619	0.0	Yes	2.776	0.0	n/a	GoodResponse	1	n/a	n/a	7	41	Fixation	Win	True
396.172	0.33	Win2	0.619	0.002	Yes	2.776	-0.002	4.0	GoodResponse	1	0.255	395.427	7	41	Target	Win	True
396.427	0.3	Win2	0.619	0.002	Yes	2.776	-0.002	4.0	GoodResponse	1	0.255	n/a	7	41	ButtonPress	Win	True
396.506	0.37	Win2	0.619	n/a	Yes	2.776	n/a	n/a	GoodResponse	1	n/a	n/a	7	41	Blank	Win	True
396.872	1.45	Win2	0.619	n/a	Yes	2.776	n/a	5.0	GoodResponse	1	0.024	395.896	7	41	Feedback	Win	True
398.322	2.776	Win2	0.619	n/a	Yes	2.776	n/a	n/a	GoodResponse	1	0.0	n/a	7	41	ISIslide	Win	True
401.121	0.25	Control	0.6279	0.0	Yes	2.929	0.021	n/a	GoodResponse	0	n/a	n/a	7	42	Cue	Neutral	True
401.371	3.85	Control	0.6279	0.0	Yes	2.929	0.0	n/a	GoodResponse	0	n/a	n/a	7	42	Fixation	Neutral	True
405.219	0.34	Control	0.6279	0.002	Yes	2.929	-0.002	4.0	GoodResponse	0	0.223	404.442	7	42	Target	Neutral	True
405.442	0.3	Control	0.6279	0.002	Yes	2.929	-0.002	4.0	GoodResponse	0	0.223	n/a	7	42	ButtonPress	Neutral	True
405.569	0.36	Control	0.6279	n/a	Yes	2.929	n/a	n/a	GoodResponse	0	n/a	n/a	7	42	Blank	Neutral	True
405.919	1.45	Control	0.6279	n/a	Yes	2.929	n/a	5.0	GoodResponse	0	0.002	404.921	7	42	Feedback	Neutral	True
407.368	2.929	Control	0.6279	n/a	Yes	2.929	n/a	n/a	GoodResponse	0	0.0	n/a	7	42	ISIslide	Neutral	True
410.317	0.25	Win2	0.6364	0.001	Yes	3.183	0.017	n/a	GoodResponse	1	n/a	n/a	8	43	Cue	Win	True
410.567	4.0	Win2	0.6364	0.0	Yes	3.183	0.0	n/a	GoodResponse	1	n/a	n/a	8	43	Fixation	Win	True
414.566	0.35	Win2	0.6364	0.001	Yes	3.183	-0.001	4.0	GoodResponse	1	0.241	413.807	8	43	Target	Win	True
414.807	0.3	Win2	0.6364	0.001	Yes	3.183	-0.001	4.0	GoodResponse	1	0.241	n/a	8	43	ButtonPress	Win	True
414.916	0.35	Win2	0.6364	n/a	Yes	3.183	n/a	n/a	GoodResponse	1	n/a	n/a	8	43	Blank	Win	True
415.266	1.45	Win2	0.6364	n/a	Yes	3.183	n/a	5.0	GoodResponse	1	0.021	414.287	8	43	Feedback	Win	True
416.715	3.183	Win2	0.6364	n/a	Yes	3.183	n/a	n/a	GoodResponse	1	0.0	n/a	8	43	ISIslide	Win	True
419.914	0.25	Win2	0.6444	0.0	Yes	2.986	0.014	n/a	GoodResponse	1	n/a	n/a	9	44	Cue	Win	True
420.164	4.0	Win2	0.6444	0.0	Yes	2.986	0.0	n/a	GoodResponse	1	n/a	n/a	9	44	Fixation	Win	True
424.162	0.36	Win2	0.6444	0.002	Yes	2.986	-0.002	4.0	GoodResponse	1	0.191	423.353	9	44	Target	Win	True
424.353	0.3	Win2	0.6444	0.002	Yes	2.986	-0.002	4.0	GoodResponse	1	0.191	n/a	9	44	ButtonPress	Win	True
424.529	0.34	Win2	0.6444	n/a	Yes	2.986	n/a	n/a	GoodResponse	1	n/a	n/a	9	44	Blank	Win	True
424.862	1.45	Win2	0.6444	n/a	Yes	2.986	n/a	5.0	GoodResponse	1	0.034	423.896	9	44	Feedback	Win	True
426.312	2.986	Win2	0.6444	n/a	Yes	2.986	n/a	n/a	GoodResponse	1	0.0	n/a	9	44	ISIslide	Win	True
429.327	0.25	Control	0.6522	0.0	Yes	2.873	0.027	n/a	GoodResponse	0	n/a	n/a	9	45	Cue	Neutral	True
429.577	4.1	Control	0.6522	0.0	Yes	2.873	0.0	n/a	GoodResponse	0	n/a	n/a	9	45	Fixation	Neutral	True
433.676	0.37	Control	0.6522	0.001	Yes	2.873	-0.001	4.0	GoodResponse	0	0.263	432.939	9	45	Target	Neutral	True
433.939	0.3	Control	0.6522	0.001	Yes	2.873	-0.001	4.0	GoodResponse	0	0.263	n/a	9	45	ButtonPress	Neutral	True
434.059	0.33	Control	0.6522	n/a	Yes	2.873	n/a	n/a	GoodResponse	0	n/a	n/a	9	45	Blank	Neutral	True
434.376	1.45	Control	0.6522	n/a	Yes	2.873	n/a	5.0	GoodResponse	0	0.032	433.408	9	45	Feedback	Neutral	True
435.825	2.873	Control	0.6522	n/a	Yes	2.873	n/a	n/a	GoodResponse	0	0.0	n/a	9	45	ISIslide	Neutral	True
438.724	0.25	Lose2	0.6596	0.0	Yes	3.376	0.024	n/a	GoodResponse	0	n/a	n/a	9	46	Cue	AvoidedLoss	True
438.974	4.0	Lose2	0.6596	0.0	Yes	3.376	0.0	n/a	GoodResponse	0	n/a	n/a	9	46	Fixation	AvoidedLoss	True
442.972	0.38	Lose2	0.6596	0.002	Yes	3.376	-0.002	4.0	GoodResponse	0	0.232	442.204	9	46	Target	AvoidedLoss	True
443.204	0.3	Lose2	0.6596	0.002	Yes	3.376	-0.002	4.0	GoodResponse	0	0.232	n/a	9	46	ButtonPress	AvoidedLoss	True
443.356	0.32	Lose2	0.6596	n/a	Yes	3.376	n/a	n/a	GoodResponse	0	n/a	n/a	9	46	Blank	AvoidedLoss	True
443.672	1.45	Lose2	0.6596	n/a	Yes	3.376	n/a	5.0	GoodResponse	0	0.007	442.679	9	46	Feedback	AvoidedLoss	True
445.122	3.376	Lose2	0.6596	n/a	Yes	3.376	n/a	n/a	GoodResponse	0	0.0	n/a	9	46	ISIslide	AvoidedLoss	True
448.52	0.25	Lose2	0.6667000000000001	0.001	Yes	2.68	0.02	n/a	GoodResponse	0	n/a	n/a	9	47	Cue	AvoidedLoss	True
448.77	4.0	Lose2	0.6667000000000001	0.001	Yes	2.68	0.0	n/a	GoodResponse	0	n/a	n/a	9	47	Fixation	AvoidedLoss	True
452.769	0.38	Lose2	0.6667000000000001	0.001	Yes	2.68	-0.001	4.0	GoodResponse	0	0.233	452.002	9	47	Target	AvoidedLoss	True
453.002	0.3	Lose2	0.6667000000000001	0.001	Yes	2.68	-0.001	4.0	GoodResponse	0	0.233	n/a	9	47	ButtonPress	AvoidedLoss	True
453.152	0.32	Lose2	0.6667000000000001	n/a	Yes	2.68	n/a	n/a	GoodResponse	0	n/a	n/a	9	47	Blank	AvoidedLoss	True
453.469	1.45	Lose2	0.6667000000000001	n/a	Yes	2.68	n/a	5.0	GoodResponse	0	0.012	452.481	9	47	Feedback	AvoidedLoss	True
454.918	2.68	Lose2	0.6667000000000001	n/a	Yes	2.68	n/a	n/a	GoodResponse	0	0.0	n/a	9	47	ISIslide	AvoidedLoss	True
457.617	0.25	Lose2	0.6735	0.0	Yes	3.033	0.017	n/a	GoodResponse	0	n/a	n/a	9	48	Cue	AvoidedLoss	True
457.867	3.95	Lose2	0.6735	0.0	Yes	3.033	0.0	n/a	GoodResponse	0	n/a	n/a	9	48	Fixation	AvoidedLoss	True
461.816	0.37	Lose2	0.6735	0.001	Yes	3.033	-0.001	4.0	GoodResponse	0	0.31	461.126	9	48	Target	AvoidedLoss	True
462.126	0.3	Lose2	0.6735	0.001	Yes	3.033	-0.001	4.0	GoodResponse	0	0.31	n/a	9	48	ButtonPress	AvoidedLoss	True
462.199	0.33	Lose2	0.6735	n/a	Yes	3.033	n/a	n/a	GoodResponse	0	n/a	n/a	9	48	Blank	AvoidedLoss	True
462.516	1.45	Lose2	0.6735	n/a	Yes	3.033	n/a	5.0	GoodResponse	0	0.038	461.554	9	48	Feedback	AvoidedLoss	True
463.965	3.033	Lose2	0.6735	n/a	Yes	3.033	n/a	n/a	GoodResponse	0	0.0	n/a	9	48	ISIslide	AvoidedLoss	True
467.014	0.25	Control	0.68	0.0	Yes	2.886	0.014	n/a	GoodResponse	0	n/a	n/a	9	49	Cue	Neutral	True
467.264	4.0	Control	0.68	0.0	Yes	2.886	0.0	n/a	GoodResponse	0	n/a	n/a	9	49	Fixation	Neutral	True
471.262	0.36	Control	0.68	0.002	Yes	2.886	-0.002	4.0	GoodResponse	0	0.24	470.502	9	49	Target	Neutral	True
471.502	0.3	Control	0.68	0.002	Yes	2.886	-0.002	4.0	GoodResponse	0	0.24	n/a	9	49	ButtonPress	Neutral	True
471.629	0.34	Control	0.68	n/a	Yes	2.886	n/a	n/a	GoodResponse	0	n/a	n/a	9	49	Blank	Neutral	True
471.962	1.45	Control	0.68	n/a	Yes	2.886	n/a	5.0	GoodResponse	0	0.007	470.969	9	49	Feedback	Neutral	True
473.412	2.886	Control	0.68	n/a	Yes	2.886	n/a	n/a	GoodResponse	0	0.0	n/a	9	49	ISIslide	Neutral	True
476.327	0.25	Control	0.6862999999999999	0.0	Yes	2.773	0.027	n/a	GoodResponse	0	n/a	n/a	9	50	Cue	Neutral	True
476.577	4.0	Control	0.6862999999999999	0.0	Yes	2.773	0.0	n/a	GoodResponse	0	n/a	n/a	9	50	Fixation	Neutral	True
480.576	0.35	Control	0.6862999999999999	0.001	Yes	2.773	-0.001	4.0	GoodResponse	0	0.246	479.822	9	50	Target	Neutral	True
480.822	0.3	Control	0.6862999999999999	0.001	Yes	2.773	-0.001	4.0	GoodResponse	0	0.246	n/a	9	50	ButtonPress	Neutral	True
480.926	0.35	Control	0.6862999999999999	n/a	Yes	2.773	n/a	n/a	GoodResponse	0	n/a	n/a	9	50	Blank	Neutral	True
481.276	1.45	Control	0.6862999999999999	n/a	Yes	2.773	n/a	5.0	GoodResponse	0	0.01	480.286	9	50	Feedback	Neutral	True
482.725	2.773	Control	0.6862999999999999	n/a	Yes	2.773	n/a	n/a	GoodResponse	0	0.0	n/a	9	50	ISIslide	Neutral	True
485.524	0.25	Control	0.6923	0.0	Yes	2.726	0.024	n/a	GoodResponse	0	n/a	n/a	9	51	Cue	Neutral	True
485.774	3.95	Control	0.6923	0.0	Yes	2.726	0.0	n/a	GoodResponse	0	n/a	n/a	9	51	Fixation	Neutral	True
489.722	0.34	Control	0.6923	0.002	Yes	2.726	-0.002	4.0	GoodResponse	0	0.217	488.939	9	51	Target	Neutral	True
489.939	0.3	Control	0.6923	0.002	Yes	2.726	-0.002	4.0	GoodResponse	0	0.217	n/a	9	51	ButtonPress	Neutral	True
490.072	0.36	Control	0.6923	n/a	Yes	2.726	n/a	n/a	GoodResponse	0	n/a	n/a	9	51	Blank	Neutral	True
490.422	1.45	Control	0.6923	n/a	Yes	2.726	n/a	5.0	GoodResponse	0	0.035	489.457	9	51	Feedback	Neutral	True
491.872	2.726	Control	0.6923	n/a	Yes	2.726	n/a	n/a	GoodResponse	0	0.0	n/a	9	51	ISIslide	Neutral	True
494.621	0.25	Control	0.6981	0.0	Yes	2.629	0.021	n/a	GoodResponse	0	n/a	n/a	9	52	Cue	Neutral	True
494.871	4.05	Control	0.6981	0.0	Yes	2.629	0.0	n/a	GoodResponse	0	n/a	n/a	9	52	Fixation	Neutral	True
498.919	0.33	Control	0.6981	0.002	Yes	2.629	-0.002	4.0	GoodResponse	0	0.239	498.158	9	52	Target	Neutral	True
499.158	0.3	Control	0.6981	0.002	Yes	2.629	-0.002	4.0	GoodResponse	0	0.239	n/a	9	52	ButtonPress	Neutral	True
499.252	0.37	Control	0.6981	n/a	Yes	2.629	n/a	n/a	GoodResponse	0	n/a	n/a	9	52	Blank	Neutral	True
499.619	1.45	Control	0.6981	n/a	Yes	2.629	n/a	5.0	GoodResponse	0	0.007	498.626	9	52	Feedback	Neutral	True
501.068	2.629	Control	0.6981	n/a	Yes	2.629	n/a	n/a	GoodResponse	0	0.0	n/a	9	52	ISIslide	Neutral	True
503.718	0.25	Win2	0.7037	0.0	Yes	2.932	0.018	n/a	GoodResponse	1	n/a	n/a	10	53	Cue	Win	True
503.967	4.05	Win2	0.7037	0.001	Yes	2.932	-0.001	n/a	GoodResponse	1	n/a	n/a	10	53	Fixation	Win	True
508.016	0.32	Win2	0.7037	0.002	Yes	2.932	-0.002	4.0	GoodResponse	1	0.244	507.26	10	53	Target	Win	True
508.26	0.3	Win2	0.7037	0.002	Yes	2.932	-0.002	4.0	GoodResponse	1	0.244	n/a	10	53	ButtonPress	Win	True
508.349	0.38	Win2	0.7037	n/a	Yes	2.932	n/a	n/a	GoodResponse	1	n/a	n/a	10	53	Blank	Win	True
508.716	1.45	Win2	0.7037	n/a	Yes	2.932	n/a	5.0	GoodResponse	1	0.032	507.748	10	53	Feedback	Win	True
510.165	2.932	Win2	0.7037	n/a	Yes	2.932	n/a	n/a	GoodResponse	1	0.0	n/a	10	53	ISIslide	Win	True
513.114	0.25	Win2	0.7091	0.0	Yes	2.736	0.014	n/a	GoodResponse	1	n/a	n/a	11	54	Cue	Win	True
513.364	3.95	Win2	0.7091	0.0	Yes	2.736	0.0	n/a	GoodResponse	1	n/a	n/a	11	54	Fixation	Win	True
517.313	0.31	Win2	0.7091	0.001	Yes	2.736	-0.001	4.0	GoodResponse	1	0.249	516.562	11	54	Target	Win	True
517.562	0.3	Win2	0.7091	0.001	Yes	2.736	-0.001	4.0	GoodResponse	1	0.249	n/a	11	54	ButtonPress	Win	True
517.629	0.39	Win2	0.7091	n/a	Yes	2.736	n/a	n/a	GoodResponse	1	n/a	n/a	11	54	Blank	Win	True
518.012	1.45	Win2	0.7091	n/a	Yes	2.736	n/a	5.0	GoodResponse	1	0.007	517.019	11	54	Feedback	Win	True
519.462	2.736	Win2	0.7091	n/a	Yes	2.736	n/a	n/a	GoodResponse	1	0.0	n/a	11	54	ISIslide	Win	True
522.228	0.25	Control	0.7143	0.0	Yes	3.022	0.028	n/a	GoodResponse	0	n/a	n/a	11	55	Cue	Neutral	True
522.478	3.95	Control	0.7143	0.0	Yes	3.022	0.0	n/a	GoodResponse	0	n/a	n/a	11	55	Fixation	Neutral	True
526.426	0.3	Control	0.7143	0.002	Yes	3.022	-0.002	4.0	GoodResponse	0	0.232	525.658	11	55	Target	Neutral	True
526.658	0.3	Control	0.7143	0.002	Yes	3.022	-0.002	4.0	GoodResponse	0	0.232	n/a	11	55	ButtonPress	Neutral	True
526.726	0.4	Control	0.7143	n/a	Yes	3.022	n/a	n/a	GoodResponse	0	n/a	n/a	11	55	Blank	Neutral	True
527.126	1.45	Control	0.7143	n/a	Yes	3.022	n/a	5.0	GoodResponse	0	0.013	526.139	11	55	Feedback	Neutral	True
528.575	3.022	Control	0.7143	n/a	Yes	3.022	n/a	n/a	GoodResponse	0	0.0	n/a	11	55	ISIslide	Neutral	True
531.624	0.25	Control	0.7193	0.0	Yes	2.826	0.024	n/a	GoodResponse	0	n/a	n/a	11	56	Cue	Neutral	True
531.874	3.95	Control	0.7193	0.0	Yes	2.826	0.0	n/a	GoodResponse	0	n/a	n/a	11	56	Fixation	Neutral	True
535.823	0.29	Control	0.7193	0.001	Yes	2.826	-0.001	4.0	GoodResponse	0	0.212	535.035	11	56	Target	Neutral	True
536.035	0.3	Control	0.7193	0.001	Yes	2.826	-0.001	4.0	GoodResponse	0	0.212	n/a	11	56	ButtonPress	Neutral	True
536.123	0.41	Control	0.7193	n/a	Yes	2.826	n/a	n/a	GoodResponse	0	n/a	n/a	11	56	Blank	Neutral	True
536.523	1.45	Control	0.7193	n/a	Yes	2.826	n/a	5.0	GoodResponse	0	0.03	535.553	11	56	Feedback	Neutral	True
537.972	2.826	Control	0.7193	n/a	Yes	2.826	n/a	n/a	GoodResponse	0	0.0	n/a	11	56	ISIslide	Neutral	True
540.821	0.25	Control	0.7241	0.0	Yes	3.479	0.021	n/a	GoodResponse	0	n/a	n/a	11	57	Cue	Neutral	True
541.071	4.0	Control	0.7241	0.0	Yes	3.479	0.0	n/a	GoodResponse	0	n/a	n/a	11	57	Fixation	Neutral	True
545.069	0.28	Control	0.7241	0.002	Yes	3.479	-0.002	4.0	GoodResponse	0	0.239	544.308	11	57	Target	Neutral	True
545.308	0.3	Control	0.7241	0.002	Yes	3.479	-0.002	4.0	GoodResponse	0	0.239	n/a	11	57	ButtonPress	Neutral	True
545.353	0.42	Control	0.7241	n/a	Yes	3.479	n/a	n/a	GoodResponse	0	n/a	n/a	11	57	Blank	Neutral	True
545.769	1.45	Control	0.7241	n/a	Yes	3.479	n/a	5.0	GoodResponse	0	0.007	544.776	11	57	Feedback	Neutral	True
547.219	3.479	Control	0.7241	n/a	Yes	3.479	n/a	n/a	GoodResponse	0	0.0	n/a	11	57	ISIslide	Neutral	True
550.717	0.25	Win2	0.7288	0.001	Yes	2.733	0.017	n/a	GoodResponse	1	n/a	n/a	12	58	Cue	Win	True
550.967	4.05	Win2	0.7288	0.0	Yes	2.733	0.0	n/a	GoodResponse	1	n/a	n/a	12	58	Fixation	Win	True
555.016	0.27	Win2	0.7288	0.001	Yes	2.733	-0.001	4.0	GoodResponse	1	0.228	554.244	12	58	Target	Win	True
555.244	0.3	Win2	0.7288	0.001	Yes	2.733	-0.001	4.0	GoodResponse	1	0.228	n/a	12	58	ButtonPress	Win	True
555.283	0.43	Win2	0.7288	n/a	Yes	2.733	n/a	n/a	GoodResponse	1	n/a	n/a	12	58	Blank	Win	True
555.716	1.45	Win2	0.7288	n/a	Yes	2.733	n/a	5.0	GoodResponse	1	0.008	554.724	12	58	Feedback	Win	True
557.165	2.733	Win2	0.7288	n/a	Yes	2.733	n/a	n/a	GoodResponse	1	0.0	n/a	12	58	ISIslide	Win	True
559.914	0.25	Lose2	0.7167	0.0	No	2.686	0.014	n/a	LatePress	-1	n/a	n/a	11	59	Cue	Loss	True
560.164	4.0	Lose2	0.7167	0.0	No	2.686	0.0	n/a	LatePress	-1	n/a	n/a	11	59	Fixation	Loss	True
564.163	0.26	Lose2	0.7167	0.001	No	2.686	-0.001	4.0	LatePress	-1	0.266	563.429	11	59	Target	Loss	True
564.429	0.44	Lose2	0.7167	n/a	No	2.686	n/a	n/a	LatePress	-1	n/a	n/a	11	59	Blank	Loss	True
564.429	0.3	Lose2	0.7167	0.001	No	2.686	-0.001	4.0	LatePress	-1	0.266	n/a	11	59	ButtonPress	Loss	True
564.862	1.45	Lose2	0.7167	n/a	No	2.686	n/a	5.0	LatePress	-1	0.032	563.894	11	59	Feedback	Loss	True
566.312	2.686	Lose2	0.7167	n/a	No	2.686	n/a	n/a	LatePress	-1	0.0	n/a	11	59	ISIslide	Loss	True
569.028	0.25	Control	0.7049	0.0	No	2.672	0.028	n/a	NoResponse	0	n/a	n/a	11	60	Cue	Neutral	True
569.278	4.0	Control	0.7049	0.0	No	2.672	0.0	n/a	NoResponse	0	n/a	n/a	11	60	Fixation	Neutral	True
573.276	0.25	Control	0.7049	0.002	No	2.672	-0.002	4.0	NoResponse	0	0.258	572.534	11	60	Target	Neutral	True
573.526	0.45	Control	0.7049	n/a	No	2.672	n/a	n/a	NoResponse	0	n/a	n/a	11	60	Blank	Neutral	True
573.534	0.3	Control	0.7049	0.002	No	2.672	-0.002	4.0	NoResponse	0	0.258	n/a	11	60	ButtonPress	Neutral	True
573.976	1.45	Control	0.7049	n/a	No	2.672	n/a	5.0	NoResponse	0	0.04	573.016	11	60	Feedback	Neutral	True
575.425	2.672	Control	0.7049	n/a	No	2.672	n/a	n/a	NoResponse	0	0.0	n/a	11	60	ISIslide	Neutral	True
578.124	0.25	Lose2	0.7097	0.0	Yes	2.976	0.024	n/a	GoodResponse	0	n/a	n/a	11	61	Cue	AvoidedLoss	True
578.374	4.0	Lose2	0.7097	0.0	Yes	2.976	0.0	n/a	GoodResponse	0	n/a	n/a	11	61	Fixation	AvoidedLoss	True
582.373	0.24	Lose2	0.7097	0.001	Yes	2.976	-0.001	4.0	GoodResponse	0	0.225	581.598	11	61	Target	AvoidedLoss	True
582.598	0.3	Lose2	0.7097	0.001	Yes	2.976	-0.001	4.0	GoodResponse	0	0.225	n/a	11	61	ButtonPress	AvoidedLoss	True
582.623	0.46	Lose2	0.7097	n/a	Yes	2.976	n/a	n/a	GoodResponse	0	n/a	n/a	11	61	Blank	AvoidedLoss	True
583.073	1.45	Lose2	0.7097	n/a	Yes	2.976	n/a	5.0	GoodResponse	0	0.016	582.089	11	61	Feedback	AvoidedLoss	True
584.522	2.976	Lose2	0.7097	n/a	Yes	2.976	n/a	n/a	GoodResponse	0	0.0	n/a	11	61	ISIslide	AvoidedLoss	True
587.521	0.25	Lose2	0.6984	0.0	No	2.879	0.021	n/a	NoResponse	-1	n/a	n/a	10	62	Cue	Loss	True
587.771	3.9	Lose2	0.6984	0.0	No	2.879	0.0	n/a	NoResponse	-1	n/a	n/a	10	62	Fixation	Loss	True
591.67	0.23	Lose2	0.6984	0.001	No	2.879	-0.001	4.0	NoResponse	-1	0.238	590.908	10	62	Target	Loss	True
591.903	0.47	Lose2	0.6984	n/a	No	2.879	n/a	n/a	NoResponse	-1	n/a	n/a	10	62	Blank	Loss	True
591.908	0.3	Lose2	0.6984	0.001	No	2.879	-0.001	4.0	NoResponse	-1	0.238	n/a	10	62	ButtonPress	Loss	True
592.369	1.45	Lose2	0.6984	n/a	No	2.879	n/a	5.0	NoResponse	-1	0.037	591.406	10	62	Feedback	Loss	True
593.819	2.879	Lose2	0.6984	n/a	No	2.879	n/a	n/a	NoResponse	-1	0.0	n/a	10	62	ISIslide	Loss	True
596.718	0.25	Lose2	0.7031000000000001	0.0	Yes	2.632	0.018	n/a	GoodResponse	0	n/a	n/a	10	63	Cue	AvoidedLoss	True
596.968	4.05	Lose2	0.7031000000000001	0.0	Yes	2.632	0.0	n/a	GoodResponse	0	n/a	n/a	10	63	Fixation	AvoidedLoss	True
601.016	0.22	Lose2	0.7031000000000001	0.002	Yes	2.632	-0.002	4.0	GoodResponse	0	0.202	600.218	10	63	Target	AvoidedLoss	True
601.218	0.3	Lose2	0.7031000000000001	0.002	Yes	2.632	-0.002	4.0	GoodResponse	0	0.202	n/a	10	63	ButtonPress	AvoidedLoss	True
601.249	0.48	Lose2	0.7031000000000001	n/a	Yes	2.632	n/a	n/a	GoodResponse	0	n/a	n/a	10	63	Blank	AvoidedLoss	True
601.716	1.45	Lose2	0.7031000000000001	n/a	Yes	2.632	n/a	5.0	GoodResponse	0	0.007	600.723	10	63	Feedback	AvoidedLoss	True
603.165	2.632	Lose2	0.7031000000000001	n/a	Yes	2.632	n/a	n/a	GoodResponse	0	0.0	n/a	10	63	ISIslide	AvoidedLoss	True
605.815	0.25	Win2	0.6923	0.0	No	3.135	0.015	n/a	LatePress	0	n/a	n/a	10	64	Cue	MissedWin	True
606.064	4.15	Win2	0.6923	0.001	No	3.135	-0.001	n/a	LatePress	0	n/a	n/a	10	64	Fixation	MissedWin	True
610.213	0.21	Win2	0.6923	0.002	No	3.135	-0.002	4.0	LatePress	0	0.215	609.428	10	64	Target	MissedWin	True
610.428	0.3	Win2	0.6923	0.002	No	3.135	-0.002	4.0	LatePress	0	0.215	n/a	10	64	ButtonPress	MissedWin	True
610.43	0.49	Win2	0.6923	n/a	No	3.135	n/a	n/a	LatePress	0	n/a	n/a	10	64	Blank	MissedWin	True
610.913	1.45	Win2	0.6923	n/a	No	3.135	n/a	5.0	LatePress	0	0.029	609.942	10	64	Feedback	MissedWin	True
612.362	3.135	Win2	0.6923	n/a	No	3.135	n/a	n/a	LatePress	0	0.0	n/a	10	64	ISIslide	MissedWin	True
615.528	0.25	Control	0.6818000000000001	0.0	No	2.772	0.028	n/a	NoResponse	0	n/a	n/a	10	65	Cue	Neutral	True
615.778	4.0	Control	0.6818000000000001	0.0	No	2.772	0.0	n/a	NoResponse	0	n/a	n/a	10	65	Fixation	Neutral	True
619.776	0.2	Control	0.6818000000000001	0.002	No	2.772	-0.002	4.0	NoResponse	0	0.21	618.986	10	65	Target	Neutral	True
619.976	0.5	Control	0.6818000000000001	n/a	No	2.772	n/a	n/a	NoResponse	0	n/a	n/a	10	65	Blank	Neutral	True
619.986	0.3	Control	0.6818000000000001	0.002	No	2.772	-0.002	4.0	NoResponse	0	0.21	n/a	10	65	ButtonPress	Neutral	True
620.476	1.45	Control	0.6818000000000001	n/a	No	2.772	n/a	5.0	NoResponse	0	0.027	619.503	10	65	Feedback	Neutral	True
621.925	2.772	Control	0.6818000000000001	n/a	No	2.772	n/a	n/a	NoResponse	0	0.0	n/a	10	65	ISIslide	Neutral	True
624.724	0.25	Win2	0.6716	0.001	No	2.776	0.024	n/a	NoResponse	0	n/a	n/a	10	66	Cue	MissedWin	True
624.974	3.9	Win2	0.6716	0.0	No	2.776	0.0	n/a	NoResponse	0	n/a	n/a	10	66	Fixation	MissedWin	True
628.873	0.19	Win2	0.6716	0.001	No	2.776	-0.001	4.0	NoResponse	0	0.215	628.088	10	66	Target	MissedWin	True
629.073	0.51	Win2	0.6716	n/a	No	2.776	n/a	n/a	NoResponse	0	n/a	n/a	10	66	Blank	MissedWin	True
629.088	0.3	Win2	0.6716	0.001	No	2.776	-0.001	4.0	NoResponse	0	0.215	n/a	10	66	ButtonPress	MissedWin	True
629.573	1.45	Win2	0.6716	n/a	No	2.776	n/a	5.0	NoResponse	0	0.004	628.577	10	66	Feedback	MissedWin	True
631.022	2.776	Win2	0.6716	n/a	No	2.776	n/a	n/a	NoResponse	0	0.0	n/a	10	66	ISIslide	MissedWin	True
633.821	0.25	Control	0.6618	0.0	No	2.729	0.021	n/a	NoResponse	0	n/a	n/a	10	67	Cue	Neutral	True
634.071	3.95	Control	0.6618	0.0	No	2.729	0.0	n/a	NoResponse	0	n/a	n/a	10	67	Fixation	Neutral	True
638.02	0.18	Control	0.6618	0.001	No	2.729	-0.001	4.0	NoResponse	0	0.225	637.245	10	67	Target	Neutral	True
638.203	0.52	Control	0.6618	n/a	No	2.729	n/a	n/a	NoResponse	0	n/a	n/a	10	67	Blank	Neutral	True
638.245	0.3	Control	0.6618	0.001	No	2.729	-0.001	4.0	NoResponse	0	0.225	n/a	10	67	ButtonPress	Neutral	True
638.719	1.45	Control	0.6618	n/a	No	2.729	n/a	5.0	NoResponse	0	0.028	637.747	10	67	Feedback	Neutral	True
640.169	2.729	Control	0.6618	n/a	No	2.729	n/a	n/a	NoResponse	0	0.0	n/a	10	67	ISIslide	Neutral	True
642.918	0.25	Win2	0.6522	0.0	No	3.082	0.018	n/a	NoResponse	0	n/a	n/a	10	68	Cue	MissedWin	True
643.168	4.0	Win2	0.6522	0.0	No	3.082	0.0	n/a	NoResponse	0	n/a	n/a	10	68	Fixation	MissedWin	True
647.167	0.18	Win2	0.6522	0.001	No	3.082	-0.001	4.0	NoResponse	0	0.232	646.399	10	68	Target	MissedWin	True
647.35	0.52	Win2	0.6522	n/a	No	3.082	n/a	n/a	NoResponse	0	n/a	n/a	10	68	Blank	MissedWin	True
647.399	0.3	Win2	0.6522	0.001	No	3.082	-0.001	4.0	NoResponse	0	0.232	n/a	10	68	ButtonPress	MissedWin	True
647.866	1.45	Win2	0.6522	n/a	No	3.082	n/a	5.0	NoResponse	0	0.004	646.87	10	68	Feedback	MissedWin	True
649.316	3.082	Win2	0.6522	n/a	No	3.082	n/a	n/a	NoResponse	0	0.0	n/a	10	68	ISIslide	MissedWin	True
652.415	0.25	Win2	0.6429	0.0	No	3.235	0.015	n/a	NoResponse	0	n/a	n/a	10	69	Cue	MissedWin	True
652.665	3.95	Win2	0.6429	0.0	No	3.235	0.0	n/a	NoResponse	0	n/a	n/a	10	69	Fixation	MissedWin	True
656.613	0.19	Win2	0.6429	0.002	No	3.235	-0.002	4.0	NoResponse	0	0.272	655.885	10	69	Target	MissedWin	True
656.813	0.51	Win2	0.6429	n/a	No	3.235	n/a	n/a	NoResponse	0	n/a	n/a	10	69	Blank	MissedWin	True
656.885	0.3	Win2	0.6429	0.002	No	3.235	-0.002	4.0	NoResponse	0	0.272	n/a	10	69	ButtonPress	MissedWin	True
657.313	1.45	Win2	0.6429	n/a	No	3.235	n/a	5.0	NoResponse	0	0.019	656.332	10	69	Feedback	MissedWin	True
658.762	3.235	Win2	0.6429	n/a	No	3.235	n/a	n/a	NoResponse	0	0.0	n/a	10	69	ISIslide	MissedWin	True
662.028	0.25	Lose2	0.6338	0.0	No	3.022	0.028	n/a	NoResponse	-1	n/a	n/a	9	70	Cue	Loss	True
662.278	4.05	Lose2	0.6338	0.0	No	3.022	0.0	n/a	NoResponse	-1	n/a	n/a	9	70	Fixation	Loss	True
666.326	0.2	Lose2	0.6338	0.002	No	3.022	-0.002	4.0	NoResponse	-1	0.254	665.58	9	70	Target	Loss	True
666.526	0.5	Lose2	0.6338	n/a	No	3.022	n/a	n/a	NoResponse	-1	n/a	n/a	9	70	Blank	Loss	True
666.58	0.3	Lose2	0.6338	0.002	No	3.022	-0.002	4.0	NoResponse	-1	0.254	n/a	9	70	ButtonPress	Loss	True
667.026	1.45	Lose2	0.6338	n/a	No	3.022	n/a	5.0	NoResponse	-1	0.013	666.039	9	70	Feedback	Loss	True
668.476	3.022	Lose2	0.6338	n/a	No	3.022	n/a	n/a	NoResponse	-1	0.0	n/a	9	70	ISIslide	Loss	True
671.524	0.25	Win2	0.625	0.001	No	2.726	0.024	n/a	NoResponse	0	n/a	n/a	9	71	Cue	MissedWin	True
671.774	4.05	Win2	0.625	0.001	No	2.726	0.0	4.0	NoResponse	0	3.863	674.637	9	71	Fixation	MissedWin	True
675.637	0.3	Win2	0.625	0.001	No	2.726	0.0	4.0	NoResponse	0	3.863	n/a	9	71	ButtonPress	MissedWin	True
675.823	0.21	Win2	0.625	0.001	No	2.726	-0.001	n/a	NoResponse	0	n/a	n/a	9	71	Target	MissedWin	True
676.04	0.49	Win2	0.625	n/a	No	2.726	n/a	n/a	NoResponse	0	n/a	n/a	9	71	Blank	MissedWin	True
676.523	1.45	Win2	0.625	n/a	No	2.726	n/a	5.0	NoResponse	0	0.028	675.551	9	71	Feedback	MissedWin	True
677.972	2.726	Win2	0.625	n/a	No	2.726	n/a	n/a	NoResponse	0	0.0	n/a	9	71	ISIslide	MissedWin	True
680.721	0.25	Win2	0.6301	0.0	Yes	2.779	0.021	n/a	GoodResponse	1	n/a	n/a	10	72	Cue	Win	True
680.971	4.1	Win2	0.6301	0.0	Yes	2.779	0.0	n/a	GoodResponse	1	n/a	n/a	10	72	Fixation	Win	True
685.07	0.22	Win2	0.6301	0.001	Yes	2.779	-0.001	4.0	GoodResponse	1	0.201	684.271	10	72	Target	Win	True
685.271	0.3	Win2	0.6301	0.001	Yes	2.779	-0.001	4.0	GoodResponse	1	0.201	n/a	10	72	ButtonPress	Win	True
685.303	0.48	Win2	0.6301	n/a	Yes	2.779	n/a	n/a	GoodResponse	1	n/a	n/a	10	72	Blank	Win	True
685.769	1.45	Win2	0.6301	n/a	Yes	2.779	n/a	5.0	GoodResponse	1	0.001	684.77	10	72	Feedback	Win	True
687.219	2.779	Win2	0.6301	n/a	Yes	2.779	n/a	n/a	GoodResponse	1	0.0	n/a	10	72	ISIslide	Win	True
690.018	0.25	Win2	0.6351	0.0	Yes	2.682	0.018	n/a	GoodResponse	1	n/a	n/a	11	73	Cue	Win	True
690.268	4.0	Win2	0.6351	0.0	Yes	2.682	0.0	n/a	GoodResponse	1	n/a	n/a	11	73	Fixation	Win	True
694.266	0.23	Win2	0.6351	0.002	Yes	2.682	-0.002	4.0	GoodResponse	1	0.181	693.447	11	73	Target	Win	True
694.447	0.3	Win2	0.6351	0.002	Yes	2.682	-0.002	4.0	GoodResponse	1	0.181	n/a	11	73	ButtonPress	Win	True
694.5	0.47	Win2	0.6351	n/a	Yes	2.682	n/a	n/a	GoodResponse	1	n/a	n/a	11	73	Blank	Win	True
694.966	1.45	Win2	0.6351	n/a	Yes	2.682	n/a	5.0	GoodResponse	1	0.024	693.99	11	73	Feedback	Win	True
696.416	2.682	Win2	0.6351	n/a	Yes	2.682	n/a	n/a	GoodResponse	1	0.0	n/a	11	73	ISIslide	Win	True
699.115	0.25	Lose2	0.64	0.0	Yes	2.635	0.015	n/a	GoodResponse	0	n/a	n/a	11	74	Cue	AvoidedLoss	True
699.365	4.05	Lose2	0.64	0.0	Yes	2.635	0.0	n/a	GoodResponse	0	n/a	n/a	11	74	Fixation	AvoidedLoss	True
703.413	0.24	Lose2	0.64	0.002	Yes	2.635	-0.002	4.0	GoodResponse	0	0.229	702.642	11	74	Target	AvoidedLoss	True
703.642	0.3	Lose2	0.64	0.002	Yes	2.635	-0.002	4.0	GoodResponse	0	0.229	n/a	11	74	ButtonPress	AvoidedLoss	True
703.663	0.46	Lose2	0.64	n/a	Yes	2.635	n/a	n/a	GoodResponse	0	n/a	n/a	11	74	Blank	AvoidedLoss	True
704.113	1.45	Lose2	0.64	n/a	Yes	2.635	n/a	5.0	GoodResponse	0	0.048	703.161	11	74	Feedback	AvoidedLoss	True
705.562	2.635	Lose2	0.64	n/a	Yes	2.635	n/a	n/a	GoodResponse	0	0.0	n/a	11	74	ISIslide	AvoidedLoss	True
708.211	0.25	Lose2	0.6315999999999999	0.001	No	2.939	0.011	n/a	NoResponse	-1	n/a	n/a	10	75	Cue	Loss	True
708.461	3.95	Lose2	0.6315999999999999	0.0	No	2.939	0.0	n/a	NoResponse	-1	n/a	n/a	10	75	Fixation	Loss	True
712.41	0.25	Lose2	0.6315999999999999	0.001	No	2.939	-0.001	4.0	NoResponse	-1	0.26	711.67	10	75	Target	Loss	True
712.66	0.45	Lose2	0.6315999999999999	n/a	No	2.939	n/a	n/a	NoResponse	-1	n/a	n/a	10	75	Blank	Loss	True
712.67	0.3	Lose2	0.6315999999999999	0.001	No	2.939	-0.001	4.0	NoResponse	-1	0.26	n/a	10	75	ButtonPress	Loss	True
713.11	1.45	Lose2	0.6315999999999999	n/a	No	2.939	n/a	5.0	NoResponse	-1	0.026	712.136	10	75	Feedback	Loss	True
714.559	2.939	Lose2	0.6315999999999999	n/a	No	2.939	n/a	n/a	NoResponse	-1	0.0	n/a	10	75	ISIslide	Loss	True
717.525	0.25	Control	0.6364	0.0	Yes	3.225	0.025	n/a	GoodResponse	0	n/a	n/a	10	76	Cue	Neutral	True
717.775	4.05	Control	0.6364	0.0	Yes	3.225	0.0	n/a	GoodResponse	0	n/a	n/a	10	76	Fixation	Neutral	True
721.823	0.26	Control	0.6364	0.002	Yes	3.225	-0.002	4.0	GoodResponse	0	0.258	721.081	10	76	Target	Neutral	True
722.081	0.3	Control	0.6364	0.002	Yes	3.225	-0.002	4.0	GoodResponse	0	0.258	n/a	10	76	ButtonPress	Neutral	True
722.09	0.44	Control	0.6364	n/a	Yes	3.225	n/a	n/a	GoodResponse	0	n/a	n/a	10	76	Blank	Neutral	True
722.523	1.45	Control	0.6364	n/a	Yes	3.225	n/a	5.0	GoodResponse	0	0.028	721.551	10	76	Feedback	Neutral	True
723.973	3.225	Control	0.6364	n/a	Yes	3.225	n/a	n/a	GoodResponse	0	0.0	n/a	10	76	ISIslide	Neutral	True
727.221	0.25	Lose2	0.6409999999999999	0.0	Yes	2.579	0.021	n/a	GoodResponse	0	n/a	n/a	10	77	Cue	AvoidedLoss	True
727.471	3.95	Lose2	0.6409999999999999	0.0	Yes	2.579	0.0	n/a	GoodResponse	0	n/a	n/a	10	77	Fixation	AvoidedLoss	True
731.42	0.27	Lose2	0.6409999999999999	0.001	Yes	2.579	-0.001	4.0	GoodResponse	0	0.202	730.622	10	77	Target	AvoidedLoss	True
731.622	0.3	Lose2	0.6409999999999999	0.001	Yes	2.579	-0.001	4.0	GoodResponse	0	0.202	n/a	10	77	ButtonPress	AvoidedLoss	True
731.686	0.43	Lose2	0.6409999999999999	n/a	Yes	2.579	n/a	n/a	GoodResponse	0	n/a	n/a	10	77	Blank	AvoidedLoss	True
732.12	1.45	Lose2	0.6409999999999999	n/a	Yes	2.579	n/a	5.0	GoodResponse	0	0.04	731.16	10	77	Feedback	AvoidedLoss	True
733.569	2.579	Lose2	0.6409999999999999	n/a	Yes	2.579	n/a	n/a	GoodResponse	0	0.0	n/a	10	77	ISIslide	AvoidedLoss	True
