onset	duration	cue_type	current_mean_accuracy	duration_error	is_hit	isi_adjusted	onset_delay	response	response_type	reward	rt	rt_time	total_reward	trial_number	trial_phase	trial_type	one_press
11.098	0.25	Control	1.0	0.0	Yes	2.952	-0.002	n/a	GoodResponse	0	n/a	n/a	0	0	Cue	Neutral	True
11.348	3.85	Control	1.0	0.0	Yes	2.952	0.0	n/a	GoodResponse	0	n/a	n/a	0	0	Fixation	Neutral	True
15.197	0.4	Control	1.0	0.001	Yes	2.952	-0.001	2.0	GoodResponse	0	0.227	14.424	0	0	Target	Neutral	True
15.424	0.3	Control	1.0	0.001	Yes	2.952	-0.001	2.0	GoodResponse	0	0.227	n/a	0	0	ButtonPress	Neutral	True
15.596	0.3	Control	1.0	n/a	Yes	2.952	n/a	n/a	GoodResponse	0	n/a	n/a	0	0	Blank	Neutral	True
15.896	1.45	Control	1.0	n/a	Yes	2.952	n/a	5.0	GoodResponse	0	0.029	14.925	0	0	Feedback	Neutral	True
17.346	2.952	Control	1.0	n/a	Yes	2.952	n/a	n/a	GoodResponse	0	0.0	n/a	0	0	ISIslide	Neutral	True
20.328	0.25	Lose2	1.0	0.0	Yes	2.772	0.028	n/a	GoodResponse	0	n/a	n/a	0	1	Cue	AvoidedLoss	True
20.578	4.0	Lose2	1.0	0.0	Yes	2.772	0.0	n/a	GoodResponse	0	n/a	n/a	0	1	Fixation	AvoidedLoss	True
24.577	0.39	Lose2	1.0	0.001	Yes	2.772	-0.001	2.0	GoodResponse	0	0.252	23.829	0	1	Target	AvoidedLoss	True
24.829	0.3	Lose2	1.0	0.001	Yes	2.772	-0.001	2.0	GoodResponse	0	0.252	n/a	0	1	ButtonPress	AvoidedLoss	True
24.976	0.31	Lose2	1.0	n/a	Yes	2.772	n/a	n/a	GoodResponse	0	n/a	n/a	0	1	Blank	AvoidedLoss	True
25.276	1.45	Lose2	1.0	n/a	Yes	2.772	n/a	5.0	GoodResponse	0	0.015	24.291	0	1	Feedback	AvoidedLoss	True
26.726	2.772	Lose2	1.0	n/a	Yes	2.772	n/a	n/a	GoodResponse	0	0.0	n/a	0	1	ISIslide	AvoidedLoss	True
29.525	0.25	Control	1.0	0.0	Yes	2.575	0.025	n/a	GoodResponse	0	n/a	n/a	0	2	Cue	Neutral	True
29.775	4.1	Control	1.0	0.0	Yes	2.575	0.0	n/a	GoodResponse	0	n/a	n/a	0	2	Fixation	Neutral	True
33.873	0.38	Control	1.0	0.002	Yes	2.575	-0.002	2.0	GoodResponse	0	0.239	33.112	0	2	Target	Neutral	True
34.112	0.3	Control	1.0	0.002	Yes	2.575	-0.002	2.0	GoodResponse	0	0.239	n/a	0	2	ButtonPress	Neutral	True
34.256	0.32	Control	1.0	n/a	Yes	2.575	n/a	n/a	GoodResponse	0	n/a	n/a	0	2	Blank	Neutral	True
34.573	1.45	Control	1.0	n/a	Yes	2.575	n/a	5.0	GoodResponse	0	0.036	33.609	0	2	Feedback	Neutral	True
36.023	2.575	Control	1.0	n/a	Yes	2.575	n/a	n/a	GoodResponse	0	0.0	n/a	0	2	ISIslide	Neutral	True
38.622	0.25	Win2	1.0	0.0	Yes	2.828	0.022	n/a	GoodResponse	1	n/a	n/a	1	3	Cue	Win	True
38.871	3.95	Win2	1.0	0.001	Yes	2.828	-0.001	n/a	GoodResponse	1	n/a	n/a	1	3	Fixation	Win	True
42.82	0.37	Win2	1.0	0.002	Yes	2.828	-0.002	2.0	GoodResponse	1	0.217	42.037	1	3	Target	Win	True
43.037	0.3	Win2	1.0	0.002	Yes	2.828	-0.002	2.0	GoodResponse	1	0.217	n/a	1	3	ButtonPress	Win	True
43.203	0.33	Win2	1.0	n/a	Yes	2.828	n/a	n/a	GoodResponse	1	n/a	n/a	1	3	Blank	Win	True
43.52	1.45	Win2	1.0	n/a	Yes	2.828	n/a	5.0	GoodResponse	1	0.014	42.534	1	3	Feedback	Win	True
44.969	2.828	Win2	1.0	n/a	Yes	2.828	n/a	n/a	GoodResponse	1	0.0	n/a	1	3	ISIslide	Win	True
47.818	0.25	Win2	1.0	0.0	Yes	3.282	0.018	n/a	GoodResponse	1	n/a	n/a	2	4	Cue	Win	True
48.068	4.0	Win2	1.0	0.0	Yes	3.282	0.0	n/a	GoodResponse	1	n/a	n/a	2	4	Fixation	Win	True
52.067	0.36	Win2	1.0	0.001	Yes	3.282	-0.001	2.0	GoodResponse	1	0.22	51.287	2	4	Target	Win	True
52.287	0.3	Win2	1.0	0.001	Yes	3.282	-0.001	2.0	GoodResponse	1	0.22	n/a	2	4	ButtonPress	Win	True
52.433	0.34	Win2	1.0	n/a	Yes	3.282	n/a	n/a	GoodResponse	1	n/a	n/a	2	4	Blank	Win	True
52.767	1.45	Win2	1.0	n/a	Yes	3.282	n/a	5.0	GoodResponse	1	0.036	51.803	2	4	Feedback	Win	True
54.216	3.282	Win2	1.0	n/a	Yes	3.282	n/a	n/a	GoodResponse	1	0.0	n/a	2	4	ISIslide	Win	True
57.515	0.25	Win2	1.0	0.0	Yes	2.785	0.015	n/a	GoodResponse	1	n/a	n/a	3	5	Cue	Win	True
57.765	4.0	Win2	1.0	0.0	Yes	2.785	0.0	n/a	GoodResponse	1	n/a	n/a	3	5	Fixation	Win	True
61.763	0.35	Win2	1.0	0.002	Yes	2.785	-0.002	2.0	GoodResponse	1	0.209	60.972	3	5	Target	Win	True
61.972	0.3	Win2	1.0	0.002	Yes	2.785	-0.002	2.0	GoodResponse	1	0.209	n/a	3	5	ButtonPress	Win	True
62.113	0.35	Win2	1.0	n/a	Yes	2.785	n/a	n/a	GoodResponse	1	n/a	n/a	3	5	Blank	Win	True
62.463	1.45	Win2	1.0	n/a	Yes	2.785	n/a	5.0	GoodResponse	1	0.047	61.51	3	5	Feedback	Win	True
63.913	2.785	Win2	1.0	n/a	Yes	2.785	n/a	n/a	GoodResponse	1	0.0	n/a	3	5	ISIslide	Win	True
66.728	0.25	Lose2	1.0	0.0	Yes	2.722	0.028	n/a	GoodResponse	0	n/a	n/a	3	6	Cue	AvoidedLoss	True
66.978	3.95	Lose2	1.0	0.0	Yes	2.722	0.0	n/a	GoodResponse	0	n/a	n/a	3	6	Fixation	AvoidedLoss	True
70.927	0.34	Lose2	1.0	0.001	Yes	2.722	-0.001	2.0	GoodResponse	0	0.214	70.141	3	6	Target	AvoidedLoss	True
71.141	0.3	Lose2	1.0	0.001	Yes	2.722	-0.001	2.0	GoodResponse	0	0.214	n/a	3	6	ButtonPress	AvoidedLoss	True
71.277	0.36	Lose2	1.0	n/a	Yes	2.722	n/a	n/a	GoodResponse	0	n/a	n/a	3	6	Blank	AvoidedLoss	True
71.627	1.45	Lose2	1.0	n/a	Yes	2.722	n/a	5.0	GoodResponse	0	0.005	70.632	3	6	Feedback	AvoidedLoss	True
73.076	2.722	Lose2	1.0	n/a	Yes	2.722	n/a	n/a	GoodResponse	0	0.0	n/a	3	6	ISIslide	AvoidedLoss	True
75.825	0.25	Lose2	1.0	0.0	Yes	4.025	0.025	n/a	GoodResponse	0	n/a	n/a	3	7	Cue	AvoidedLoss	True
76.075	4.05	Lose2	1.0	0.0	Yes	4.025	0.0	n/a	GoodResponse	0	n/a	n/a	3	7	Fixation	AvoidedLoss	True
80.123	0.33	Lose2	1.0	0.002	Yes	4.025	-0.002	2.0	GoodResponse	0	0.203	79.326	3	7	Target	AvoidedLoss	True
80.326	0.3	Lose2	1.0	0.002	Yes	4.025	-0.002	2.0	GoodResponse	0	0.203	n/a	3	7	ButtonPress	AvoidedLoss	True
80.457	0.37	Lose2	1.0	n/a	Yes	4.025	n/a	n/a	GoodResponse	0	n/a	n/a	3	7	Blank	AvoidedLoss	True
80.823	1.45	Lose2	1.0	n/a	Yes	4.025	n/a	5.0	GoodResponse	0	0.028	79.851	3	7	Feedback	AvoidedLoss	True
82.273	4.025	Lose2	1.0	n/a	Yes	4.025	n/a	n/a	GoodResponse	0	0.0	n/a	3	7	ISIslide	AvoidedLoss	True
86.321	0.25	Lose2	1.0	0.0	Yes	3.029	0.021	n/a	GoodResponse	0	n/a	n/a	3	8	Cue	AvoidedLoss	True
86.571	3.95	Lose2	1.0	0.0	Yes	3.029	0.0	n/a	GoodResponse	0	n/a	n/a	3	8	Fixation	AvoidedLoss	True
90.52	0.32	Lose2	1.0	0.001	Yes	3.029	-0.001	2.0	GoodResponse	0	0.213	89.733	3	8	Target	AvoidedLoss	True
90.733	0.3	Lose2	1.0	0.001	Yes	3.029	-0.001	2.0	GoodResponse	0	0.213	n/a	3	8	ButtonPress	AvoidedLoss	True
90.836	0.38	Lose2	1.0	n/a	Yes	3.029	n/a	n/a	GoodResponse	0	n/a	n/a	3	8	Blank	AvoidedLoss	True
91.22	1.45	Lose2	1.0	n/a	Yes	3.029	n/a	5.0	GoodResponse	0	0.021	90.241	3	8	Feedback	AvoidedLoss	True
92.669	3.029	Lose2	1.0	n/a	Yes	3.029	n/a	n/a	GoodResponse	0	0.0	n/a	3	8	ISIslide	AvoidedLoss	True
95.718	0.25	Lose2	0.9	0.0	No	3.132	0.018	n/a	NoResponse	-1	n/a	n/a	2	9	Cue	Loss	True
95.968	3.95	Lose2	0.9	0.0	No	3.132	0.0	n/a	NoResponse	-1	n/a	n/a	2	9	Fixation	Loss	True
99.916	0.31	Lose2	0.9	0.002	No	3.132	-0.002	2.0	NoResponse	-1	0.652	99.568	2	9	Target	Loss	True
100.233	0.39	Lose2	0.9	n/a	No	3.132	n/a	n/a	NoResponse	-1	n/a	n/a	2	9	Blank	Loss	True
100.568	0.3	Lose2	0.9	0.002	No	3.132	-0.002	2.0	NoResponse	-1	0.652	n/a	2	9	ButtonPress	Loss	True
100.616	1.45	Lose2	0.9	n/a	No	3.132	n/a	5.0	NoResponse	-1	0.04	99.656	2	9	Feedback	Loss	True
102.066	3.132	Lose2	0.9	n/a	No	3.132	n/a	n/a	NoResponse	-1	0.0	n/a	2	9	ISIslide	Loss	True
105.215	0.25	Control	0.9091	0.0	Yes	3.285	0.015	n/a	GoodResponse	0	n/a	n/a	2	10	Cue	Neutral	True
105.464	4.0	Control	0.9091	0.001	Yes	3.285	-0.001	n/a	GoodResponse	0	n/a	n/a	2	10	Fixation	Neutral	True
109.463	0.3	Control	0.9091	0.002	Yes	3.285	-0.002	2.0	GoodResponse	0	0.218	108.681	2	10	Target	Neutral	True
109.681	0.3	Control	0.9091	0.002	Yes	3.285	-0.002	2.0	GoodResponse	0	0.218	n/a	2	10	ButtonPress	Neutral	True
109.763	0.4	Control	0.9091	n/a	Yes	3.285	n/a	n/a	GoodResponse	0	n/a	n/a	2	10	Blank	Neutral	True
110.163	1.45	Control	0.9091	n/a	Yes	3.285	n/a	5.0	GoodResponse	0	0.006	109.169	2	10	Feedback	Neutral	True
111.612	3.285	Control	0.9091	n/a	Yes	3.285	n/a	n/a	GoodResponse	0	0.0	n/a	2	10	ISIslide	Neutral	True
114.928	0.25	Lose2	0.9167000000000001	0.0	Yes	2.722	0.028	n/a	GoodResponse	0	n/a	n/a	2	11	Cue	AvoidedLoss	True
115.178	4.05	Lose2	0.9167000000000001	0.0	Yes	2.722	0.0	n/a	GoodResponse	0	n/a	n/a	2	11	Fixation	AvoidedLoss	True
119.226	0.29	Lose2	0.9167000000000001	0.002	Yes	2.722	-0.002	2.0	GoodResponse	0	0.208	118.434	2	11	Target	AvoidedLoss	True
119.434	0.3	Lose2	0.9167000000000001	0.002	Yes	2.722	-0.002	2.0	GoodResponse	0	0.208	n/a	2	11	ButtonPress	AvoidedLoss	True
119.526	0.41	Lose2	0.9167000000000001	n/a	Yes	2.722	n/a	n/a	GoodResponse	0	n/a	n/a	2	11	Blank	AvoidedLoss	True
119.926	1.45	Lose2	0.9167000000000001	n/a	Yes	2.722	n/a	5.0	GoodResponse	0	0.046	118.972	2	11	Feedback	AvoidedLoss	True
121.375	2.722	Lose2	0.9167000000000001	n/a	Yes	2.722	n/a	n/a	GoodResponse	0	0.0	n/a	2	11	ISIslide	AvoidedLoss	True
124.125	0.25	Control	0.9231	0.0	Yes	2.975	0.025	n/a	GoodResponse	0	n/a	n/a	2	12	Cue	Neutral	True
124.374	3.9	Control	0.9231	0.001	Yes	2.975	-0.001	n/a	GoodResponse	0	n/a	n/a	2	12	Fixation	Neutral	True
128.273	0.28	Control	0.9231	0.002	Yes	2.975	-0.002	2.0	GoodResponse	0	0.203	127.476	2	12	Target	Neutral	True
128.476	0.3	Control	0.9231	0.002	Yes	2.975	-0.002	2.0	GoodResponse	0	0.203	n/a	2	12	ButtonPress	Neutral	True
128.556	0.42	Control	0.9231	n/a	Yes	2.975	n/a	n/a	GoodResponse	0	n/a	n/a	2	12	Blank	Neutral	True
128.973	1.45	Control	0.9231	n/a	Yes	2.975	n/a	5.0	GoodResponse	0	0.024	127.997	2	12	Feedback	Neutral	True
130.422	2.975	Control	0.9231	n/a	Yes	2.975	n/a	n/a	GoodResponse	0	0.0	n/a	2	12	ISIslide	Neutral	True
133.421	0.25	Control	0.9286	0.0	Yes	2.779	0.021	n/a	GoodResponse	0	n/a	n/a	2	13	Cue	Neutral	True
133.671	4.0	Control	0.9286	0.0	Yes	2.779	0.0	n/a	GoodResponse	0	n/a	n/a	2	13	Fixation	Neutral	True
137.67	0.27	Control	0.9286	0.001	Yes	2.779	-0.001	2.0	GoodResponse	0	0.195	136.865	2	13	Target	Neutral	True
137.865	0.3	Control	0.9286	0.001	Yes	2.779	-0.001	2.0	GoodResponse	0	0.195	n/a	2	13	ButtonPress	Neutral	True
137.953	0.43	Control	0.9286	n/a	Yes	2.779	n/a	n/a	GoodResponse	0	n/a	n/a	2	13	Blank	Neutral	True
138.369	1.45	Control	0.9286	n/a	Yes	2.779	n/a	5.0	GoodResponse	0	0.043	137.412	2	13	Feedback	Neutral	True
139.819	2.779	Control	0.9286	n/a	Yes	2.779	n/a	n/a	GoodResponse	0	0.0	n/a	2	13	ISIslide	Neutral	True
142.618	0.25	Win2	0.9333	0.0	Yes	2.682	0.018	n/a	GoodResponse	1	n/a	n/a	3	14	Cue	Win	True
142.868	4.1	Win2	0.9333	0.0	Yes	2.682	0.0	n/a	GoodResponse	1	n/a	n/a	3	14	Fixation	Win	True
146.966	0.26	Win2	0.9333	0.002	Yes	2.682	-0.002	2.0	GoodResponse	1	0.193	146.159	3	14	Target	Win	True
147.159	0.3	Win2	0.9333	0.002	Yes	2.682	-0.002	2.0	GoodResponse	1	0.193	n/a	3	14	ButtonPress	Win	True
147.233	0.44	Win2	0.9333	n/a	Yes	2.682	n/a	n/a	GoodResponse	1	n/a	n/a	3	14	Blank	Win	True
147.666	1.45	Win2	0.9333	n/a	Yes	2.682	n/a	5.0	GoodResponse	1	0.014	146.68	3	14	Feedback	Win	True
149.116	2.682	Win2	0.9333	n/a	Yes	2.682	n/a	n/a	GoodResponse	1	0.0	n/a	3	14	ISIslide	Win	True
151.815	0.25	Control	0.9375	0.0	Yes	2.985	0.015	n/a	GoodResponse	0	n/a	n/a	3	15	Cue	Neutral	True
152.065	4.0	Control	0.9375	0.0	Yes	2.985	0.0	n/a	GoodResponse	0	n/a	n/a	3	15	Fixation	Neutral	True
156.063	0.25	Control	0.9375	0.002	Yes	2.985	-0.002	2.0	GoodResponse	0	0.206	155.269	3	15	Target	Neutral	True
156.269	0.3	Control	0.9375	0.002	Yes	2.985	-0.002	2.0	GoodResponse	0	0.206	n/a	3	15	ButtonPress	Neutral	True
156.313	0.45	Control	0.9375	n/a	Yes	2.985	n/a	n/a	GoodResponse	0	n/a	n/a	3	15	Blank	Neutral	True
156.763	1.45	Control	0.9375	n/a	Yes	2.985	n/a	5.0	GoodResponse	0	0.038	155.801	3	15	Feedback	Neutral	True
158.212	2.985	Control	0.9375	n/a	Yes	2.985	n/a	n/a	GoodResponse	0	0.0	n/a	3	15	ISIslide	Neutral	True
161.228	0.25	Win2	0.8824	0.0	No	2.872	0.028	n/a	LatePress	0	n/a	n/a	3	16	Cue	MissedWin	True
161.478	4.0	Win2	0.8824	0.0	No	2.872	0.0	n/a	LatePress	0	n/a	n/a	3	16	Fixation	MissedWin	True
165.476	0.24	Win2	0.8824	0.002	No	2.872	-0.002	2.0	LatePress	0	0.245	164.721	3	16	Target	MissedWin	True
165.721	0.3	Win2	0.8824	0.002	No	2.872	-0.002	2.0	LatePress	0	0.245	n/a	3	16	ButtonPress	MissedWin	True
165.726	0.46	Win2	0.8824	n/a	No	2.872	n/a	n/a	LatePress	0	n/a	n/a	3	16	Blank	MissedWin	True
166.176	1.45	Win2	0.8824	n/a	No	2.872	n/a	5.0	LatePress	0	0.04	165.216	3	16	Feedback	MissedWin	True
167.626	2.872	Win2	0.8824	n/a	No	2.872	n/a	n/a	LatePress	0	0.0	n/a	3	16	ISIslide	MissedWin	True
170.525	0.25	Lose2	0.8332999999999999	0.0	No	2.725	0.025	n/a	LatePress	-1	n/a	n/a	2	17	Cue	Loss	True
170.775	3.95	Lose2	0.8332999999999999	0.0	No	2.725	0.0	n/a	LatePress	-1	n/a	n/a	2	17	Fixation	Loss	True
174.723	0.23	Lose2	0.8332999999999999	0.002	No	2.725	-0.002	2.0	LatePress	-1	0.231	173.954	2	17	Target	Loss	True
174.954	0.3	Lose2	0.8332999999999999	0.002	No	2.725	-0.002	2.0	LatePress	-1	0.231	n/a	2	17	ButtonPress	Loss	True
174.956	0.47	Lose2	0.8332999999999999	n/a	No	2.725	n/a	n/a	LatePress	-1	n/a	n/a	2	17	Blank	Loss	True
175.423	1.45	Lose2	0.8332999999999999	n/a	No	2.725	n/a	5.0	LatePress	-1	0.013	174.436	2	17	Feedback	Loss	True
176.872	2.725	Lose2	0.8332999999999999	n/a	No	2.725	n/a	n/a	LatePress	-1	0.0	n/a	2	17	ISIslide	Loss	True
179.621	0.25	Lose2	0.8421	0.0	Yes	2.729	0.021	n/a	GoodResponse	0	n/a	n/a	2	18	Cue	AvoidedLoss	True
179.871	4.05	Lose2	0.8421	0.0	Yes	2.729	0.0	n/a	GoodResponse	0	n/a	n/a	2	18	Fixation	AvoidedLoss	True
183.92	0.22	Lose2	0.8421	0.001	Yes	2.729	-0.001	2.0	GoodResponse	0	0.2	183.12	2	18	Target	AvoidedLoss	True
184.12	0.3	Lose2	0.8421	0.001	Yes	2.729	-0.001	2.0	GoodResponse	0	0.2	n/a	2	18	ButtonPress	AvoidedLoss	True
184.136	0.48	Lose2	0.8421	n/a	Yes	2.729	n/a	n/a	GoodResponse	0	n/a	n/a	2	18	Blank	AvoidedLoss	True
184.62	1.45	Lose2	0.8421	n/a	Yes	2.729	n/a	5.0	GoodResponse	0	0.035	183.655	2	18	Feedback	AvoidedLoss	True
186.069	2.729	Lose2	0.8421	n/a	Yes	2.729	n/a	n/a	GoodResponse	0	0.0	n/a	2	18	ISIslide	AvoidedLoss	True
188.818	0.25	Control	0.85	0.0	Yes	2.932	0.018	n/a	GoodResponse	0	n/a	n/a	2	19	Cue	Neutral	True
189.068	3.95	Control	0.85	0.0	Yes	2.932	0.0	n/a	GoodResponse	0	n/a	n/a	2	19	Fixation	Neutral	True
193.017	0.21	Control	0.85	0.001	Yes	2.932	-0.001	2.0	GoodResponse	0	0.171	192.188	2	19	Target	Neutral	True
193.188	0.3	Control	0.85	0.001	Yes	2.932	-0.001	2.0	GoodResponse	0	0.171	n/a	2	19	ButtonPress	Neutral	True
193.233	0.49	Control	0.85	n/a	Yes	2.932	n/a	n/a	GoodResponse	0	n/a	n/a	2	19	Blank	Neutral	True
193.716	1.45	Control	0.85	n/a	Yes	2.932	n/a	5.0	GoodResponse	0	0.011	192.727	2	19	Feedback	Neutral	True
195.166	2.932	Control	0.85	n/a	Yes	2.932	n/a	n/a	GoodResponse	0	0.0	n/a	2	19	ISIslide	Neutral	True
198.115	0.25	Control	0.8095	0.0	No	2.635	0.015	n/a	NoResponse	0	n/a	n/a	2	20	Cue	Neutral	True
198.365	4.05	Control	0.8095	0.0	No	2.635	0.0	n/a	NoResponse	0	n/a	n/a	2	20	Fixation	Neutral	True
202.413	0.2	Control	0.8095	0.002	No	2.635	-0.002	2.0	NoResponse	0	0.604	202.017	2	20	Target	Neutral	True
202.613	0.5	Control	0.8095	n/a	No	2.635	n/a	n/a	NoResponse	0	n/a	n/a	2	20	Blank	Neutral	True
203.017	0.3	Control	0.8095	0.002	No	2.635	-0.002	2.0	NoResponse	0	0.604	n/a	2	20	ButtonPress	Neutral	True
203.113	1.45	Control	0.8095	n/a	No	2.635	n/a	5.0	NoResponse	0	0.029	202.142	2	20	Feedback	Neutral	True
204.563	2.635	Control	0.8095	n/a	No	2.635	n/a	n/a	NoResponse	0	0.0	n/a	2	20	ISIslide	Neutral	True
207.228	0.25	Control	0.7726999999999999	0.0	No	2.772	0.028	n/a	NoResponse	0	n/a	n/a	2	21	Cue	Neutral	True
207.478	4.1	Control	0.7726999999999999	0.0	No	2.772	0.0	n/a	NoResponse	0	n/a	n/a	2	21	Fixation	Neutral	True
211.577	0.19	Control	0.7726999999999999	0.001	No	2.772	-0.001	2.0	NoResponse	0	0.313	210.89	2	21	Target	Neutral	True
211.777	0.51	Control	0.7726999999999999	n/a	No	2.772	n/a	n/a	NoResponse	0	n/a	n/a	2	21	Blank	Neutral	True
211.89	0.3	Control	0.7726999999999999	0.001	No	2.772	-0.001	2.0	NoResponse	0	0.313	n/a	2	21	ButtonPress	Neutral	True
212.276	1.45	Control	0.7726999999999999	n/a	No	2.772	n/a	5.0	NoResponse	0	0.037	211.313	2	21	Feedback	Neutral	True
213.726	2.772	Control	0.7726999999999999	n/a	No	2.772	n/a	n/a	NoResponse	0	0.0	n/a	2	21	ISIslide	Neutral	True
216.525	0.25	Control	0.7391	0.0	No	2.775	0.025	n/a	NoResponse	0	n/a	n/a	2	22	Cue	Neutral	True
216.775	4.0	Control	0.7391	0.0	No	2.775	0.0	n/a	NoResponse	0	n/a	n/a	2	22	Fixation	Neutral	True
220.773	0.18	Control	0.7391	0.002	No	2.775	-0.002	2.0	NoResponse	0	0.205	219.978	2	22	Target	Neutral	True
220.957	0.52	Control	0.7391	n/a	No	2.775	n/a	n/a	NoResponse	0	n/a	n/a	2	22	Blank	Neutral	True
220.978	0.3	Control	0.7391	0.002	No	2.775	-0.002	2.0	NoResponse	0	0.205	n/a	2	22	ButtonPress	Neutral	True
221.473	1.45	Control	0.7391	n/a	No	2.775	n/a	5.0	NoResponse	0	0.011	220.484	2	22	Feedback	Neutral	True
222.923	2.775	Control	0.7391	n/a	No	2.775	n/a	n/a	NoResponse	0	0.0	n/a	2	22	ISIslide	Neutral	True
225.722	0.25	Control	0.7082999999999999	0.0	No	2.778	0.022	n/a	NoResponse	0	n/a	n/a	2	23	Cue	Neutral	False
225.972	3.9	Control	0.7082999999999999	0.0	No	2.778	0.0	n/a	NoResponse	0	n/a	n/a	2	23	Fixation	Neutral	False
229.87	0.17	Control	0.7082999999999999	0.002	No	2.778	-0.002	n/a	NoResponse	0	n/a	n/a	2	23	Target	Neutral	False
230.053	0.53	Control	0.7082999999999999	n/a	No	2.778	n/a	n/a	NoResponse	0	n/a	n/a	2	23	Blank	Neutral	False
230.57	1.45	Control	0.7082999999999999	n/a	No	2.778	n/a	5.0	NoResponse	0	0.035	229.605	2	23	Feedback	Neutral	False
232.019	2.778	Control	0.7082999999999999	n/a	No	2.778	n/a	n/a	NoResponse	0	0.0	n/a	2	23	ISIslide	Neutral	False
234.818	0.25	Win2	0.68	0.001	No	3.132	0.018	n/a	NoResponse	0	n/a	n/a	2	24	Cue	MissedWin	True
235.068	3.95	Win2	0.68	0.0	No	3.132	0.0	n/a	NoResponse	0	n/a	n/a	2	24	Fixation	MissedWin	True
239.017	0.16	Win2	0.68	0.001	No	3.132	-0.001	2.0	NoResponse	0	0.219	238.236	2	24	Target	MissedWin	True
239.184	0.54	Win2	0.68	n/a	No	3.132	n/a	n/a	NoResponse	0	n/a	n/a	2	24	Blank	MissedWin	True
239.236	0.3	Win2	0.68	0.001	No	3.132	-0.001	2.0	NoResponse	0	0.219	n/a	2	24	ButtonPress	MissedWin	True
239.717	1.45	Win2	0.68	n/a	No	3.132	n/a	5.0	NoResponse	0	0.01	238.727	2	24	Feedback	MissedWin	True
241.166	3.132	Win2	0.68	n/a	No	3.132	n/a	n/a	NoResponse	0	0.0	n/a	2	24	ISIslide	MissedWin	True
244.315	0.25	Win2	0.6537999999999999	0.0	No	3.085	0.015	n/a	NoResponse	0	n/a	n/a	2	25	Cue	MissedWin	True
244.565	4.0	Win2	0.6537999999999999	0.0	No	3.085	0.0	n/a	NoResponse	0	n/a	n/a	2	25	Fixation	MissedWin	True
248.564	0.15	Win2	0.6537999999999999	0.001	No	3.085	-0.001	2.0	NoResponse	0	0.205	247.769	2	25	Target	MissedWin	True
248.714	0.55	Win2	0.6537999999999999	n/a	No	3.085	n/a	n/a	NoResponse	0	n/a	n/a	2	25	Blank	MissedWin	True
248.769	0.3	Win2	0.6537999999999999	0.001	No	3.085	-0.001	2.0	NoResponse	0	0.205	n/a	2	25	ButtonPress	MissedWin	True
249.263	1.45	Win2	0.6537999999999999	n/a	No	3.085	n/a	5.0	NoResponse	0	0.025	248.288	2	25	Feedback	MissedWin	True
250.713	3.085	Win2	0.6537999999999999	n/a	No	3.085	n/a	n/a	NoResponse	0	0.0	n/a	2	25	ISIslide	MissedWin	True
253.812	0.25	Win2	0.6296	0.0	No	2.938	0.012	n/a	NoResponse	0	n/a	n/a	2	26	Cue	MissedWin	True
254.062	3.95	Win2	0.6296	0.0	No	2.938	0.0	n/a	NoResponse	0	n/a	n/a	2	26	Fixation	MissedWin	True
258.01	0.16	Win2	0.6296	0.002	No	2.938	-0.002	2.0	NoResponse	0	0.172	257.182	2	26	Target	MissedWin	True
258.177	0.54	Win2	0.6296	n/a	No	2.938	n/a	n/a	NoResponse	0	n/a	n/a	2	26	Blank	MissedWin	True
258.182	0.3	Win2	0.6296	0.002	No	2.938	-0.002	2.0	NoResponse	0	0.172	n/a	2	26	ButtonPress	MissedWin	True
258.71	1.45	Win2	0.6296	n/a	No	2.938	n/a	5.0	NoResponse	0	0.042	257.752	2	26	Feedback	MissedWin	True
260.159	2.938	Win2	0.6296	n/a	No	2.938	n/a	n/a	NoResponse	0	0.0	n/a	2	26	ISIslide	MissedWin	True
263.125	0.25	Lose2	0.6071	0.0	No	2.825	0.025	n/a	NoResponse	-1	n/a	n/a	1	27	Cue	Loss	True
263.375	4.05	Lose2	0.6071	0.0	No	2.825	0.0	n/a	NoResponse	-1	n/a	n/a	1	27	Fixation	Loss	True
267.424	0.17	Lose2	0.6071	0.001	No	2.825	-0.001	2.0	NoResponse	-1	0.212	266.636	1	27	Target	Loss	True
267.607	0.53	Lose2	0.6071	n/a	No	2.825	n/a	n/a	NoResponse	-1	n/a	n/a	1	27	Blank	Loss	True
267.636	0.3	Lose2	0.6071	0.001	No	2.825	-0.001	2.0	NoResponse	-1	0.212	n/a	1	27	ButtonPress	Loss	True
268.123	1.45	Lose2	0.6071	n/a	No	2.825	n/a	5.0	NoResponse	-1	0.042	267.165	1	27	Feedback	Loss	True
269.573	2.825	Lose2	0.6071	n/a	No	2.825	n/a	n/a	NoResponse	-1	0.0	n/a	1	27	ISIslide	Loss	True
272.422	0.25	Control	0.6207	0.0	Yes	2.828	0.022	n/a	GoodResponse	0	n/a	n/a	1	28	Cue	Neutral	True
272.672	4.05	Control	0.6207	0.0	Yes	2.828	0.0	n/a	GoodResponse	0	n/a	n/a	1	28	Fixation	Neutral	True
276.72	0.18	Control	0.6207	0.002	Yes	2.828	-0.002	2.0	GoodResponse	0	0.176	275.896	1	28	Target	Neutral	True
276.896	0.3	Control	0.6207	0.002	Yes	2.828	-0.002	2.0	GoodResponse	0	0.176	n/a	1	28	ButtonPress	Neutral	True
276.903	0.52	Control	0.6207	n/a	Yes	2.828	n/a	n/a	GoodResponse	0	n/a	n/a	1	28	Blank	Neutral	True
277.42	1.45	Control	0.6207	n/a	Yes	2.828	n/a	5.0	GoodResponse	0	0.014	276.434	1	28	Feedback	Neutral	True
278.869	2.828	Control	0.6207	n/a	Yes	2.828	n/a	n/a	GoodResponse	0	0.0	n/a	1	28	ISIslide	Neutral	True
281.718	0.25	Lose2	0.6333	0.001	Yes	2.832	0.018	n/a	GoodResponse	0	n/a	n/a	1	29	Cue	AvoidedLoss	True
281.968	3.95	Lose2	0.6333	0.0	Yes	2.832	0.0	n/a	GoodResponse	0	n/a	n/a	1	29	Fixation	AvoidedLoss	True
285.917	0.19	Lose2	0.6333	0.001	Yes	2.832	-0.001	2.0	GoodResponse	0	0.182	285.099	1	29	Target	AvoidedLoss	True
286.099	0.3	Lose2	0.6333	0.001	Yes	2.832	-0.001	2.0	GoodResponse	0	0.182	n/a	1	29	ButtonPress	AvoidedLoss	True
286.117	0.51	Lose2	0.6333	n/a	Yes	2.832	n/a	n/a	GoodResponse	0	n/a	n/a	1	29	Blank	AvoidedLoss	True
286.617	1.45	Lose2	0.6333	n/a	Yes	2.832	n/a	5.0	GoodResponse	0	0.036	285.653	1	29	Feedback	AvoidedLoss	True
288.066	2.832	Lose2	0.6333	n/a	Yes	2.832	n/a	n/a	GoodResponse	0	0.0	n/a	1	29	ISIslide	AvoidedLoss	True
290.915	0.25	Win2	0.6129	0.0	No	2.785	0.015	n/a	LatePress	0	n/a	n/a	1	30	Cue	MissedWin	True
291.165	3.9	Win2	0.6129	0.0	No	2.785	0.0	n/a	LatePress	0	n/a	n/a	1	30	Fixation	MissedWin	True
295.064	0.2	Win2	0.6129	0.001	No	2.785	-0.001	2.0	LatePress	0	0.2	294.264	1	30	Target	MissedWin	True
295.264	0.5	Win2	0.6129	n/a	No	2.785	n/a	n/a	LatePress	0	n/a	n/a	1	30	Blank	MissedWin	True
295.264	0.3	Win2	0.6129	0.001	No	2.785	-0.001	2.0	LatePress	0	0.2	n/a	1	30	ButtonPress	MissedWin	True
295.763	1.45	Win2	0.6129	n/a	No	2.785	n/a	5.0	LatePress	0	0.013	294.776	1	30	Feedback	MissedWin	True
297.213	2.785	Win2	0.6129	n/a	No	2.785	n/a	n/a	LatePress	0	0.0	n/a	1	30	ISIslide	MissedWin	True
300.012	0.25	Lose2	0.625	0.0	Yes	2.838	0.012	n/a	GoodResponse	0	n/a	n/a	1	31	Cue	AvoidedLoss	True
300.262	4.05	Lose2	0.625	0.0	Yes	2.838	0.0	n/a	GoodResponse	0	n/a	n/a	1	31	Fixation	AvoidedLoss	True
304.31	0.21	Lose2	0.625	0.002	Yes	2.838	-0.002	2.0	GoodResponse	0	0.189	303.499	1	31	Target	AvoidedLoss	True
304.499	0.3	Lose2	0.625	0.002	Yes	2.838	-0.002	2.0	GoodResponse	0	0.189	n/a	1	31	ButtonPress	AvoidedLoss	True
304.527	0.49	Lose2	0.625	n/a	Yes	2.838	n/a	n/a	GoodResponse	0	n/a	n/a	1	31	Blank	AvoidedLoss	True
305.01	1.45	Lose2	0.625	n/a	Yes	2.838	n/a	5.0	GoodResponse	0	0.033	304.043	1	31	Feedback	AvoidedLoss	True
306.46	2.838	Lose2	0.625	n/a	Yes	2.838	n/a	n/a	GoodResponse	0	0.0	n/a	1	31	ISIslide	AvoidedLoss	True
309.325	0.25	Lose2	0.6364	0.0	Yes	2.625	0.025	n/a	GoodResponse	0	n/a	n/a	1	32	Cue	AvoidedLoss	True
309.575	4.15	Lose2	0.6364	0.0	Yes	2.625	0.0	n/a	GoodResponse	0	n/a	n/a	1	32	Fixation	AvoidedLoss	True
313.724	0.22	Lose2	0.6364	0.001	Yes	2.625	-0.001	2.0	GoodResponse	0	0.183	312.907	1	32	Target	AvoidedLoss	True
313.907	0.3	Lose2	0.6364	0.001	Yes	2.625	-0.001	2.0	GoodResponse	0	0.183	n/a	1	32	ButtonPress	AvoidedLoss	True
313.957	0.48	Lose2	0.6364	n/a	Yes	2.625	n/a	n/a	GoodResponse	0	n/a	n/a	1	32	Blank	AvoidedLoss	True
314.423	1.45	Lose2	0.6364	n/a	Yes	2.625	n/a	5.0	GoodResponse	0	0.035	313.458	1	32	Feedback	AvoidedLoss	True
315.873	2.625	Lose2	0.6364	n/a	Yes	2.625	n/a	n/a	GoodResponse	0	0.0	n/a	1	32	ISIslide	AvoidedLoss	True
318.522	0.25	Win2	0.6175999999999999	0.0	No	2.678	0.022	n/a	NoResponse	0	n/a	n/a	1	33	Cue	MissedWin	True
318.772	4.0	Win2	0.6175999999999999	0.0	No	2.678	0.0	n/a	NoResponse	0	n/a	n/a	1	33	Fixation	MissedWin	True
322.771	0.23	Win2	0.6175999999999999	0.001	No	2.678	-0.001	2.0	NoResponse	0	0.238	322.009	1	33	Target	MissedWin	True
323.004	0.47	Win2	0.6175999999999999	n/a	No	2.678	n/a	n/a	NoResponse	0	n/a	n/a	1	33	Blank	MissedWin	True
323.009	0.3	Win2	0.6175999999999999	0.001	No	2.678	-0.001	2.0	NoResponse	0	0.238	n/a	1	33	ButtonPress	MissedWin	True
323.47	1.45	Win2	0.6175999999999999	n/a	No	2.678	n/a	5.0	NoResponse	0	0.012	322.482	1	33	Feedback	MissedWin	True
324.92	2.678	Win2	0.6175999999999999	n/a	No	2.678	n/a	n/a	NoResponse	0	0.0	n/a	1	33	ISIslide	MissedWin	True
327.619	0.25	Lose2	0.6286	0.0	Yes	2.631	0.019	n/a	GoodResponse	0	n/a	n/a	1	34	Cue	AvoidedLoss	True
327.869	4.05	Lose2	0.6286	0.0	Yes	2.631	0.0	n/a	GoodResponse	0	n/a	n/a	1	34	Fixation	AvoidedLoss	True
331.917	0.24	Lose2	0.6286	0.002	Yes	2.631	-0.002	2.0	GoodResponse	0	0.185	331.102	1	34	Target	AvoidedLoss	True
332.102	0.3	Lose2	0.6286	0.002	Yes	2.631	-0.002	2.0	GoodResponse	0	0.185	n/a	1	34	ButtonPress	AvoidedLoss	True
332.167	0.46	Lose2	0.6286	n/a	Yes	2.631	n/a	n/a	GoodResponse	0	n/a	n/a	1	34	Blank	AvoidedLoss	True
332.617	1.45	Lose2	0.6286	n/a	Yes	2.631	n/a	5.0	GoodResponse	0	0.036	331.653	1	34	Feedback	AvoidedLoss	True
334.066	2.631	Lose2	0.6286	n/a	Yes	2.631	n/a	n/a	GoodResponse	0	0.0	n/a	1	34	ISIslide	AvoidedLoss	True
336.716	0.25	Lose2	0.6389	0.0	Yes	2.684	0.016	n/a	GoodResponse	0	n/a	n/a	1	35	Cue	AvoidedLoss	True
336.966	4.0	Lose2	0.6389	0.0	Yes	2.684	0.0	n/a	GoodResponse	0	n/a	n/a	1	35	Fixation	AvoidedLoss	True
340.964	0.25	Lose2	0.6389	0.002	Yes	2.684	-0.002	2.0	GoodResponse	0	0.205	340.169	1	35	Target	AvoidedLoss	True
341.169	0.3	Lose2	0.6389	0.002	Yes	2.684	-0.002	2.0	GoodResponse	0	0.205	n/a	1	35	ButtonPress	AvoidedLoss	True
341.214	0.45	Lose2	0.6389	n/a	Yes	2.684	n/a	n/a	GoodResponse	0	n/a	n/a	1	35	Blank	AvoidedLoss	True
341.664	1.45	Lose2	0.6389	n/a	Yes	2.684	n/a	5.0	GoodResponse	0	0.013	340.677	1	35	Feedback	AvoidedLoss	True
343.113	2.684	Lose2	0.6389	n/a	Yes	2.684	n/a	n/a	GoodResponse	0	0.0	n/a	1	35	ISIslide	AvoidedLoss	True
345.812	0.25	Control	0.6486	0.0	Yes	2.688	0.012	n/a	GoodResponse	0	n/a	n/a	1	36	Cue	Neutral	True
346.062	4.0	Control	0.6486	0.0	Yes	2.688	0.0	n/a	GoodResponse	0	n/a	n/a	1	36	Fixation	Neutral	True
350.061	0.26	Control	0.6486	0.001	Yes	2.688	-0.001	2.0	GoodResponse	0	0.214	349.275	1	36	Target	Neutral	True
350.275	0.3	Control	0.6486	0.001	Yes	2.688	-0.001	2.0	GoodResponse	0	0.214	n/a	1	36	ButtonPress	Neutral	True
350.327	0.44	Control	0.6486	n/a	Yes	2.688	n/a	n/a	GoodResponse	0	n/a	n/a	1	36	Blank	Neutral	True
350.761	1.45	Control	0.6486	n/a	Yes	2.688	n/a	5.0	GoodResponse	0	0.038	349.799	1	36	Feedback	Neutral	True
352.21	2.688	Control	0.6486	n/a	Yes	2.688	n/a	n/a	GoodResponse	0	0.0	n/a	1	36	ISIslide	Neutral	True
354.926	0.25	Win2	0.6579	0.0	Yes	2.874	0.026	n/a	GoodResponse	1	n/a	n/a	2	37	Cue	Win	True
355.176	4.0	Win2	0.6579	0.0	Yes	2.874	0.0	n/a	GoodResponse	1	n/a	n/a	2	37	Fixation	Win	True
359.174	0.27	Win2	0.6579	0.002	Yes	2.874	-0.002	2.0	GoodResponse	1	0.154	358.328	2	37	Target	Win	True
359.328	0.3	Win2	0.6579	0.002	Yes	2.874	-0.002	2.0	GoodResponse	1	0.154	n/a	2	37	ButtonPress	Win	True
359.457	0.43	Win2	0.6579	n/a	Yes	2.874	n/a	n/a	GoodResponse	1	n/a	n/a	2	37	Blank	Win	True
359.874	1.45	Win2	0.6579	n/a	Yes	2.874	n/a	5.0	GoodResponse	1	0.047	358.921	2	37	Feedback	Win	True
361.323	2.874	Win2	0.6579	n/a	Yes	2.874	n/a	n/a	GoodResponse	1	0.0	n/a	2	37	ISIslide	Win	True
364.222	0.25	Lose2	0.6667000000000001	0.0	Yes	2.828	0.022	n/a	GoodResponse	0	n/a	n/a	2	38	Cue	AvoidedLoss	True
364.472	3.95	Lose2	0.6667000000000001	0.0	Yes	2.828	0.0	n/a	GoodResponse	0	n/a	n/a	2	38	Fixation	AvoidedLoss	True
368.421	0.27	Lose2	0.6667000000000001	0.001	Yes	2.828	-0.001	2.0	GoodResponse	0	0.246	367.667	2	38	Target	AvoidedLoss	True
368.667	0.3	Lose2	0.6667000000000001	0.001	Yes	2.828	-0.001	2.0	GoodResponse	0	0.246	n/a	2	38	ButtonPress	AvoidedLoss	True
368.688	0.43	Lose2	0.6667000000000001	n/a	Yes	2.828	n/a	n/a	GoodResponse	0	n/a	n/a	2	38	Blank	AvoidedLoss	True
369.121	1.45	Lose2	0.6667000000000001	n/a	Yes	2.828	n/a	5.0	GoodResponse	0	0.019	368.14	2	38	Feedback	AvoidedLoss	True
370.57	2.828	Lose2	0.6667000000000001	n/a	Yes	2.828	n/a	n/a	GoodResponse	0	0.0	n/a	2	38	ISIslide	AvoidedLoss	True
373.419	0.25	Win2	0.675	0.0	Yes	2.981	0.019	n/a	GoodResponse	1	n/a	n/a	3	39	Cue	Win	True
373.669	4.1	Win2	0.675	0.0	Yes	2.981	0.0	n/a	GoodResponse	1	n/a	n/a	3	39	Fixation	Win	True
377.768	0.26	Win2	0.675	0.001	Yes	2.981	-0.001	2.0	GoodResponse	1	0.208	376.976	3	39	Target	Win	True
377.976	0.3	Win2	0.675	0.001	Yes	2.981	-0.001	2.0	GoodResponse	1	0.208	n/a	3	39	ButtonPress	Win	True
378.034	0.44	Win2	0.675	n/a	Yes	2.981	n/a	n/a	GoodResponse	1	n/a	n/a	3	39	Blank	Win	True
378.467	1.45	Win2	0.675	n/a	Yes	2.981	n/a	5.0	GoodResponse	1	0.038	377.505	3	39	Feedback	Win	True
379.917	2.981	Win2	0.675	n/a	Yes	2.981	n/a	n/a	GoodResponse	1	0.0	n/a	3	39	ISIslide	Win	True
382.916	0.25	Win2	0.6829000000000001	0.0	Yes	2.734	0.016	n/a	GoodResponse	1	n/a	n/a	4	40	Cue	Win	True
383.166	3.95	Win2	0.6829000000000001	0.0	Yes	2.734	0.0	n/a	GoodResponse	1	n/a	n/a	4	40	Fixation	Win	True
387.114	0.25	Win2	0.6829000000000001	0.002	Yes	2.734	-0.002	2.0	GoodResponse	1	0.2	386.314	4	40	Target	Win	True
387.314	0.3	Win2	0.6829000000000001	0.002	Yes	2.734	-0.002	2.0	GoodResponse	1	0.2	n/a	4	40	ButtonPress	Win	True
387.364	0.45	Win2	0.6829000000000001	n/a	Yes	2.734	n/a	n/a	GoodResponse	1	n/a	n/a	4	40	Blank	Win	True
387.814	1.45	Win2	0.6829000000000001	n/a	Yes	2.734	n/a	5.0	GoodResponse	1	0.008	386.822	4	40	Feedback	Win	True
389.264	2.734	Win2	0.6829000000000001	n/a	Yes	2.734	n/a	n/a	GoodResponse	1	0.0	n/a	4	40	ISIslide	Win	True
392.013	0.25	Win2	0.6905	0.0	Yes	2.787	0.013	n/a	GoodResponse	1	n/a	n/a	5	41	Cue	Win	True
392.262	3.9	Win2	0.6905	0.001	Yes	2.787	-0.001	n/a	GoodResponse	1	n/a	n/a	5	41	Fixation	Win	True
396.161	0.24	Win2	0.6905	0.002	Yes	2.787	-0.002	2.0	GoodResponse	1	0.205	395.366	5	41	Target	Win	True
396.366	0.3	Win2	0.6905	0.002	Yes	2.787	-0.002	2.0	GoodResponse	1	0.205	n/a	5	41	ButtonPress	Win	True
396.411	0.46	Win2	0.6905	n/a	Yes	2.787	n/a	n/a	GoodResponse	1	n/a	n/a	5	41	Blank	Win	True
396.861	1.45	Win2	0.6905	n/a	Yes	2.787	n/a	5.0	GoodResponse	1	0.035	395.896	5	41	Feedback	Win	True
398.31	2.787	Win2	0.6905	n/a	Yes	2.787	n/a	n/a	GoodResponse	1	0.0	n/a	5	41	ISIslide	Win	True
401.109	0.25	Control	0.6977	0.0	Yes	2.941	0.009	n/a	GoodResponse	0	n/a	n/a	5	42	Cue	Neutral	False
401.359	3.85	Control	0.6977	0.0	Yes	2.941	0.0	2.0	GoodResponse	0	3.338	403.697	5	42	Fixation	Neutral	False
404.697	0.3	Control	0.6977	0.0	Yes	2.941	0.0	2.0	GoodResponse	0	3.338	n/a	5	42	ButtonPress	Neutral	False
405.208	0.23	Control	0.6977	0.001	Yes	2.941	-0.001	2.0	GoodResponse	0	0.183	404.391	5	42	Target	Neutral	False
405.391	0.3	Control	0.6977	0.001	Yes	2.941	-0.001	2.0	GoodResponse	0	0.183	n/a	5	42	ButtonPress	Neutral	False
405.441	0.47	Control	0.6977	n/a	Yes	2.941	n/a	n/a	GoodResponse	0	n/a	n/a	5	42	Blank	Neutral	False
405.908	1.45	Control	0.6977	n/a	Yes	2.941	n/a	5.0	GoodResponse	0	0.012	404.92	5	42	Feedback	Neutral	False
407.357	2.941	Control	0.6977	n/a	Yes	2.941	n/a	n/a	GoodResponse	0	0.0	n/a	5	42	ISIslide	Neutral	False
410.323	0.25	Win2	0.7045	0.0	Yes	3.177	0.023	n/a	GoodResponse	1	n/a	n/a	6	43	Cue	Win	True
410.573	4.0	Win2	0.7045	0.0	Yes	3.177	0.0	n/a	GoodResponse	1	n/a	n/a	6	43	Fixation	Win	True
414.571	0.22	Win2	0.7045	0.002	Yes	3.177	-0.002	2.0	GoodResponse	1	0.218	413.789	6	43	Target	Win	True
414.789	0.3	Win2	0.7045	0.002	Yes	3.177	-0.002	2.0	GoodResponse	1	0.218	n/a	6	43	ButtonPress	Win	True
414.804	0.48	Win2	0.7045	n/a	Yes	3.177	n/a	n/a	GoodResponse	1	n/a	n/a	6	43	Blank	Win	True
415.271	1.45	Win2	0.7045	n/a	Yes	3.177	n/a	5.0	GoodResponse	1	0.014	414.285	6	43	Feedback	Win	True
416.72	3.177	Win2	0.7045	n/a	Yes	3.177	n/a	n/a	GoodResponse	1	0.0	n/a	6	43	ISIslide	Win	True
419.919	0.25	Win2	0.7111	0.0	Yes	2.981	0.019	n/a	GoodResponse	1	n/a	n/a	7	44	Cue	Win	True
420.169	4.0	Win2	0.7111	0.0	Yes	2.981	0.0	n/a	GoodResponse	1	n/a	n/a	7	44	Fixation	Win	True
424.168	0.21	Win2	0.7111	0.001	Yes	2.981	-0.001	2.0	GoodResponse	1	0.202	423.37	7	44	Target	Win	True
424.37	0.3	Win2	0.7111	0.001	Yes	2.981	-0.001	2.0	GoodResponse	1	0.202	n/a	7	44	ButtonPress	Win	True
424.384	0.49	Win2	0.7111	n/a	Yes	2.981	n/a	n/a	GoodResponse	1	n/a	n/a	7	44	Blank	Win	True
424.868	1.45	Win2	0.7111	n/a	Yes	2.981	n/a	5.0	GoodResponse	1	0.027	423.895	7	44	Feedback	Win	True
426.317	2.981	Win2	0.7111	n/a	Yes	2.981	n/a	n/a	GoodResponse	1	0.0	n/a	7	44	ISIslide	Win	True
429.316	0.25	Control	0.6957	0.0	No	2.884	0.016	n/a	NoResponse	0	n/a	n/a	7	45	Cue	Neutral	True
429.566	4.1	Control	0.6957	0.0	No	2.884	0.0	n/a	NoResponse	0	n/a	n/a	7	45	Fixation	Neutral	True
433.664	0.2	Control	0.6957	0.002	No	2.884	-0.002	2.0	NoResponse	0	0.23	432.894	7	45	Target	Neutral	True
433.864	0.5	Control	0.6957	n/a	No	2.884	n/a	n/a	NoResponse	0	n/a	n/a	7	45	Blank	Neutral	True
433.894	0.3	Control	0.6957	0.002	No	2.884	-0.002	2.0	NoResponse	0	0.23	n/a	7	45	ButtonPress	Neutral	True
434.364	1.45	Control	0.6957	n/a	No	2.884	n/a	5.0	NoResponse	0	0.043	433.407	7	45	Feedback	Neutral	True
435.814	2.884	Control	0.6957	n/a	No	2.884	n/a	n/a	NoResponse	0	0.0	n/a	7	45	ISIslide	Neutral	True
438.713	0.25	Lose2	0.6809000000000001	0.0	No	3.387	0.013	n/a	LatePress	-1	n/a	n/a	6	46	Cue	Loss	True
438.963	4.0	Lose2	0.6809000000000001	0.0	No	3.387	0.0	n/a	LatePress	-1	n/a	n/a	6	46	Fixation	Loss	True
442.961	0.19	Lose2	0.6809000000000001	0.002	No	3.387	-0.002	2.0	LatePress	-1	0.199	442.16	6	46	Target	Loss	True
443.16	0.3	Lose2	0.6809000000000001	0.002	No	3.387	-0.002	2.0	LatePress	-1	0.199	n/a	6	46	ButtonPress	Loss	True
443.161	0.51	Lose2	0.6809000000000001	n/a	No	3.387	n/a	n/a	LatePress	-1	n/a	n/a	6	46	Blank	Loss	True
443.661	1.45	Lose2	0.6809000000000001	n/a	No	3.387	n/a	5.0	LatePress	-1	0.015	442.676	6	46	Feedback	Loss	True
445.11	3.387	Lose2	0.6809000000000001	n/a	No	3.387	n/a	n/a	LatePress	-1	0.0	n/a	6	46	ISIslide	Loss	True
448.526	0.25	Lose2	0.6667000000000001	0.0	No	2.674	0.026	n/a	NoResponse	-1	n/a	n/a	5	47	Cue	Loss	True
448.776	4.0	Lose2	0.6667000000000001	0.0	No	2.674	0.0	n/a	NoResponse	-1	n/a	n/a	5	47	Fixation	Loss	True
452.774	0.18	Lose2	0.6667000000000001	0.002	No	2.674	-0.002	2.0	NoResponse	-1	0.246	452.02	5	47	Target	Loss	True
452.958	0.52	Lose2	0.6667000000000001	n/a	No	2.674	n/a	n/a	NoResponse	-1	n/a	n/a	5	47	Blank	Loss	True
453.02	0.3	Lose2	0.6667000000000001	0.002	No	2.674	-0.002	2.0	NoResponse	-1	0.246	n/a	5	47	ButtonPress	Loss	True
453.474	1.45	Lose2	0.6667000000000001	n/a	No	2.674	n/a	5.0	NoResponse	-1	0.006	452.48	5	47	Feedback	Loss	True
454.923	2.674	Lose2	0.6667000000000001	n/a	No	2.674	n/a	n/a	NoResponse	-1	0.0	n/a	5	47	ISIslide	Loss	True
457.623	0.25	Lose2	0.6531	0.0	No	3.027	0.023	n/a	NoResponse	-1	n/a	n/a	4	48	Cue	Loss	True
457.872	3.95	Lose2	0.6531	0.001	No	3.027	-0.001	n/a	NoResponse	-1	n/a	n/a	4	48	Fixation	Loss	True
461.821	0.17	Lose2	0.6531	0.002	No	3.027	-0.002	2.0	NoResponse	-1	0.204	461.025	4	48	Target	Loss	True
462.004	0.53	Lose2	0.6531	n/a	No	3.027	n/a	n/a	NoResponse	-1	n/a	n/a	4	48	Blank	Loss	True
462.025	0.3	Lose2	0.6531	0.002	No	3.027	-0.002	2.0	NoResponse	-1	0.204	n/a	4	48	ButtonPress	Loss	True
462.521	1.45	Lose2	0.6531	n/a	No	3.027	n/a	5.0	NoResponse	-1	0.032	461.553	4	48	Feedback	Loss	True
463.97	3.027	Lose2	0.6531	n/a	No	3.027	n/a	n/a	NoResponse	-1	0.0	n/a	4	48	ISIslide	Loss	True
467.019	0.25	Control	0.64	0.0	No	2.881	0.019	n/a	NoResponse	0	n/a	n/a	4	49	Cue	Neutral	True
467.269	4.0	Control	0.64	0.0	No	2.881	0.0	n/a	NoResponse	0	n/a	n/a	4	49	Fixation	Neutral	True
471.268	0.18	Control	0.64	0.001	No	2.881	-0.001	2.0	NoResponse	0	0.211	470.479	4	49	Target	Neutral	True
471.451	0.52	Control	0.64	n/a	No	2.881	n/a	n/a	NoResponse	0	n/a	n/a	4	49	Blank	Neutral	True
471.479	0.3	Control	0.64	0.001	No	2.881	-0.001	2.0	NoResponse	0	0.211	n/a	4	49	ButtonPress	Neutral	True
471.967	1.45	Control	0.64	n/a	No	2.881	n/a	5.0	NoResponse	0	0.001	470.968	4	49	Feedback	Neutral	True
473.417	2.881	Control	0.64	n/a	No	2.881	n/a	n/a	NoResponse	0	0.0	n/a	4	49	ISIslide	Neutral	True
476.316	0.25	Control	0.6275	0.0	No	2.784	0.016	n/a	NoResponse	0	n/a	n/a	4	50	Cue	Neutral	True
476.566	4.0	Control	0.6275	0.0	No	2.784	0.0	n/a	NoResponse	0	n/a	n/a	4	50	Fixation	Neutral	True
480.564	0.19	Control	0.6275	0.002	No	2.784	-0.002	2.0	NoResponse	0	0.227	479.791	4	50	Target	Neutral	True
480.764	0.51	Control	0.6275	n/a	No	2.784	n/a	n/a	NoResponse	0	n/a	n/a	4	50	Blank	Neutral	True
480.791	0.3	Control	0.6275	0.002	No	2.784	-0.002	2.0	NoResponse	0	0.227	n/a	4	50	ButtonPress	Neutral	True
481.264	1.45	Control	0.6275	n/a	No	2.784	n/a	5.0	NoResponse	0	0.021	480.285	4	50	Feedback	Neutral	True
482.714	2.784	Control	0.6275	n/a	No	2.784	n/a	n/a	NoResponse	0	0.0	n/a	4	50	ISIslide	Neutral	True
485.513	0.25	Control	0.6154	0.0	No	2.737	0.013	n/a	NoResponse	0	n/a	n/a	4	51	Cue	Neutral	True
485.763	3.95	Control	0.6154	0.0	No	2.737	0.0	n/a	NoResponse	0	n/a	n/a	4	51	Fixation	Neutral	True
489.711	0.2	Control	0.6154	0.002	No	2.737	-0.002	2.0	NoResponse	0	0.209	488.92	4	51	Target	Neutral	True
489.911	0.5	Control	0.6154	n/a	No	2.737	n/a	n/a	NoResponse	0	n/a	n/a	4	51	Blank	Neutral	True
489.92	0.3	Control	0.6154	0.002	No	2.737	-0.002	2.0	NoResponse	0	0.209	n/a	4	51	ButtonPress	Neutral	True
490.411	1.45	Control	0.6154	n/a	No	2.737	n/a	5.0	NoResponse	0	0.044	489.455	4	51	Feedback	Neutral	True
491.86	2.737	Control	0.6154	n/a	No	2.737	n/a	n/a	NoResponse	0	0.0	n/a	4	51	ISIslide	Neutral	True
494.609	0.25	Control	0.6038	0.0	No	2.641	0.009	n/a	LatePress	0	n/a	n/a	4	52	Cue	Neutral	True
494.859	4.05	Control	0.6038	0.0	No	2.641	0.0	n/a	LatePress	0	n/a	n/a	4	52	Fixation	Neutral	True
498.908	0.21	Control	0.6038	0.001	No	2.641	-0.001	2.0	LatePress	0	0.213	498.121	4	52	Target	Neutral	True
499.121	0.3	Control	0.6038	0.001	No	2.641	-0.001	2.0	LatePress	0	0.213	n/a	4	52	ButtonPress	Neutral	True
499.124	0.49	Control	0.6038	n/a	No	2.641	n/a	n/a	LatePress	0	n/a	n/a	4	52	Blank	Neutral	True
499.608	1.45	Control	0.6038	n/a	No	2.641	n/a	5.0	LatePress	0	0.018	498.626	4	52	Feedback	Neutral	True
501.057	2.641	Control	0.6038	n/a	No	2.641	n/a	n/a	LatePress	0	0.0	n/a	4	52	ISIslide	Neutral	True
503.723	0.25	Win2	0.5926	0.0	No	2.927	0.023	n/a	LatePress	0	n/a	n/a	4	53	Cue	MissedWin	True
503.973	4.05	Win2	0.5926	0.0	No	2.927	0.0	n/a	LatePress	0	n/a	n/a	4	53	Fixation	MissedWin	True
508.021	0.22	Win2	0.5926	0.002	No	2.927	-0.002	2.0	LatePress	0	0.229	507.25	4	53	Target	MissedWin	True
508.25	0.3	Win2	0.5926	0.002	No	2.927	-0.002	2.0	LatePress	0	0.229	n/a	4	53	ButtonPress	MissedWin	True
508.255	0.48	Win2	0.5926	n/a	No	2.927	n/a	n/a	LatePress	0	n/a	n/a	4	53	Blank	MissedWin	True
508.721	1.45	Win2	0.5926	n/a	No	2.927	n/a	5.0	LatePress	0	0.027	507.748	4	53	Feedback	MissedWin	True
510.171	2.927	Win2	0.5926	n/a	No	2.927	n/a	n/a	LatePress	0	0.0	n/a	4	53	ISIslide	MissedWin	True
513.119	0.25	Win2	0.6	0.001	Yes	2.731	0.019	n/a	GoodResponse	1	n/a	n/a	5	54	Cue	Win	True
513.369	3.95	Win2	0.6	0.0	Yes	2.731	0.0	n/a	GoodResponse	1	n/a	n/a	5	54	Fixation	Win	True
517.318	0.23	Win2	0.6	0.001	Yes	2.731	-0.001	2.0	GoodResponse	1	0.194	516.512	5	54	Target	Win	True
517.512	0.3	Win2	0.6	0.001	Yes	2.731	-0.001	2.0	GoodResponse	1	0.194	n/a	5	54	ButtonPress	Win	True
517.551	0.47	Win2	0.6	n/a	Yes	2.731	n/a	n/a	GoodResponse	1	n/a	n/a	5	54	Blank	Win	True
518.018	1.45	Win2	0.6	n/a	Yes	2.731	n/a	5.0	GoodResponse	1	0.047	517.065	5	54	Feedback	Win	True
519.467	2.731	Win2	0.6	n/a	Yes	2.731	n/a	n/a	GoodResponse	1	0.0	n/a	5	54	ISIslide	Win	True
522.216	0.25	Control	0.6071	0.0	Yes	3.034	0.016	n/a	GoodResponse	0	n/a	n/a	5	55	Cue	Neutral	True
522.466	3.95	Control	0.6071	0.0	Yes	3.034	0.0	n/a	GoodResponse	0	n/a	n/a	5	55	Fixation	Neutral	True
526.415	0.24	Control	0.6071	0.001	Yes	3.034	-0.001	2.0	GoodResponse	0	0.192	525.607	5	55	Target	Neutral	True
526.607	0.3	Control	0.6071	0.001	Yes	3.034	-0.001	2.0	GoodResponse	0	0.192	n/a	5	55	ButtonPress	Neutral	True
526.665	0.46	Control	0.6071	n/a	Yes	3.034	n/a	n/a	GoodResponse	0	n/a	n/a	5	55	Blank	Neutral	True
527.114	1.45	Control	0.6071	n/a	Yes	3.034	n/a	5.0	GoodResponse	0	0.023	526.137	5	55	Feedback	Neutral	True
528.564	3.034	Control	0.6071	n/a	Yes	3.034	n/a	n/a	GoodResponse	0	0.0	n/a	5	55	ISIslide	Neutral	True
531.613	0.25	Control	0.614	0.0	Yes	2.837	0.013	n/a	GoodResponse	0	n/a	n/a	5	56	Cue	Neutral	True
531.863	3.95	Control	0.614	0.0	Yes	2.837	0.0	n/a	GoodResponse	0	n/a	n/a	5	56	Fixation	Neutral	True
535.811	0.25	Control	0.614	0.002	Yes	2.837	-0.002	2.0	GoodResponse	0	0.235	535.046	5	56	Target	Neutral	True
536.046	0.3	Control	0.614	0.002	Yes	2.837	-0.002	2.0	GoodResponse	0	0.235	n/a	5	56	ButtonPress	Neutral	True
536.061	0.45	Control	0.614	n/a	Yes	2.837	n/a	n/a	GoodResponse	0	n/a	n/a	5	56	Blank	Neutral	True
536.511	1.45	Control	0.614	n/a	Yes	2.837	n/a	5.0	GoodResponse	0	0.041	535.552	5	56	Feedback	Neutral	True
537.961	2.837	Control	0.614	n/a	Yes	2.837	n/a	n/a	GoodResponse	0	0.0	n/a	5	56	ISIslide	Neutral	True
540.826	0.25	Control	0.6207	0.0	Yes	3.474	0.026	n/a	GoodResponse	0	n/a	n/a	5	57	Cue	Neutral	True
541.076	4.0	Control	0.6207	0.0	Yes	3.474	0.0	n/a	GoodResponse	0	n/a	n/a	5	57	Fixation	Neutral	True
545.075	0.26	Control	0.6207	0.001	Yes	3.474	-0.001	2.0	GoodResponse	0	0.227	544.302	5	57	Target	Neutral	True
545.302	0.3	Control	0.6207	0.001	Yes	3.474	-0.001	2.0	GoodResponse	0	0.227	n/a	5	57	ButtonPress	Neutral	True
545.341	0.44	Control	0.6207	n/a	Yes	3.474	n/a	n/a	GoodResponse	0	n/a	n/a	5	57	Blank	Neutral	True
545.775	1.45	Control	0.6207	n/a	Yes	3.474	n/a	5.0	GoodResponse	0	0.045	544.82	5	57	Feedback	Neutral	True
547.224	3.474	Control	0.6207	n/a	Yes	3.474	n/a	n/a	GoodResponse	0	0.0	n/a	5	57	ISIslide	Neutral	True
550.723	0.25	Win2	0.6271	0.0	Yes	2.727	0.023	n/a	GoodResponse	1	n/a	n/a	6	58	Cue	Win	True
550.973	4.05	Win2	0.6271	0.0	Yes	2.727	0.0	n/a	GoodResponse	1	n/a	n/a	6	58	Fixation	Win	True
555.021	0.27	Win2	0.6271	0.002	Yes	2.727	-0.002	2.0	GoodResponse	1	0.237	554.258	6	58	Target	Win	True
555.258	0.3	Win2	0.6271	0.002	Yes	2.727	-0.002	2.0	GoodResponse	1	0.237	n/a	6	58	ButtonPress	Win	True
555.304	0.43	Win2	0.6271	n/a	Yes	2.727	n/a	n/a	GoodResponse	1	n/a	n/a	6	58	Blank	Win	True
555.721	1.45	Win2	0.6271	n/a	Yes	2.727	n/a	5.0	GoodResponse	1	0.002	554.723	6	58	Feedback	Win	True
557.17	2.727	Win2	0.6271	n/a	Yes	2.727	n/a	n/a	GoodResponse	1	0.0	n/a	6	58	ISIslide	Win	True
559.919	0.25	Lose2	0.6333	0.001	Yes	2.681	0.019	n/a	GoodResponse	0	n/a	n/a	6	59	Cue	AvoidedLoss	True
560.169	4.0	Lose2	0.6333	0.001	Yes	2.681	0.0	n/a	GoodResponse	0	n/a	n/a	6	59	Fixation	AvoidedLoss	True
564.168	0.28	Lose2	0.6333	0.001	Yes	2.681	-0.001	2.0	GoodResponse	0	0.197	563.365	6	59	Target	AvoidedLoss	True
564.365	0.3	Lose2	0.6333	0.001	Yes	2.681	-0.001	2.0	GoodResponse	0	0.197	n/a	6	59	ButtonPress	AvoidedLoss	True
564.451	0.42	Lose2	0.6333	n/a	Yes	2.681	n/a	n/a	GoodResponse	0	n/a	n/a	6	59	Blank	AvoidedLoss	True
564.868	1.45	Lose2	0.6333	n/a	Yes	2.681	n/a	5.0	GoodResponse	0	0.025	563.893	6	59	Feedback	AvoidedLoss	True
566.317	2.681	Lose2	0.6333	n/a	Yes	2.681	n/a	n/a	GoodResponse	0	0.0	n/a	6	59	ISIslide	AvoidedLoss	True
569.016	0.25	Control	0.6393	0.0	Yes	2.684	0.016	n/a	GoodResponse	0	n/a	n/a	6	60	Cue	Neutral	True
569.266	4.0	Control	0.6393	0.0	Yes	2.684	0.0	n/a	GoodResponse	0	n/a	n/a	6	60	Fixation	Neutral	True
573.265	0.29	Control	0.6393	0.001	Yes	2.684	-0.001	2.0	GoodResponse	0	0.21	572.475	6	60	Target	Neutral	True
573.475	0.3	Control	0.6393	0.001	Yes	2.684	-0.001	2.0	GoodResponse	0	0.21	n/a	6	60	ButtonPress	Neutral	True
573.565	0.41	Control	0.6393	n/a	Yes	2.684	n/a	n/a	GoodResponse	0	n/a	n/a	6	60	Blank	Neutral	True
573.964	1.45	Control	0.6393	n/a	Yes	2.684	n/a	5.0	GoodResponse	0	0.004	572.968	6	60	Feedback	Neutral	True
575.414	2.684	Control	0.6393	n/a	Yes	2.684	n/a	n/a	GoodResponse	0	0.0	n/a	6	60	ISIslide	Neutral	True
578.113	0.25	Lose2	0.6452	0.0	Yes	2.987	0.013	n/a	GoodResponse	0	n/a	n/a	6	61	Cue	AvoidedLoss	True
578.363	4.0	Lose2	0.6452	0.0	Yes	2.987	0.0	n/a	GoodResponse	0	n/a	n/a	6	61	Fixation	AvoidedLoss	True
582.362	0.3	Lose2	0.6452	0.001	Yes	2.987	-0.001	2.0	GoodResponse	0	0.182	581.544	6	61	Target	AvoidedLoss	True
582.544	0.3	Lose2	0.6452	0.001	Yes	2.987	-0.001	2.0	GoodResponse	0	0.182	n/a	6	61	ButtonPress	AvoidedLoss	True
582.661	0.4	Lose2	0.6452	n/a	Yes	2.987	n/a	n/a	GoodResponse	0	n/a	n/a	6	61	Blank	AvoidedLoss	True
583.061	1.45	Lose2	0.6452	n/a	Yes	2.987	n/a	5.0	GoodResponse	0	0.027	582.088	6	61	Feedback	AvoidedLoss	True
584.511	2.987	Lose2	0.6452	n/a	Yes	2.987	n/a	n/a	GoodResponse	0	0.0	n/a	6	61	ISIslide	AvoidedLoss	True
587.526	0.25	Lose2	0.6507999999999999	0.0	Yes	2.874	0.026	n/a	GoodResponse	0	n/a	n/a	6	62	Cue	AvoidedLoss	True
587.776	3.9	Lose2	0.6507999999999999	0.0	Yes	2.874	0.0	n/a	GoodResponse	0	n/a	n/a	6	62	Fixation	AvoidedLoss	True
591.675	0.31	Lose2	0.6507999999999999	0.001	Yes	2.874	-0.001	2.0	GoodResponse	0	0.205	590.88	6	62	Target	AvoidedLoss	True
591.88	0.3	Lose2	0.6507999999999999	0.001	Yes	2.874	-0.001	2.0	GoodResponse	0	0.205	n/a	6	62	ButtonPress	AvoidedLoss	True
591.991	0.39	Lose2	0.6507999999999999	n/a	Yes	2.874	n/a	n/a	GoodResponse	0	n/a	n/a	6	62	Blank	AvoidedLoss	True
592.375	1.45	Lose2	0.6507999999999999	n/a	Yes	2.874	n/a	5.0	GoodResponse	0	0.03	591.405	6	62	Feedback	AvoidedLoss	True
593.824	2.874	Lose2	0.6507999999999999	n/a	Yes	2.874	n/a	n/a	GoodResponse	0	0.0	n/a	6	62	ISIslide	AvoidedLoss	True
596.723	0.25	Lose2	0.6562	0.0	Yes	2.627	0.023	n/a	GoodResponse	0	n/a	n/a	6	63	Cue	AvoidedLoss	True
596.973	4.05	Lose2	0.6562	0.0	Yes	2.627	0.0	n/a	GoodResponse	0	n/a	n/a	6	63	Fixation	AvoidedLoss	True
601.022	0.32	Lose2	0.6562	0.001	Yes	2.627	-0.001	2.0	GoodResponse	0	0.204	600.226	6	63	Target	AvoidedLoss	True
601.226	0.3	Lose2	0.6562	0.001	Yes	2.627	-0.001	2.0	GoodResponse	0	0.204	n/a	6	63	ButtonPress	AvoidedLoss	True
601.355	0.38	Lose2	0.6562	n/a	Yes	2.627	n/a	n/a	GoodResponse	0	n/a	n/a	6	63	Blank	AvoidedLoss	True
601.721	1.45	Lose2	0.6562	n/a	Yes	2.627	n/a	5.0	GoodResponse	0	0.001	600.722	6	63	Feedback	AvoidedLoss	True
603.171	2.627	Lose2	0.6562	n/a	Yes	2.627	n/a	n/a	GoodResponse	0	0.0	n/a	6	63	ISIslide	AvoidedLoss	True
605.82	0.25	Win2	0.6615000000000001	0.0	Yes	3.13	0.02	n/a	GoodResponse	1	n/a	n/a	7	64	Cue	Win	True
606.07	4.15	Win2	0.6615000000000001	0.0	Yes	3.13	0.0	n/a	GoodResponse	1	n/a	n/a	7	64	Fixation	Win	True
610.218	0.32	Win2	0.6615000000000001	0.002	Yes	3.13	-0.002	2.0	GoodResponse	1	0.199	609.417	7	64	Target	Win	True
610.417	0.3	Win2	0.6615000000000001	0.002	Yes	3.13	-0.002	2.0	GoodResponse	1	0.199	n/a	7	64	ButtonPress	Win	True
610.551	0.38	Win2	0.6615000000000001	n/a	Yes	3.13	n/a	n/a	GoodResponse	1	n/a	n/a	7	64	Blank	Win	True
610.918	1.45	Win2	0.6615000000000001	n/a	Yes	3.13	n/a	5.0	GoodResponse	1	0.023	609.941	7	64	Feedback	Win	True
612.367	3.13	Win2	0.6615000000000001	n/a	Yes	3.13	n/a	n/a	GoodResponse	1	0.0	n/a	7	64	ISIslide	Win	True
615.516	0.25	Control	0.6667000000000001	0.0	Yes	2.784	0.016	n/a	GoodResponse	0	n/a	n/a	7	65	Cue	Neutral	True
615.766	4.0	Control	0.6667000000000001	0.0	Yes	2.784	0.0	n/a	GoodResponse	0	n/a	n/a	7	65	Fixation	Neutral	True
619.765	0.32	Control	0.6667000000000001	0.001	Yes	2.784	-0.001	2.0	GoodResponse	0	0.218	618.983	7	65	Target	Neutral	True
619.983	0.3	Control	0.6667000000000001	0.001	Yes	2.784	-0.001	2.0	GoodResponse	0	0.218	n/a	7	65	ButtonPress	Neutral	True
620.081	0.38	Control	0.6667000000000001	n/a	Yes	2.784	n/a	n/a	GoodResponse	0	n/a	n/a	7	65	Blank	Neutral	True
620.465	1.45	Control	0.6667000000000001	n/a	Yes	2.784	n/a	5.0	GoodResponse	0	0.037	619.502	7	65	Feedback	Neutral	True
621.914	2.784	Control	0.6667000000000001	n/a	Yes	2.784	n/a	n/a	GoodResponse	0	0.0	n/a	7	65	ISIslide	Neutral	True
624.73	0.25	Win2	0.6716	0.0	Yes	2.77	0.03	n/a	GoodResponse	1	n/a	n/a	8	66	Cue	Win	True
624.98	3.9	Win2	0.6716	0.0	Yes	2.77	0.0	n/a	GoodResponse	1	n/a	n/a	8	66	Fixation	Win	True
628.878	0.31	Win2	0.6716	0.002	Yes	2.77	-0.002	2.0	GoodResponse	1	0.231	628.109	8	66	Target	Win	True
629.109	0.3	Win2	0.6716	0.002	Yes	2.77	-0.002	2.0	GoodResponse	1	0.231	n/a	8	66	ButtonPress	Win	True
629.195	0.39	Win2	0.6716	n/a	Yes	2.77	n/a	n/a	GoodResponse	1	n/a	n/a	8	66	Blank	Win	True
629.578	1.45	Win2	0.6716	n/a	Yes	2.77	n/a	5.0	GoodResponse	1	0.046	628.624	8	66	Feedback	Win	True
631.028	2.77	Win2	0.6716	n/a	Yes	2.77	n/a	n/a	GoodResponse	1	0.0	n/a	8	66	ISIslide	Win	True
633.827	0.25	Control	0.6765000000000001	0.0	Yes	2.723	0.027	n/a	GoodResponse	0	n/a	n/a	8	67	Cue	Neutral	True
634.076	3.95	Control	0.6765000000000001	0.001	Yes	2.723	-0.001	n/a	GoodResponse	0	n/a	n/a	8	67	Fixation	Neutral	True
638.025	0.3	Control	0.6765000000000001	0.002	Yes	2.723	-0.002	2.0	GoodResponse	0	0.202	637.227	8	67	Target	Neutral	True
638.227	0.3	Control	0.6765000000000001	0.002	Yes	2.723	-0.002	2.0	GoodResponse	0	0.202	n/a	8	67	ButtonPress	Neutral	True
638.325	0.4	Control	0.6765000000000001	n/a	Yes	2.723	n/a	n/a	GoodResponse	0	n/a	n/a	8	67	Blank	Neutral	True
638.725	1.45	Control	0.6765000000000001	n/a	Yes	2.723	n/a	5.0	GoodResponse	0	0.02	637.745	8	67	Feedback	Neutral	True
640.174	2.723	Control	0.6765000000000001	n/a	Yes	2.723	n/a	n/a	GoodResponse	0	0.0	n/a	8	67	ISIslide	Neutral	True
642.923	0.25	Win2	0.6812	0.0	Yes	3.077	0.023	n/a	GoodResponse	1	n/a	n/a	9	68	Cue	Win	False
643.173	4.0	Win2	0.6812	0.0	Yes	3.077	0.0	2.0	GoodResponse	1	3.46	645.633	9	68	Fixation	Win	False
646.633	0.3	Win2	0.6812	0.0	Yes	3.077	0.0	2.0	GoodResponse	1	3.46	n/a	9	68	ButtonPress	Win	False
647.172	0.29	Win2	0.6812	0.001	Yes	3.077	-0.001	2.0	GoodResponse	1	0.195	646.367	9	68	Target	Win	False
647.367	0.3	Win2	0.6812	0.001	Yes	3.077	-0.001	2.0	GoodResponse	1	0.195	n/a	9	68	ButtonPress	Win	False
647.472	0.41	Win2	0.6812	n/a	Yes	3.077	n/a	n/a	GoodResponse	1	n/a	n/a	9	68	Blank	Win	False
647.872	1.45	Win2	0.6812	n/a	Yes	3.077	n/a	5.0	GoodResponse	1	0.044	646.916	9	68	Feedback	Win	False
649.321	3.077	Win2	0.6812	n/a	Yes	3.077	n/a	n/a	GoodResponse	1	0.0	n/a	9	68	ISIslide	Win	False
652.42	0.25	Win2	0.6857	0.0	Yes	3.23	0.02	n/a	GoodResponse	1	n/a	n/a	10	69	Cue	Win	True
652.67	3.95	Win2	0.6857	0.0	Yes	3.23	0.0	n/a	GoodResponse	1	n/a	n/a	10	69	Fixation	Win	True
656.618	0.28	Win2	0.6857	0.002	Yes	3.23	-0.002	2.0	GoodResponse	1	0.218	655.836	10	69	Target	Win	True
656.836	0.3	Win2	0.6857	0.002	Yes	3.23	-0.002	2.0	GoodResponse	1	0.218	n/a	10	69	ButtonPress	Win	True
656.902	0.42	Win2	0.6857	n/a	Yes	3.23	n/a	n/a	GoodResponse	1	n/a	n/a	10	69	Blank	Win	True
657.318	1.45	Win2	0.6857	n/a	Yes	3.23	n/a	5.0	GoodResponse	1	0.013	656.331	10	69	Feedback	Win	True
658.768	3.23	Win2	0.6857	n/a	Yes	3.23	n/a	n/a	GoodResponse	1	0.0	n/a	10	69	ISIslide	Win	True
662.017	0.25	Lose2	0.6901	0.0	Yes	3.033	0.017	n/a	GoodResponse	0	n/a	n/a	10	70	Cue	AvoidedLoss	True
662.266	4.05	Lose2	0.6901	0.001	Yes	3.033	-0.001	n/a	GoodResponse	0	n/a	n/a	10	70	Fixation	AvoidedLoss	True
666.315	0.27	Lose2	0.6901	0.002	Yes	3.033	-0.002	2.0	GoodResponse	0	0.232	665.547	10	70	Target	AvoidedLoss	True
666.547	0.3	Lose2	0.6901	0.002	Yes	3.033	-0.002	2.0	GoodResponse	0	0.232	n/a	10	70	ButtonPress	AvoidedLoss	True
666.598	0.43	Lose2	0.6901	n/a	Yes	3.033	n/a	n/a	GoodResponse	0	n/a	n/a	10	70	Blank	AvoidedLoss	True
667.015	1.45	Lose2	0.6901	n/a	Yes	3.033	n/a	5.0	GoodResponse	0	0.023	666.038	10	70	Feedback	AvoidedLoss	True
668.464	3.033	Lose2	0.6901	n/a	Yes	3.033	n/a	n/a	GoodResponse	0	0.0	n/a	10	70	ISIslide	AvoidedLoss	True
671.513	0.25	Win2	0.6944	0.0	Yes	2.737	0.013	n/a	GoodResponse	1	n/a	n/a	11	71	Cue	Win	True
671.763	4.05	Win2	0.6944	0.0	Yes	2.737	0.0	n/a	GoodResponse	1	n/a	n/a	11	71	Fixation	Win	True
675.812	0.26	Win2	0.6944	0.001	Yes	2.737	-0.001	2.0	GoodResponse	1	0.238	675.05	11	71	Target	Win	True
676.05	0.3	Win2	0.6944	0.001	Yes	2.737	-0.001	2.0	GoodResponse	1	0.238	n/a	11	71	ButtonPress	Win	True
676.078	0.44	Win2	0.6944	n/a	Yes	2.737	n/a	n/a	GoodResponse	1	n/a	n/a	11	71	Blank	Win	True
676.511	1.45	Win2	0.6944	n/a	Yes	2.737	n/a	5.0	GoodResponse	1	0.039	675.55	11	71	Feedback	Win	True
677.961	2.737	Win2	0.6944	n/a	Yes	2.737	n/a	n/a	GoodResponse	1	0.0	n/a	11	71	ISIslide	Win	True
680.727	0.25	Win2	0.6986	0.0	Yes	2.773	0.027	n/a	GoodResponse	1	n/a	n/a	12	72	Cue	Win	True
680.976	4.1	Win2	0.6986	0.001	Yes	2.773	-0.001	n/a	GoodResponse	1	n/a	n/a	12	72	Fixation	Win	True
685.075	0.25	Win2	0.6986	0.002	Yes	2.773	-0.002	2.0	GoodResponse	1	0.214	684.289	12	72	Target	Win	True
685.289	0.3	Win2	0.6986	0.002	Yes	2.773	-0.002	2.0	GoodResponse	1	0.214	n/a	12	72	ButtonPress	Win	True
685.325	0.45	Win2	0.6986	n/a	Yes	2.773	n/a	n/a	GoodResponse	1	n/a	n/a	12	72	Blank	Win	True
685.775	1.45	Win2	0.6986	n/a	Yes	2.773	n/a	5.0	GoodResponse	1	0.043	684.818	12	72	Feedback	Win	True
687.224	2.773	Win2	0.6986	n/a	Yes	2.773	n/a	n/a	GoodResponse	1	0.0	n/a	12	72	ISIslide	Win	True
690.023	0.25	Win2	0.7027	0.0	Yes	2.677	0.023	n/a	GoodResponse	1	n/a	n/a	13	73	Cue	Win	True
690.273	4.0	Win2	0.7027	0.0	Yes	2.677	0.0	n/a	GoodResponse	1	n/a	n/a	13	73	Fixation	Win	True
694.272	0.24	Win2	0.7027	0.001	Yes	2.677	-0.001	2.0	GoodResponse	1	0.195	693.467	13	73	Target	Win	True
694.467	0.3	Win2	0.7027	0.001	Yes	2.677	-0.001	2.0	GoodResponse	1	0.195	n/a	13	73	ButtonPress	Win	True
694.522	0.46	Win2	0.7027	n/a	Yes	2.677	n/a	n/a	GoodResponse	1	n/a	n/a	13	73	Blank	Win	True
694.971	1.45	Win2	0.7027	n/a	Yes	2.677	n/a	5.0	GoodResponse	1	0.018	693.989	13	73	Feedback	Win	True
696.421	2.677	Win2	0.7027	n/a	Yes	2.677	n/a	n/a	GoodResponse	1	0.0	n/a	13	73	ISIslide	Win	True
699.12	0.25	Lose2	0.7067	0.0	Yes	2.63	0.02	n/a	GoodResponse	0	n/a	n/a	13	74	Cue	AvoidedLoss	True
699.37	4.05	Lose2	0.7067	0.0	Yes	2.63	0.0	n/a	GoodResponse	0	n/a	n/a	13	74	Fixation	AvoidedLoss	True
703.418	0.23	Lose2	0.7067	0.002	Yes	2.63	-0.002	2.0	GoodResponse	0	0.209	702.627	13	74	Target	AvoidedLoss	True
703.627	0.3	Lose2	0.7067	0.002	Yes	2.63	-0.002	2.0	GoodResponse	0	0.209	n/a	13	74	ButtonPress	AvoidedLoss	True
703.652	0.47	Lose2	0.7067	n/a	Yes	2.63	n/a	n/a	GoodResponse	0	n/a	n/a	13	74	Blank	AvoidedLoss	True
704.118	1.45	Lose2	0.7067	n/a	Yes	2.63	n/a	5.0	GoodResponse	0	0.042	703.16	13	74	Feedback	AvoidedLoss	True
705.568	2.63	Lose2	0.7067	n/a	Yes	2.63	n/a	n/a	GoodResponse	0	0.0	n/a	13	74	ISIslide	AvoidedLoss	True
708.217	0.25	Lose2	0.7105	0.0	Yes	2.933	0.017	n/a	GoodResponse	0	n/a	n/a	13	75	Cue	AvoidedLoss	True
708.467	3.95	Lose2	0.7105	0.0	Yes	2.933	0.0	n/a	GoodResponse	0	n/a	n/a	13	75	Fixation	AvoidedLoss	True
712.415	0.22	Lose2	0.7105	0.002	Yes	2.933	-0.002	2.0	GoodResponse	0	0.194	711.609	13	75	Target	AvoidedLoss	True
712.609	0.3	Lose2	0.7105	0.002	Yes	2.933	-0.002	2.0	GoodResponse	0	0.194	n/a	13	75	ButtonPress	AvoidedLoss	True
712.648	0.48	Lose2	0.7105	n/a	Yes	2.933	n/a	n/a	GoodResponse	0	n/a	n/a	13	75	Blank	AvoidedLoss	True
713.115	1.45	Lose2	0.7105	n/a	Yes	2.933	n/a	5.0	GoodResponse	0	0.02	712.135	13	75	Feedback	AvoidedLoss	True
714.564	2.933	Lose2	0.7105	n/a	Yes	2.933	n/a	n/a	GoodResponse	0	0.0	n/a	13	75	ISIslide	AvoidedLoss	True
717.513	0.25	Control	0.7012999999999999	0.0	No	3.237	0.013	n/a	NoResponse	0	n/a	n/a	13	76	Cue	Neutral	True
717.763	4.05	Control	0.7012999999999999	0.0	No	3.237	0.0	n/a	NoResponse	0	n/a	n/a	13	76	Fixation	Neutral	True
721.812	0.21	Control	0.7012999999999999	0.001	No	3.237	-0.001	2.0	NoResponse	0	0.226	721.038	13	76	Target	Neutral	True
722.028	0.49	Control	0.7012999999999999	n/a	No	3.237	n/a	n/a	NoResponse	0	n/a	n/a	13	76	Blank	Neutral	True
722.038	0.3	Control	0.7012999999999999	0.001	No	3.237	-0.001	2.0	NoResponse	0	0.226	n/a	13	76	ButtonPress	Neutral	True
722.512	1.45	Control	0.7012999999999999	n/a	No	3.237	n/a	5.0	NoResponse	0	0.037	721.549	13	76	Feedback	Neutral	True
723.961	3.237	Control	0.7012999999999999	n/a	No	3.237	n/a	n/a	NoResponse	0	0.0	n/a	13	76	ISIslide	Neutral	True
727.227	0.25	Lose2	0.7051000000000001	0.0	Yes	2.573	0.027	n/a	GoodResponse	0	n/a	n/a	13	77	Cue	AvoidedLoss	True
727.477	3.95	Lose2	0.7051000000000001	0.0	Yes	2.573	0.0	n/a	GoodResponse	0	n/a	n/a	13	77	Fixation	AvoidedLoss	True
731.425	0.2	Lose2	0.7051000000000001	0.002	Yes	2.573	-0.002	2.0	GoodResponse	0	0.199	730.624	13	77	Target	AvoidedLoss	True
731.624	0.3	Lose2	0.7051000000000001	0.002	Yes	2.573	-0.002	2.0	GoodResponse	0	0.199	n/a	13	77	ButtonPress	AvoidedLoss	True
731.625	0.5	Lose2	0.7051000000000001	n/a	Yes	2.573	n/a	n/a	GoodResponse	0	n/a	n/a	13	77	Blank	AvoidedLoss	True
732.125	1.45	Lose2	0.7051000000000001	n/a	Yes	2.573	n/a	5.0	GoodResponse	0	0.034	731.159	13	77	Feedback	AvoidedLoss	True
733.574	2.573	Lose2	0.7051000000000001	n/a	Yes	2.573	n/a	n/a	GoodResponse	0	0.0	n/a	13	77	ISIslide	AvoidedLoss	True
