onset	duration	cue_type	current_mean_accuracy	duration_error	is_hit	isi_adjusted	onset_delay	response	response_type	reward	rt	rt_time	total_reward	trial_number	trial_phase	trial_type	one_press
11.112	0.25	Control	1.0	0.0	Yes	2.938	0.012	n/a	GoodResponse	0	n/a	n/a	0	0	Cue	Neutral	True
11.363	3.85	Control	1.0	0.0	Yes	2.938	0.001	n/a	GoodResponse	0	n/a	n/a	0	0	Fixation	Neutral	True
15.208	0.4	Control	1.0	0.004	Yes	2.938	-0.004	3.0	GoodResponse	0	0.256	14.464	0	0	Target	Neutral	True
15.464	0.3	Control	1.0	0.004	Yes	2.938	-0.004	3.0	GoodResponse	0	0.256	n/a	0	0	ButtonPress	Neutral	True
15.609	0.3	Control	1.0	n/a	Yes	2.938	n/a	n/a	GoodResponse	0	n/a	n/a	0	0	Blank	Neutral	True
15.91	1.45	Control	1.0	n/a	Yes	2.938	n/a	5.0	GoodResponse	0	0.017	14.927	0	0	Feedback	Neutral	True
17.364	2.938	Control	1.0	n/a	Yes	2.938	n/a	n/a	GoodResponse	0	0.0	n/a	0	0	ISIslide	Neutral	True
20.323	0.25	Lose2	1.0	0.0	Yes	2.777	0.023	n/a	GoodResponse	0	n/a	n/a	0	1	Cue	AvoidedLoss	True
20.574	4.0	Lose2	1.0	0.0	Yes	2.777	0.001	n/a	GoodResponse	0	n/a	n/a	0	1	Fixation	AvoidedLoss	True
24.569	0.39	Lose2	1.0	0.004	Yes	2.777	-0.004	3.0	GoodResponse	0	0.265	23.834	0	1	Target	AvoidedLoss	True
24.834	0.3	Lose2	1.0	0.004	Yes	2.777	-0.004	3.0	GoodResponse	0	0.265	n/a	0	1	ButtonPress	AvoidedLoss	True
24.97	0.31	Lose2	1.0	n/a	Yes	2.777	n/a	n/a	GoodResponse	0	n/a	n/a	0	1	Blank	AvoidedLoss	True
25.271	1.45	Lose2	1.0	n/a	Yes	2.777	n/a	5.0	GoodResponse	0	0.021	24.292	0	1	Feedback	AvoidedLoss	True
26.725	2.777	Lose2	1.0	n/a	Yes	2.777	n/a	n/a	GoodResponse	0	0.0	n/a	0	1	ISIslide	AvoidedLoss	True
29.517	0.25	Control	1.0	0.0	Yes	2.583	0.017	n/a	GoodResponse	0	n/a	n/a	0	2	Cue	Neutral	True
29.768	4.1	Control	1.0	0.0	Yes	2.583	0.001	n/a	GoodResponse	0	n/a	n/a	0	2	Fixation	Neutral	True
33.863	0.38	Control	1.0	0.004	Yes	2.583	-0.004	3.0	GoodResponse	0	0.238	33.101	0	2	Target	Neutral	True
34.101	0.3	Control	1.0	0.004	Yes	2.583	-0.004	3.0	GoodResponse	0	0.238	n/a	0	2	ButtonPress	Neutral	True
34.248	0.32	Control	1.0	n/a	Yes	2.583	n/a	n/a	GoodResponse	0	n/a	n/a	0	2	Blank	Neutral	True
34.565	1.45	Control	1.0	n/a	Yes	2.583	n/a	5.0	GoodResponse	0	0.044	33.609	0	2	Feedback	Neutral	True
36.02	2.583	Control	1.0	n/a	Yes	2.583	n/a	n/a	GoodResponse	0	0.0	n/a	0	2	ISIslide	Neutral	True
38.628	0.25	Win2	1.0	0.0	Yes	2.822	0.028	n/a	GoodResponse	1	n/a	n/a	1	3	Cue	Win	True
38.878	3.95	Win2	1.0	0.0	Yes	2.822	0.0	n/a	GoodResponse	1	n/a	n/a	1	3	Fixation	Win	True
42.824	0.37	Win2	1.0	0.004	Yes	2.822	-0.004	3.0	GoodResponse	1	0.217	42.041	1	3	Target	Win	True
43.041	0.3	Win2	1.0	0.004	Yes	2.822	-0.004	3.0	GoodResponse	1	0.217	n/a	1	3	ButtonPress	Win	True
43.208	0.33	Win2	1.0	n/a	Yes	2.822	n/a	n/a	GoodResponse	1	n/a	n/a	1	3	Blank	Win	True
43.526	1.45	Win2	1.0	n/a	Yes	2.822	n/a	5.0	GoodResponse	1	0.01	42.536	1	3	Feedback	Win	True
44.98	2.822	Win2	1.0	n/a	Yes	2.822	n/a	n/a	GoodResponse	1	0.0	n/a	1	3	ISIslide	Win	True
47.822	0.25	Win2	1.0	0.0	Yes	3.278	0.022	n/a	GoodResponse	1	n/a	n/a	2	4	Cue	Win	True
48.073	4.0	Win2	1.0	0.0	Yes	3.278	0.001	n/a	GoodResponse	1	n/a	n/a	2	4	Fixation	Win	True
52.068	0.36	Win2	1.0	0.004	Yes	3.278	-0.004	3.0	GoodResponse	1	0.221	51.289	2	4	Target	Win	True
52.289	0.3	Win2	1.0	0.004	Yes	3.278	-0.004	3.0	GoodResponse	1	0.221	n/a	2	4	ButtonPress	Win	True
52.436	0.34	Win2	1.0	n/a	Yes	3.278	n/a	n/a	GoodResponse	1	n/a	n/a	2	4	Blank	Win	True
52.77	1.45	Win2	1.0	n/a	Yes	3.278	n/a	5.0	GoodResponse	1	0.034	51.804	2	4	Feedback	Win	True
54.224	3.278	Win2	1.0	n/a	Yes	3.278	n/a	n/a	GoodResponse	1	0.0	n/a	2	4	ISIslide	Win	True
57.517	0.25	Win2	0.8332999999999999	0.001	No	2.783	0.017	n/a	NoResponse	0	n/a	n/a	2	5	Cue	MissedWin	True
57.768	4.0	Win2	0.8332999999999999	0.0	No	2.783	0.001	n/a	NoResponse	0	n/a	n/a	2	5	Fixation	MissedWin	True
61.763	0.35	Win2	0.8332999999999999	0.004	No	2.783	-0.004	3.0	NoResponse	0	0.473	61.236	2	5	Target	MissedWin	True
62.115	0.35	Win2	0.8332999999999999	n/a	No	2.783	n/a	n/a	NoResponse	0	n/a	n/a	2	5	Blank	MissedWin	True
62.236	0.3	Win2	0.8332999999999999	0.004	No	2.783	-0.004	3.0	NoResponse	0	0.473	n/a	2	5	ButtonPress	MissedWin	True
62.466	1.45	Win2	0.8332999999999999	n/a	No	2.783	n/a	5.0	NoResponse	0	0.045	61.511	2	5	Feedback	MissedWin	True
63.92	2.783	Win2	0.8332999999999999	n/a	No	2.783	n/a	n/a	NoResponse	0	0.0	n/a	2	5	ISIslide	MissedWin	True
66.728	0.25	Lose2	0.8571	0.0	Yes	2.722	0.028	n/a	GoodResponse	0	n/a	n/a	2	6	Cue	AvoidedLoss	True
66.979	3.95	Lose2	0.8571	0.0	Yes	2.722	0.001	n/a	GoodResponse	0	n/a	n/a	2	6	Fixation	AvoidedLoss	True
70.924	0.34	Lose2	0.8571	0.004	Yes	2.722	-0.004	3.0	GoodResponse	0	0.25	70.174	2	6	Target	AvoidedLoss	True
71.174	0.3	Lose2	0.8571	0.004	Yes	2.722	-0.004	3.0	GoodResponse	0	0.25	n/a	2	6	ButtonPress	AvoidedLoss	True
71.275	0.36	Lose2	0.8571	n/a	Yes	2.722	n/a	n/a	GoodResponse	0	n/a	n/a	2	6	Blank	AvoidedLoss	True
71.626	1.45	Lose2	0.8571	n/a	Yes	2.722	n/a	5.0	GoodResponse	0	0.007	70.633	2	6	Feedback	AvoidedLoss	True
73.081	2.722	Lose2	0.8571	n/a	Yes	2.722	n/a	n/a	GoodResponse	0	0.0	n/a	2	6	ISIslide	AvoidedLoss	True
75.822	0.25	Lose2	0.875	0.0	Yes	4.028	0.022	n/a	GoodResponse	0	n/a	n/a	2	7	Cue	AvoidedLoss	True
76.073	4.05	Lose2	0.875	0.0	Yes	4.028	0.001	n/a	GoodResponse	0	n/a	n/a	2	7	Fixation	AvoidedLoss	True
80.118	0.33	Lose2	0.875	0.004	Yes	4.028	-0.004	3.0	GoodResponse	0	0.17	79.288	2	7	Target	AvoidedLoss	True
80.288	0.3	Lose2	0.875	0.004	Yes	4.028	-0.004	3.0	GoodResponse	0	0.17	n/a	2	7	ButtonPress	AvoidedLoss	True
80.453	0.37	Lose2	0.875	n/a	Yes	4.028	n/a	n/a	GoodResponse	0	n/a	n/a	2	7	Blank	AvoidedLoss	True
80.82	1.45	Lose2	0.875	n/a	Yes	4.028	n/a	5.0	GoodResponse	0	0.033	79.853	2	7	Feedback	AvoidedLoss	True
82.275	4.028	Lose2	0.875	n/a	Yes	4.028	n/a	n/a	GoodResponse	0	0.0	n/a	2	7	ISIslide	AvoidedLoss	True
86.32	0.25	Lose2	0.8889	0.0	Yes	3.03	0.02	n/a	GoodResponse	0	n/a	n/a	2	8	Cue	AvoidedLoss	True
86.571	3.95	Lose2	0.8889	0.0	Yes	3.03	0.001	n/a	GoodResponse	0	n/a	n/a	2	8	Fixation	AvoidedLoss	True
90.516	0.32	Lose2	0.8889	0.004	Yes	3.03	-0.004	3.0	GoodResponse	0	0.206	89.722	2	8	Target	AvoidedLoss	True
90.722	0.3	Lose2	0.8889	0.004	Yes	3.03	-0.004	3.0	GoodResponse	0	0.206	n/a	2	8	ButtonPress	AvoidedLoss	True
90.85	0.38	Lose2	0.8889	n/a	Yes	3.03	n/a	n/a	GoodResponse	0	n/a	n/a	2	8	Blank	AvoidedLoss	True
91.218	1.45	Lose2	0.8889	n/a	Yes	3.03	n/a	5.0	GoodResponse	0	0.025	90.243	2	8	Feedback	AvoidedLoss	True
92.673	3.03	Lose2	0.8889	n/a	Yes	3.03	n/a	n/a	GoodResponse	0	0.0	n/a	2	8	ISIslide	AvoidedLoss	True
95.715	0.25	Lose2	0.8	0.0	No	3.135	0.015	n/a	NoResponse	-1	n/a	n/a	1	9	Cue	Loss	True
95.966	3.95	Lose2	0.8	0.0	No	3.135	0.001	n/a	NoResponse	-1	n/a	n/a	1	9	Fixation	Loss	True
99.911	0.31	Lose2	0.8	0.004	No	3.135	-0.004	3.0	NoResponse	-1	0.391	99.302	1	9	Target	Loss	True
100.228	0.39	Lose2	0.8	n/a	No	3.135	n/a	n/a	NoResponse	-1	n/a	n/a	1	9	Blank	Loss	True
100.302	0.3	Lose2	0.8	0.004	No	3.135	-0.004	3.0	NoResponse	-1	0.391	n/a	1	9	ButtonPress	Loss	True
100.613	1.45	Lose2	0.8	n/a	No	3.135	n/a	5.0	NoResponse	-1	0.044	99.657	1	9	Feedback	Loss	True
102.067	3.135	Lose2	0.8	n/a	No	3.135	n/a	n/a	NoResponse	-1	0.0	n/a	1	9	ISIslide	Loss	True
105.227	0.25	Control	0.8181999999999999	0.0	Yes	3.273	0.027	n/a	GoodResponse	0	n/a	n/a	1	10	Cue	Neutral	False
105.477	4.0	Control	0.8181999999999999	0.001	Yes	3.273	0.0	3.0	GoodResponse	0	0.729	105.206	1	10	Fixation	Neutral	False
106.206	0.3	Control	0.8181999999999999	0.001	Yes	3.273	0.0	3.0	GoodResponse	0	0.729	n/a	1	10	ButtonPress	Neutral	False
109.473	0.3	Control	0.8181999999999999	0.004	Yes	3.273	-0.004	3.0	GoodResponse	0	0.17	108.643	1	10	Target	Neutral	False
109.643	0.3	Control	0.8181999999999999	0.004	Yes	3.273	-0.004	3.0	GoodResponse	0	0.17	n/a	1	10	ButtonPress	Neutral	False
109.774	0.4	Control	0.8181999999999999	n/a	Yes	3.273	n/a	n/a	GoodResponse	0	n/a	n/a	1	10	Blank	Neutral	False
110.175	1.45	Control	0.8181999999999999	n/a	Yes	3.273	n/a	5.0	GoodResponse	0	0.043	109.218	1	10	Feedback	Neutral	False
111.629	3.273	Control	0.8181999999999999	n/a	Yes	3.273	n/a	n/a	GoodResponse	0	0.0	n/a	1	10	ISIslide	Neutral	False
114.922	0.25	Lose2	0.8332999999999999	0.001	Yes	2.728	0.022	n/a	GoodResponse	0	n/a	n/a	1	11	Cue	AvoidedLoss	True
115.173	4.05	Lose2	0.8332999999999999	0.0	Yes	2.728	0.001	n/a	GoodResponse	0	n/a	n/a	1	11	Fixation	AvoidedLoss	True
119.219	0.29	Lose2	0.8332999999999999	0.003	Yes	2.728	-0.003	3.0	GoodResponse	0	0.209	118.428	1	11	Target	AvoidedLoss	True
119.428	0.3	Lose2	0.8332999999999999	0.003	Yes	2.728	-0.003	3.0	GoodResponse	0	0.209	n/a	1	11	ButtonPress	AvoidedLoss	True
119.519	0.41	Lose2	0.8332999999999999	n/a	Yes	2.728	n/a	n/a	GoodResponse	0	n/a	n/a	1	11	Blank	AvoidedLoss	True
119.921	1.45	Lose2	0.8332999999999999	n/a	Yes	2.728	n/a	5.0	GoodResponse	0	0.004	118.925	1	11	Feedback	AvoidedLoss	True
121.375	2.728	Lose2	0.8332999999999999	n/a	Yes	2.728	n/a	n/a	GoodResponse	0	0.0	n/a	1	11	ISIslide	AvoidedLoss	True
124.117	0.25	Control	0.8462000000000001	0.0	Yes	2.983	0.017	n/a	GoodResponse	0	n/a	n/a	1	12	Cue	Neutral	True
124.367	3.9	Control	0.8462000000000001	0.0	Yes	2.983	0.0	n/a	GoodResponse	0	n/a	n/a	1	12	Fixation	Neutral	True
128.279	0.28	Control	0.8462000000000001	0.0	Yes	2.983	0.012	3.0	GoodResponse	0	0.216	127.495	1	12	Target	Neutral	True
128.495	0.3	Control	0.8462000000000001	0.0	Yes	2.983	0.012	3.0	GoodResponse	0	0.216	n/a	1	12	ButtonPress	Neutral	True
128.546	0.42	Control	0.8462000000000001	n/a	Yes	2.983	n/a	n/a	GoodResponse	0	n/a	n/a	1	12	Blank	Neutral	True
128.964	1.45	Control	0.8462000000000001	n/a	Yes	2.983	n/a	5.0	GoodResponse	0	0.034	127.998	1	12	Feedback	Neutral	True
130.419	2.983	Control	0.8462000000000001	n/a	Yes	2.983	n/a	n/a	GoodResponse	0	0.0	n/a	1	12	ISIslide	Neutral	True
133.428	0.25	Control	0.7857	0.0	No	2.772	0.028	n/a	NoResponse	0	n/a	n/a	1	13	Cue	Neutral	True
133.678	4.0	Control	0.7857	0.001	No	2.772	0.0	n/a	NoResponse	0	n/a	n/a	1	13	Fixation	Neutral	True
137.674	0.27	Control	0.7857	0.004	No	2.772	-0.004	3.0	NoResponse	0	0.309	136.983	1	13	Target	Neutral	True
137.958	0.43	Control	0.7857	n/a	No	2.772	n/a	n/a	NoResponse	0	n/a	n/a	1	13	Blank	Neutral	True
137.983	0.3	Control	0.7857	0.004	No	2.772	-0.004	3.0	NoResponse	0	0.309	n/a	1	13	ButtonPress	Neutral	True
138.376	1.45	Control	0.7857	n/a	No	2.772	n/a	5.0	NoResponse	0	0.037	137.413	1	13	Feedback	Neutral	True
139.83	2.772	Control	0.7857	n/a	No	2.772	n/a	n/a	NoResponse	0	0.0	n/a	1	13	ISIslide	Neutral	True
142.622	0.25	Win2	0.8	0.0	Yes	2.678	0.022	n/a	GoodResponse	1	n/a	n/a	2	14	Cue	Win	True
142.873	4.1	Win2	0.8	0.0	Yes	2.678	0.001	n/a	GoodResponse	1	n/a	n/a	2	14	Fixation	Win	True
146.968	0.26	Win2	0.8	0.004	Yes	2.678	-0.004	3.0	GoodResponse	1	0.208	146.176	2	14	Target	Win	True
147.176	0.3	Win2	0.8	0.004	Yes	2.678	-0.004	3.0	GoodResponse	1	0.208	n/a	2	14	ButtonPress	Win	True
147.236	0.44	Win2	0.8	n/a	Yes	2.678	n/a	n/a	GoodResponse	1	n/a	n/a	2	14	Blank	Win	True
147.67	1.45	Win2	0.8	n/a	Yes	2.678	n/a	5.0	GoodResponse	1	0.011	146.681	2	14	Feedback	Win	True
149.125	2.678	Win2	0.8	n/a	Yes	2.678	n/a	n/a	GoodResponse	1	0.0	n/a	2	14	ISIslide	Win	True
151.816	0.25	Control	0.8125	0.0	Yes	2.984	0.016	n/a	GoodResponse	0	n/a	n/a	2	15	Cue	Neutral	True
152.067	4.0	Control	0.8125	0.0	Yes	2.984	0.001	n/a	GoodResponse	0	n/a	n/a	2	15	Fixation	Neutral	True
156.062	0.25	Control	0.8125	0.004	Yes	2.984	-0.004	3.0	GoodResponse	0	0.214	155.276	2	15	Target	Neutral	True
156.276	0.3	Control	0.8125	0.004	Yes	2.984	-0.004	3.0	GoodResponse	0	0.214	n/a	2	15	ButtonPress	Neutral	True
156.313	0.45	Control	0.8125	n/a	Yes	2.984	n/a	n/a	GoodResponse	0	n/a	n/a	2	15	Blank	Neutral	True
156.764	1.45	Control	0.8125	n/a	Yes	2.984	n/a	5.0	GoodResponse	0	0.039	155.803	2	15	Feedback	Neutral	True
158.219	2.984	Control	0.8125	n/a	Yes	2.984	n/a	n/a	GoodResponse	0	0.0	n/a	2	15	ISIslide	Neutral	True
161.228	0.25	Win2	0.8234999999999999	0.0	Yes	2.872	0.028	n/a	GoodResponse	1	n/a	n/a	3	16	Cue	Win	True
161.478	4.0	Win2	0.8234999999999999	0.0	Yes	2.872	0.0	n/a	GoodResponse	1	n/a	n/a	3	16	Fixation	Win	True
165.474	0.24	Win2	0.8234999999999999	0.004	Yes	2.872	-0.004	3.0	GoodResponse	1	0.206	164.68	3	16	Target	Win	True
165.68	0.3	Win2	0.8234999999999999	0.004	Yes	2.872	-0.004	3.0	GoodResponse	1	0.206	n/a	3	16	ButtonPress	Win	True
165.724	0.46	Win2	0.8234999999999999	n/a	Yes	2.872	n/a	n/a	GoodResponse	1	n/a	n/a	3	16	Blank	Win	True
166.176	1.45	Win2	0.8234999999999999	n/a	Yes	2.872	n/a	5.0	GoodResponse	1	0.041	165.217	3	16	Feedback	Win	True
167.63	2.872	Win2	0.8234999999999999	n/a	Yes	2.872	n/a	n/a	GoodResponse	1	0.0	n/a	3	16	ISIslide	Win	True
170.522	0.25	Lose2	0.8332999999999999	0.0	Yes	2.728	0.022	n/a	GoodResponse	0	n/a	n/a	3	17	Cue	AvoidedLoss	True
170.773	3.95	Lose2	0.8332999999999999	0.0	Yes	2.728	0.001	n/a	GoodResponse	0	n/a	n/a	3	17	Fixation	AvoidedLoss	True
174.718	0.23	Lose2	0.8332999999999999	0.004	Yes	2.728	-0.004	3.0	GoodResponse	0	0.212	173.93	3	17	Target	AvoidedLoss	True
174.93	0.3	Lose2	0.8332999999999999	0.004	Yes	2.728	-0.004	3.0	GoodResponse	0	0.212	n/a	3	17	ButtonPress	AvoidedLoss	True
174.952	0.47	Lose2	0.8332999999999999	n/a	Yes	2.728	n/a	n/a	GoodResponse	0	n/a	n/a	3	17	Blank	AvoidedLoss	True
175.42	1.45	Lose2	0.8332999999999999	n/a	Yes	2.728	n/a	5.0	GoodResponse	0	0.017	174.437	3	17	Feedback	AvoidedLoss	True
176.874	2.728	Lose2	0.8332999999999999	n/a	Yes	2.728	n/a	n/a	GoodResponse	0	0.0	n/a	3	17	ISIslide	AvoidedLoss	True
179.616	0.25	Lose2	0.7895	0.0	No	2.734	0.016	n/a	PrematurePress	-1	n/a	n/a	2	18	Cue	Loss	True
179.867	4.05	Lose2	0.7895	0.0	No	2.734	0.001	n/a	PrematurePress	-1	n/a	n/a	2	18	Fixation	Loss	True
183.912	0.22	Lose2	0.7895	0.004	No	2.734	-0.004	3.0	PrematurePress	-1	0.085	182.997	2	18	Target	Loss	True
183.997	0.3	Lose2	0.7895	0.004	No	2.734	-0.004	3.0	PrematurePress	-1	0.085	n/a	2	18	ButtonPress	Loss	True
184.146	0.48	Lose2	0.7895	n/a	No	2.734	n/a	n/a	PrematurePress	-1	n/a	n/a	2	18	Blank	Loss	True
184.614	1.45	Lose2	0.7895	n/a	No	2.734	n/a	5.0	PrematurePress	-1	0.043	183.657	2	18	Feedback	Loss	True
186.068	2.734	Lose2	0.7895	n/a	No	2.734	n/a	n/a	PrematurePress	-1	0.0	n/a	2	18	ISIslide	Loss	True
188.827	0.25	Control	0.75	0.0	No	2.923	0.027	n/a	NoResponse	0	n/a	n/a	2	19	Cue	Neutral	True
189.077	3.95	Control	0.75	0.001	No	2.923	0.0	n/a	NoResponse	0	n/a	n/a	2	19	Fixation	Neutral	True
193.023	0.21	Control	0.75	0.004	No	2.923	-0.004	3.0	NoResponse	0	0.222	192.245	2	19	Target	Neutral	True
193.24	0.49	Control	0.75	n/a	No	2.923	n/a	n/a	NoResponse	0	n/a	n/a	2	19	Blank	Neutral	True
193.245	0.3	Control	0.75	0.004	No	2.923	-0.004	3.0	NoResponse	0	0.222	n/a	2	19	ButtonPress	Neutral	True
193.725	1.45	Control	0.75	n/a	No	2.923	n/a	5.0	NoResponse	0	0.004	192.729	2	19	Feedback	Neutral	True
195.179	2.923	Control	0.75	n/a	No	2.923	n/a	n/a	NoResponse	0	0.0	n/a	2	19	ISIslide	Neutral	True
198.121	0.25	Control	0.7619	0.0	Yes	2.629	0.021	n/a	GoodResponse	0	n/a	n/a	2	20	Cue	Neutral	True
198.372	4.05	Control	0.7619	0.0	Yes	2.629	0.001	n/a	GoodResponse	0	n/a	n/a	2	20	Fixation	Neutral	True
202.417	0.2	Control	0.7619	0.004	Yes	2.629	-0.004	3.0	GoodResponse	0	0.194	201.611	2	20	Target	Neutral	True
202.611	0.3	Control	0.7619	0.004	Yes	2.629	-0.004	3.0	GoodResponse	0	0.194	n/a	2	20	ButtonPress	Neutral	True
202.618	0.5	Control	0.7619	n/a	Yes	2.629	n/a	n/a	GoodResponse	0	n/a	n/a	2	20	Blank	Neutral	True
203.119	1.45	Control	0.7619	n/a	Yes	2.629	n/a	5.0	GoodResponse	0	0.025	202.144	2	20	Feedback	Neutral	True
204.574	2.629	Control	0.7619	n/a	Yes	2.629	n/a	n/a	GoodResponse	0	0.0	n/a	2	20	ISIslide	Neutral	True
207.215	0.25	Control	0.7273000000000001	0.0	No	2.785	0.015	n/a	LatePress	0	n/a	n/a	2	21	Cue	Neutral	True
207.466	4.1	Control	0.7273000000000001	0.0	No	2.785	0.001	n/a	LatePress	0	n/a	n/a	2	21	Fixation	Neutral	True
211.561	0.19	Control	0.7273000000000001	0.004	No	2.785	-0.004	3.0	LatePress	0	0.198	210.759	2	21	Target	Neutral	True
211.759	0.3	Control	0.7273000000000001	0.004	No	2.785	-0.004	3.0	LatePress	0	0.198	n/a	2	21	ButtonPress	Neutral	True
211.762	0.51	Control	0.7273000000000001	n/a	No	2.785	n/a	n/a	LatePress	0	n/a	n/a	2	21	Blank	Neutral	True
212.263	1.45	Control	0.7273000000000001	n/a	No	2.785	n/a	5.0	LatePress	0	0.004	211.267	2	21	Feedback	Neutral	True
213.718	2.785	Control	0.7273000000000001	n/a	No	2.785	n/a	n/a	LatePress	0	0.0	n/a	2	21	ISIslide	Neutral	True
216.526	0.25	Control	0.6957	0.0	No	2.774	0.026	n/a	NoResponse	0	n/a	n/a	2	22	Cue	Neutral	True
216.777	4.0	Control	0.6957	0.0	No	2.774	0.001	n/a	NoResponse	0	n/a	n/a	2	22	Fixation	Neutral	True
220.772	0.18	Control	0.6957	0.004	No	2.774	-0.004	3.0	NoResponse	0	0.299	220.071	2	22	Target	Neutral	True
220.956	0.52	Control	0.6957	n/a	No	2.774	n/a	n/a	NoResponse	0	n/a	n/a	2	22	Blank	Neutral	True
221.071	0.3	Control	0.6957	0.004	No	2.774	-0.004	3.0	NoResponse	0	0.299	n/a	2	22	ButtonPress	Neutral	True
221.474	1.45	Control	0.6957	n/a	No	2.774	n/a	5.0	NoResponse	0	0.011	220.485	2	22	Feedback	Neutral	True
222.929	2.774	Control	0.6957	n/a	No	2.774	n/a	n/a	NoResponse	0	0.0	n/a	2	22	ISIslide	Neutral	True
225.72	0.25	Control	0.6667000000000001	0.0	No	2.78	0.02	n/a	NoResponse	0	n/a	n/a	2	23	Cue	Neutral	True
225.971	3.9	Control	0.6667000000000001	0.0	No	2.78	0.001	n/a	NoResponse	0	n/a	n/a	2	23	Fixation	Neutral	True
229.866	0.17	Control	0.6667000000000001	0.004	No	2.78	-0.004	3.0	NoResponse	0	0.314	229.18	2	23	Target	Neutral	True
230.05	0.53	Control	0.6667000000000001	n/a	No	2.78	n/a	n/a	NoResponse	0	n/a	n/a	2	23	Blank	Neutral	True
230.18	0.3	Control	0.6667000000000001	0.004	No	2.78	-0.004	3.0	NoResponse	0	0.314	n/a	2	23	ButtonPress	Neutral	True
230.568	1.45	Control	0.6667000000000001	n/a	No	2.78	n/a	5.0	NoResponse	0	0.038	229.606	2	23	Feedback	Neutral	True
232.023	2.78	Control	0.6667000000000001	n/a	No	2.78	n/a	n/a	NoResponse	0	0.0	n/a	2	23	ISIslide	Neutral	True
234.814	0.25	Win2	0.64	0.0	No	3.136	0.014	n/a	NoResponse	0	n/a	n/a	2	24	Cue	MissedWin	True
235.065	3.95	Win2	0.64	0.0	No	3.136	0.001	n/a	NoResponse	0	n/a	n/a	2	24	Fixation	MissedWin	True
239.01	0.16	Win2	0.64	0.004	No	3.136	-0.004	3.0	NoResponse	0	0.19	238.2	2	24	Target	MissedWin	True
239.177	0.54	Win2	0.64	n/a	No	3.136	n/a	n/a	NoResponse	0	n/a	n/a	2	24	Blank	MissedWin	True
239.2	0.3	Win2	0.64	0.004	No	3.136	-0.004	3.0	NoResponse	0	0.19	n/a	2	24	ButtonPress	MissedWin	True
239.712	1.45	Win2	0.64	n/a	No	3.136	n/a	5.0	NoResponse	0	0.016	238.728	2	24	Feedback	MissedWin	True
241.167	3.136	Win2	0.64	n/a	No	3.136	n/a	n/a	NoResponse	0	0.0	n/a	2	24	ISIslide	MissedWin	True
244.326	0.25	Win2	0.6154	0.0	No	3.074	0.026	n/a	NoResponse	0	n/a	n/a	2	25	Cue	MissedWin	False
244.577	4.0	Win2	0.6154	0.0	No	3.074	0.001	3.0	NoResponse	0	3.868	247.445	2	25	Fixation	MissedWin	False
248.445	0.3	Win2	0.6154	0.0	No	3.074	0.001	3.0	NoResponse	0	3.868	n/a	2	25	ButtonPress	MissedWin	False
248.572	0.17	Win2	0.6154	0.004	No	3.074	-0.004	3.0	NoResponse	0	0.217	247.789	2	25	Target	MissedWin	False
248.756	0.53	Win2	0.6154	n/a	No	3.074	n/a	n/a	NoResponse	0	n/a	n/a	2	25	Blank	MissedWin	False
248.789	0.3	Win2	0.6154	0.004	No	3.074	-0.004	3.0	NoResponse	0	0.217	n/a	2	25	ButtonPress	MissedWin	False
249.274	1.45	Win2	0.6154	n/a	No	3.074	n/a	5.0	NoResponse	0	0.015	248.289	2	25	Feedback	MissedWin	False
250.728	3.074	Win2	0.6154	n/a	No	3.074	n/a	n/a	NoResponse	0	0.0	n/a	2	25	ISIslide	MissedWin	False
253.821	0.25	Win2	0.6296	0.0	Yes	2.929	0.021	n/a	GoodResponse	1	n/a	n/a	3	26	Cue	Win	True
254.072	3.95	Win2	0.6296	0.0	Yes	2.929	0.001	n/a	GoodResponse	1	n/a	n/a	3	26	Fixation	Win	True
258.017	0.18	Win2	0.6296	0.004	Yes	2.929	-0.004	3.0	GoodResponse	1	0.176	257.193	3	26	Target	Win	True
258.193	0.3	Win2	0.6296	0.004	Yes	2.929	-0.004	3.0	GoodResponse	1	0.176	n/a	3	26	ButtonPress	Win	True
258.201	0.52	Win2	0.6296	n/a	Yes	2.929	n/a	n/a	GoodResponse	1	n/a	n/a	3	26	Blank	Win	True
258.719	1.45	Win2	0.6296	n/a	Yes	2.929	n/a	5.0	GoodResponse	1	0.034	257.753	3	26	Feedback	Win	True
260.173	2.929	Win2	0.6296	n/a	Yes	2.929	n/a	n/a	GoodResponse	1	0.0	n/a	3	26	ISIslide	Win	True
263.115	0.25	Lose2	0.6071	0.001	No	2.835	0.015	n/a	NoResponse	-1	n/a	n/a	2	27	Cue	Loss	True
263.366	4.05	Lose2	0.6071	0.0	No	2.835	0.001	n/a	NoResponse	-1	n/a	n/a	2	27	Fixation	Loss	True
267.412	0.19	Lose2	0.6071	0.003	No	2.835	-0.003	3.0	NoResponse	-1	0.213	266.625	2	27	Target	Loss	True
267.612	0.51	Lose2	0.6071	n/a	No	2.835	n/a	n/a	NoResponse	-1	n/a	n/a	2	27	Blank	Loss	True
267.625	0.3	Lose2	0.6071	0.003	No	2.835	-0.003	3.0	NoResponse	-1	0.213	n/a	2	27	ButtonPress	Loss	True
268.114	1.45	Lose2	0.6071	n/a	No	2.835	n/a	5.0	NoResponse	-1	0.005	267.119	2	27	Feedback	Loss	True
269.568	2.835	Lose2	0.6071	n/a	No	2.835	n/a	n/a	NoResponse	-1	0.0	n/a	2	27	ISIslide	Loss	True
272.427	0.25	Control	0.5861999999999999	0.0	No	2.823	0.027	n/a	NoResponse	0	n/a	n/a	2	28	Cue	Neutral	True
272.677	4.05	Control	0.5861999999999999	0.001	No	2.823	0.0	n/a	NoResponse	0	n/a	n/a	2	28	Fixation	Neutral	True
276.723	0.2	Control	0.5861999999999999	0.004	No	2.823	-0.004	3.0	NoResponse	0	0.227	275.95	2	28	Target	Neutral	True
276.923	0.5	Control	0.5861999999999999	n/a	No	2.823	n/a	n/a	NoResponse	0	n/a	n/a	2	28	Blank	Neutral	True
276.95	0.3	Control	0.5861999999999999	0.004	No	2.823	-0.004	3.0	NoResponse	0	0.227	n/a	2	28	ButtonPress	Neutral	True
277.425	1.45	Control	0.5861999999999999	n/a	No	2.823	n/a	5.0	NoResponse	0	0.01	276.435	2	28	Feedback	Neutral	True
278.879	2.823	Control	0.5861999999999999	n/a	No	2.823	n/a	n/a	NoResponse	0	0.0	n/a	2	28	ISIslide	Neutral	True
281.721	0.25	Lose2	0.6	0.0	Yes	2.829	0.021	n/a	GoodResponse	0	n/a	n/a	2	29	Cue	AvoidedLoss	True
281.972	3.95	Lose2	0.6	0.0	Yes	2.829	0.001	n/a	GoodResponse	0	n/a	n/a	2	29	Fixation	AvoidedLoss	True
285.917	0.21	Lose2	0.6	0.004	Yes	2.829	-0.004	3.0	GoodResponse	0	0.192	285.109	2	29	Target	AvoidedLoss	True
286.109	0.3	Lose2	0.6	0.004	Yes	2.829	-0.004	3.0	GoodResponse	0	0.192	n/a	2	29	ButtonPress	AvoidedLoss	True
286.134	0.49	Lose2	0.6	n/a	Yes	2.829	n/a	n/a	GoodResponse	0	n/a	n/a	2	29	Blank	AvoidedLoss	True
286.619	1.45	Lose2	0.6	n/a	Yes	2.829	n/a	5.0	GoodResponse	0	0.036	285.655	2	29	Feedback	AvoidedLoss	True
288.073	2.829	Lose2	0.6	n/a	Yes	2.829	n/a	n/a	GoodResponse	0	0.0	n/a	2	29	ISIslide	AvoidedLoss	True
290.915	0.25	Win2	0.6129	0.0	Yes	2.785	0.015	n/a	GoodResponse	1	n/a	n/a	3	30	Cue	Win	True
291.166	3.9	Win2	0.6129	0.0	Yes	2.785	0.001	n/a	GoodResponse	1	n/a	n/a	3	30	Fixation	Win	True
295.061	0.22	Win2	0.6129	0.004	Yes	2.785	-0.004	3.0	GoodResponse	1	0.207	294.268	3	30	Target	Win	True
295.268	0.3	Win2	0.6129	0.004	Yes	2.785	-0.004	3.0	GoodResponse	1	0.207	n/a	3	30	ButtonPress	Win	True
295.295	0.48	Win2	0.6129	n/a	Yes	2.785	n/a	n/a	GoodResponse	1	n/a	n/a	3	30	Blank	Win	True
295.763	1.45	Win2	0.6129	n/a	Yes	2.785	n/a	5.0	GoodResponse	1	0.014	294.777	3	30	Feedback	Win	True
297.217	2.785	Win2	0.6129	n/a	Yes	2.785	n/a	n/a	GoodResponse	1	0.0	n/a	3	30	ISIslide	Win	True
300.026	0.25	Lose2	0.625	0.0	Yes	2.824	0.026	n/a	GoodResponse	0	n/a	n/a	3	31	Cue	AvoidedLoss	True
300.277	4.05	Lose2	0.625	0.0	Yes	2.824	0.001	n/a	GoodResponse	0	n/a	n/a	3	31	Fixation	AvoidedLoss	True
304.322	0.23	Lose2	0.625	0.004	Yes	2.824	-0.004	3.0	GoodResponse	0	0.201	303.523	3	31	Target	AvoidedLoss	True
304.523	0.3	Lose2	0.625	0.004	Yes	2.824	-0.004	3.0	GoodResponse	0	0.201	n/a	3	31	ButtonPress	AvoidedLoss	True
304.556	0.47	Lose2	0.625	n/a	Yes	2.824	n/a	n/a	GoodResponse	0	n/a	n/a	3	31	Blank	AvoidedLoss	True
305.024	1.45	Lose2	0.625	n/a	Yes	2.824	n/a	5.0	GoodResponse	0	0.021	304.045	3	31	Feedback	AvoidedLoss	True
306.478	2.824	Lose2	0.625	n/a	Yes	2.824	n/a	n/a	GoodResponse	0	0.0	n/a	3	31	ISIslide	AvoidedLoss	True
309.32	0.25	Lose2	0.6364	0.0	Yes	2.63	0.02	n/a	GoodResponse	0	n/a	n/a	3	32	Cue	AvoidedLoss	True
309.571	4.15	Lose2	0.6364	0.0	Yes	2.63	0.001	n/a	GoodResponse	0	n/a	n/a	3	32	Fixation	AvoidedLoss	True
313.717	0.24	Lose2	0.6364	0.003	Yes	2.63	-0.003	3.0	GoodResponse	0	0.19	312.907	3	32	Target	AvoidedLoss	True
313.907	0.3	Lose2	0.6364	0.003	Yes	2.63	-0.003	3.0	GoodResponse	0	0.19	n/a	3	32	ButtonPress	AvoidedLoss	True
313.968	0.46	Lose2	0.6364	n/a	Yes	2.63	n/a	n/a	GoodResponse	0	n/a	n/a	3	32	Blank	AvoidedLoss	True
314.419	1.45	Lose2	0.6364	n/a	Yes	2.63	n/a	5.0	GoodResponse	0	0.041	313.46	3	32	Feedback	AvoidedLoss	True
315.873	2.63	Lose2	0.6364	n/a	Yes	2.63	n/a	n/a	GoodResponse	0	0.0	n/a	3	32	ISIslide	AvoidedLoss	True
318.514	0.25	Win2	0.6470999999999999	0.001	Yes	2.686	0.014	n/a	GoodResponse	1	n/a	n/a	4	33	Cue	Win	True
318.765	4.0	Win2	0.6470999999999999	0.0	Yes	2.686	0.001	n/a	GoodResponse	1	n/a	n/a	4	33	Fixation	Win	True
322.76	0.25	Win2	0.6470999999999999	0.004	Yes	2.686	-0.004	3.0	GoodResponse	1	0.188	321.948	4	33	Target	Win	True
322.948	0.3	Win2	0.6470999999999999	0.004	Yes	2.686	-0.004	3.0	GoodResponse	1	0.188	n/a	4	33	ButtonPress	Win	True
323.011	0.45	Win2	0.6470999999999999	n/a	Yes	2.686	n/a	n/a	GoodResponse	1	n/a	n/a	4	33	Blank	Win	True
323.463	1.45	Win2	0.6470999999999999	n/a	Yes	2.686	n/a	5.0	GoodResponse	1	0.02	322.483	4	33	Feedback	Win	True
324.917	2.686	Win2	0.6470999999999999	n/a	Yes	2.686	n/a	n/a	GoodResponse	1	0.0	n/a	4	33	ISIslide	Win	True
327.625	0.25	Lose2	0.6570999999999999	0.0	Yes	2.625	0.025	n/a	GoodResponse	0	n/a	n/a	4	34	Cue	AvoidedLoss	True
327.876	4.05	Lose2	0.6570999999999999	0.0	Yes	2.625	0.001	n/a	GoodResponse	0	n/a	n/a	4	34	Fixation	AvoidedLoss	True
331.921	0.26	Lose2	0.6570999999999999	0.004	Yes	2.625	-0.004	3.0	GoodResponse	0	0.185	331.106	4	34	Target	AvoidedLoss	True
332.106	0.3	Lose2	0.6570999999999999	0.004	Yes	2.625	-0.004	3.0	GoodResponse	0	0.185	n/a	4	34	ButtonPress	AvoidedLoss	True
332.189	0.44	Lose2	0.6570999999999999	n/a	Yes	2.625	n/a	n/a	GoodResponse	0	n/a	n/a	4	34	Blank	AvoidedLoss	True
332.623	1.45	Lose2	0.6570999999999999	n/a	Yes	2.625	n/a	5.0	GoodResponse	0	0.031	331.654	4	34	Feedback	AvoidedLoss	True
334.078	2.625	Lose2	0.6570999999999999	n/a	Yes	2.625	n/a	n/a	GoodResponse	0	0.0	n/a	4	34	ISIslide	AvoidedLoss	True
336.719	0.25	Lose2	0.6667000000000001	0.0	Yes	2.681	0.019	n/a	GoodResponse	0	n/a	n/a	4	35	Cue	AvoidedLoss	True
336.97	4.0	Lose2	0.6667000000000001	0.0	Yes	2.681	0.001	n/a	GoodResponse	0	n/a	n/a	4	35	Fixation	AvoidedLoss	True
340.965	0.26	Lose2	0.6667000000000001	0.004	Yes	2.681	-0.004	3.0	GoodResponse	0	0.191	340.156	4	35	Target	AvoidedLoss	True
341.156	0.3	Lose2	0.6667000000000001	0.004	Yes	2.681	-0.004	3.0	GoodResponse	0	0.191	n/a	4	35	ButtonPress	AvoidedLoss	True
341.232	0.44	Lose2	0.6667000000000001	n/a	Yes	2.681	n/a	n/a	GoodResponse	0	n/a	n/a	4	35	Blank	AvoidedLoss	True
341.667	1.45	Lose2	0.6667000000000001	n/a	Yes	2.681	n/a	5.0	GoodResponse	0	0.012	340.679	4	35	Feedback	AvoidedLoss	True
343.121	2.681	Lose2	0.6667000000000001	n/a	Yes	2.681	n/a	n/a	GoodResponse	0	0.0	n/a	4	35	ISIslide	AvoidedLoss	True
345.813	0.25	Control	0.6757	0.0	Yes	2.687	0.013	n/a	GoodResponse	0	n/a	n/a	4	36	Cue	Neutral	True
346.063	4.0	Control	0.6757	0.001	Yes	2.687	0.0	n/a	GoodResponse	0	n/a	n/a	4	36	Fixation	Neutral	True
350.059	0.25	Control	0.6757	0.004	Yes	2.687	-0.004	3.0	GoodResponse	0	0.224	349.283	4	36	Target	Neutral	True
350.283	0.3	Control	0.6757	0.004	Yes	2.687	-0.004	3.0	GoodResponse	0	0.224	n/a	4	36	ButtonPress	Neutral	True
350.31	0.45	Control	0.6757	n/a	Yes	2.687	n/a	n/a	GoodResponse	0	n/a	n/a	4	36	Blank	Neutral	True
350.761	1.45	Control	0.6757	n/a	Yes	2.687	n/a	5.0	GoodResponse	0	0.04	349.801	4	36	Feedback	Neutral	True
352.215	2.687	Control	0.6757	n/a	Yes	2.687	n/a	n/a	GoodResponse	0	0.0	n/a	4	36	ISIslide	Neutral	True
354.923	0.25	Win2	0.6842	0.0	Yes	2.877	0.023	n/a	GoodResponse	1	n/a	n/a	5	37	Cue	Win	True
355.174	4.0	Win2	0.6842	0.0	Yes	2.877	0.001	n/a	GoodResponse	1	n/a	n/a	5	37	Fixation	Win	True
359.169	0.24	Win2	0.6842	0.004	Yes	2.877	-0.004	3.0	GoodResponse	1	0.199	358.368	5	37	Target	Win	True
359.368	0.3	Win2	0.6842	0.004	Yes	2.877	-0.004	3.0	GoodResponse	1	0.199	n/a	5	37	ButtonPress	Win	True
359.42	0.46	Win2	0.6842	n/a	Yes	2.877	n/a	n/a	GoodResponse	1	n/a	n/a	5	37	Blank	Win	True
359.871	1.45	Win2	0.6842	n/a	Yes	2.877	n/a	5.0	GoodResponse	1	0.004	358.875	5	37	Feedback	Win	True
361.326	2.877	Win2	0.6842	n/a	Yes	2.877	n/a	n/a	GoodResponse	1	0.0	n/a	5	37	ISIslide	Win	True
364.218	0.25	Lose2	0.6923	0.0	Yes	2.832	0.018	n/a	GoodResponse	0	n/a	n/a	5	38	Cue	AvoidedLoss	True
364.469	3.95	Lose2	0.6923	0.0	Yes	2.832	0.001	n/a	GoodResponse	0	n/a	n/a	5	38	Fixation	AvoidedLoss	True
368.414	0.23	Lose2	0.6923	0.004	Yes	2.832	-0.004	3.0	GoodResponse	0	0.212	367.626	5	38	Target	AvoidedLoss	True
368.626	0.3	Lose2	0.6923	0.004	Yes	2.832	-0.004	3.0	GoodResponse	0	0.212	n/a	5	38	ButtonPress	AvoidedLoss	True
368.648	0.47	Lose2	0.6923	n/a	Yes	2.832	n/a	n/a	GoodResponse	0	n/a	n/a	5	38	Blank	AvoidedLoss	True
369.116	1.45	Lose2	0.6923	n/a	Yes	2.832	n/a	5.0	GoodResponse	0	0.025	368.141	5	38	Feedback	AvoidedLoss	True
370.57	2.832	Lose2	0.6923	n/a	Yes	2.832	n/a	n/a	GoodResponse	0	0.0	n/a	5	38	ISIslide	AvoidedLoss	True
373.429	0.25	Win2	0.7	0.0	Yes	2.971	0.029	n/a	GoodResponse	1	n/a	n/a	6	39	Cue	Win	True
373.679	4.1	Win2	0.7	0.0	Yes	2.971	0.0	n/a	GoodResponse	1	n/a	n/a	6	39	Fixation	Win	True
377.775	0.22	Win2	0.7	0.004	Yes	2.971	-0.004	3.0	GoodResponse	1	0.19	376.965	6	39	Target	Win	True
377.965	0.3	Win2	0.7	0.004	Yes	2.971	-0.004	3.0	GoodResponse	1	0.19	n/a	6	39	ButtonPress	Win	True
378.009	0.48	Win2	0.7	n/a	Yes	2.971	n/a	n/a	GoodResponse	1	n/a	n/a	6	39	Blank	Win	True
378.477	1.45	Win2	0.7	n/a	Yes	2.971	n/a	5.0	GoodResponse	1	0.03	377.507	6	39	Feedback	Win	True
379.931	2.971	Win2	0.7	n/a	Yes	2.971	n/a	n/a	GoodResponse	1	0.0	n/a	6	39	ISIslide	Win	True
382.924	0.25	Win2	0.6829000000000001	0.0	No	2.726	0.024	n/a	NoResponse	0	n/a	n/a	6	40	Cue	MissedWin	True
383.174	3.95	Win2	0.6829000000000001	0.001	No	2.726	0.0	n/a	NoResponse	0	n/a	n/a	6	40	Fixation	MissedWin	True
387.12	0.21	Win2	0.6829000000000001	0.004	No	2.726	-0.004	3.0	NoResponse	0	0.222	386.342	6	40	Target	MissedWin	True
387.337	0.49	Win2	0.6829000000000001	n/a	No	2.726	n/a	n/a	NoResponse	0	n/a	n/a	6	40	Blank	MissedWin	True
387.342	0.3	Win2	0.6829000000000001	0.004	No	2.726	-0.004	3.0	NoResponse	0	0.222	n/a	6	40	ButtonPress	MissedWin	True
387.822	1.45	Win2	0.6829000000000001	n/a	No	2.726	n/a	5.0	NoResponse	0	0.004	386.826	6	40	Feedback	MissedWin	True
389.276	2.726	Win2	0.6829000000000001	n/a	No	2.726	n/a	n/a	NoResponse	0	0.0	n/a	6	40	ISIslide	MissedWin	True
392.018	0.25	Win2	0.6667000000000001	0.0	No	2.782	0.018	n/a	NoResponse	0	n/a	n/a	6	41	Cue	MissedWin	True
392.268	3.9	Win2	0.6667000000000001	0.0	No	2.782	0.0	n/a	NoResponse	0	n/a	n/a	6	41	Fixation	MissedWin	True
396.18	0.2	Win2	0.6667000000000001	0.0	No	2.782	0.012	3.0	NoResponse	0	0.202	395.382	6	41	Target	MissedWin	True
396.364	0.5	Win2	0.6667000000000001	n/a	No	2.782	n/a	n/a	NoResponse	0	n/a	n/a	6	41	Blank	MissedWin	True
396.382	0.3	Win2	0.6667000000000001	0.0	No	2.782	0.012	3.0	NoResponse	0	0.202	n/a	6	41	ButtonPress	MissedWin	True
396.865	1.45	Win2	0.6667000000000001	n/a	No	2.782	n/a	5.0	NoResponse	0	0.033	395.898	6	41	Feedback	MissedWin	True
398.32	2.782	Win2	0.6667000000000001	n/a	No	2.782	n/a	n/a	NoResponse	0	0.0	n/a	6	41	ISIslide	MissedWin	True
401.128	0.25	Control	0.6744	0.0	Yes	2.922	0.028	n/a	GoodResponse	0	n/a	n/a	6	42	Cue	Neutral	True
401.379	3.85	Control	0.6744	0.0	Yes	2.922	0.001	n/a	GoodResponse	0	n/a	n/a	6	42	Fixation	Neutral	True
405.224	0.19	Control	0.6744	0.004	Yes	2.922	-0.004	3.0	GoodResponse	0	0.172	404.396	6	42	Target	Neutral	True
405.396	0.3	Control	0.6744	0.004	Yes	2.922	-0.004	3.0	GoodResponse	0	0.172	n/a	6	42	ButtonPress	Neutral	True
405.424	0.51	Control	0.6744	n/a	Yes	2.922	n/a	n/a	GoodResponse	0	n/a	n/a	6	42	Blank	Neutral	True
405.926	1.45	Control	0.6744	n/a	Yes	2.922	n/a	5.0	GoodResponse	0	0.044	404.97	6	42	Feedback	Neutral	True
407.38	2.922	Control	0.6744	n/a	Yes	2.922	n/a	n/a	GoodResponse	0	0.0	n/a	6	42	ISIslide	Neutral	True
410.322	0.25	Win2	0.6591	0.0	No	3.178	0.022	n/a	LatePress	0	n/a	n/a	6	43	Cue	MissedWin	True
410.573	4.0	Win2	0.6591	0.0	No	3.178	0.001	n/a	LatePress	0	n/a	n/a	6	43	Fixation	MissedWin	True
414.568	0.18	Win2	0.6591	0.004	No	3.178	-0.004	3.0	LatePress	0	0.184	413.752	6	43	Target	MissedWin	True
414.752	0.52	Win2	0.6591	n/a	No	3.178	n/a	n/a	LatePress	0	n/a	n/a	6	43	Blank	MissedWin	True
414.752	0.3	Win2	0.6591	0.004	No	3.178	-0.004	3.0	LatePress	0	0.184	n/a	6	43	ButtonPress	MissedWin	True
415.27	1.45	Win2	0.6591	n/a	No	3.178	n/a	5.0	LatePress	0	0.017	414.287	6	43	Feedback	MissedWin	True
416.725	3.178	Win2	0.6591	n/a	No	3.178	n/a	n/a	LatePress	0	0.0	n/a	6	43	ISIslide	MissedWin	True
419.918	0.25	Win2	0.6444	0.0	No	2.982	0.018	n/a	NoResponse	0	n/a	n/a	6	44	Cue	MissedWin	True
420.168	4.0	Win2	0.6444	0.0	No	2.982	0.0	n/a	NoResponse	0	n/a	n/a	6	44	Fixation	MissedWin	True
424.164	0.18	Win2	0.6444	0.004	No	2.982	-0.004	3.0	NoResponse	0	0.271	423.435	6	44	Target	MissedWin	True
424.348	0.52	Win2	0.6444	n/a	No	2.982	n/a	n/a	NoResponse	0	n/a	n/a	6	44	Blank	MissedWin	True
424.435	0.3	Win2	0.6444	0.004	No	2.982	-0.004	3.0	NoResponse	0	0.271	n/a	6	44	ButtonPress	MissedWin	True
424.866	1.45	Win2	0.6444	n/a	No	2.982	n/a	5.0	NoResponse	0	0.031	423.897	6	44	Feedback	MissedWin	True
426.32	2.982	Win2	0.6444	n/a	No	2.982	n/a	n/a	NoResponse	0	0.0	n/a	6	44	ISIslide	MissedWin	True
429.312	0.25	Control	0.6304	0.001	No	2.888	0.012	n/a	NoResponse	0	n/a	n/a	6	45	Cue	Neutral	True
429.563	4.1	Control	0.6304	0.0	No	2.888	0.001	n/a	NoResponse	0	n/a	n/a	6	45	Fixation	Neutral	True
433.659	0.19	Control	0.6304	0.003	No	2.888	-0.003	3.0	NoResponse	0	0.227	432.886	6	45	Target	Neutral	True
433.859	0.51	Control	0.6304	n/a	No	2.888	n/a	n/a	NoResponse	0	n/a	n/a	6	45	Blank	Neutral	True
433.886	0.3	Control	0.6304	0.003	No	2.888	-0.003	3.0	NoResponse	0	0.227	n/a	6	45	ButtonPress	Neutral	True
434.361	1.45	Control	0.6304	n/a	No	2.888	n/a	5.0	NoResponse	0	0.048	433.409	6	45	Feedback	Neutral	True
435.815	2.888	Control	0.6304	n/a	No	2.888	n/a	n/a	NoResponse	0	0.0	n/a	6	45	ISIslide	Neutral	True
438.724	0.25	Lose2	0.617	0.0	No	3.376	0.024	n/a	NoResponse	-1	n/a	n/a	5	46	Cue	Loss	True
438.975	4.0	Lose2	0.617	0.0	No	3.376	0.001	n/a	NoResponse	-1	n/a	n/a	5	46	Fixation	Loss	True
442.97	0.2	Lose2	0.617	0.004	No	3.376	-0.004	3.0	NoResponse	-1	0.245	442.215	5	46	Target	Loss	True
443.171	0.5	Lose2	0.617	n/a	No	3.376	n/a	n/a	NoResponse	-1	n/a	n/a	5	46	Blank	Loss	True
443.215	0.3	Lose2	0.617	0.004	No	3.376	-0.004	3.0	NoResponse	-1	0.245	n/a	5	46	ButtonPress	Loss	True
443.672	1.45	Lose2	0.617	n/a	No	3.376	n/a	5.0	NoResponse	-1	0.006	442.678	5	46	Feedback	Loss	True
445.126	3.376	Lose2	0.617	n/a	No	3.376	n/a	n/a	NoResponse	-1	0.0	n/a	5	46	ISIslide	Loss	True
448.52	0.25	Lose2	0.6042000000000001	0.0	No	2.68	0.02	n/a	NoResponse	-1	n/a	n/a	4	47	Cue	Loss	True
448.771	4.0	Lose2	0.6042000000000001	0.0	No	2.68	0.001	n/a	NoResponse	-1	n/a	n/a	4	47	Fixation	Loss	True
452.766	0.21	Lose2	0.6042000000000001	0.004	No	2.68	-0.004	3.0	NoResponse	-1	0.304	452.07	4	47	Target	Loss	True
452.983	0.49	Lose2	0.6042000000000001	n/a	No	2.68	n/a	n/a	NoResponse	-1	n/a	n/a	4	47	Blank	Loss	True
453.07	0.3	Lose2	0.6042000000000001	0.004	No	2.68	-0.004	3.0	NoResponse	-1	0.304	n/a	4	47	ButtonPress	Loss	True
453.468	1.45	Lose2	0.6042000000000001	n/a	No	2.68	n/a	5.0	NoResponse	-1	0.014	452.482	4	47	Feedback	Loss	True
454.922	2.68	Lose2	0.6042000000000001	n/a	No	2.68	n/a	n/a	NoResponse	-1	0.0	n/a	4	47	ISIslide	Loss	True
457.614	0.25	Lose2	0.6122	0.0	Yes	3.036	0.014	n/a	GoodResponse	0	n/a	n/a	4	48	Cue	AvoidedLoss	True
457.864	3.95	Lose2	0.6122	0.001	Yes	3.036	0.0	n/a	GoodResponse	0	n/a	n/a	4	48	Fixation	AvoidedLoss	True
461.81	0.22	Lose2	0.6122	0.004	Yes	3.036	-0.004	3.0	GoodResponse	0	0.173	460.983	4	48	Target	AvoidedLoss	True
461.983	0.3	Lose2	0.6122	0.004	Yes	3.036	-0.004	3.0	GoodResponse	0	0.173	n/a	4	48	ButtonPress	AvoidedLoss	True
462.044	0.48	Lose2	0.6122	n/a	Yes	3.036	n/a	n/a	GoodResponse	0	n/a	n/a	4	48	Blank	AvoidedLoss	True
462.512	1.45	Lose2	0.6122	n/a	Yes	3.036	n/a	5.0	GoodResponse	0	0.043	461.555	4	48	Feedback	AvoidedLoss	True
463.966	3.036	Lose2	0.6122	n/a	Yes	3.036	n/a	n/a	GoodResponse	0	0.0	n/a	4	48	ISIslide	AvoidedLoss	True
467.025	0.25	Control	0.6	0.0	No	2.875	0.025	n/a	NoResponse	0	n/a	n/a	4	49	Cue	Neutral	True
467.276	4.0	Control	0.6	0.0	No	2.875	0.001	3.0	NoResponse	0	3.954	470.23	4	49	Fixation	Neutral	True
471.23	0.3	Control	0.6	0.0	No	2.875	0.001	3.0	NoResponse	0	3.954	n/a	4	49	ButtonPress	Neutral	True
471.271	0.23	Control	0.6	0.004	No	2.875	-0.004	n/a	NoResponse	0	n/a	n/a	4	49	Target	Neutral	True
471.505	0.47	Control	0.6	n/a	No	2.875	n/a	n/a	NoResponse	0	n/a	n/a	4	49	Blank	Neutral	True
471.973	1.45	Control	0.6	n/a	No	2.875	n/a	5.0	NoResponse	0	0.046	471.019	4	49	Feedback	Neutral	True
473.428	2.875	Control	0.6	n/a	No	2.875	n/a	n/a	NoResponse	0	0.0	n/a	4	49	ISIslide	Neutral	True
476.32	0.25	Control	0.5882000000000001	0.0	No	2.78	0.02	n/a	PrematurePress	0	n/a	n/a	4	50	Cue	Neutral	True
476.57	4.0	Control	0.5882000000000001	0.0	No	2.78	0.0	n/a	PrematurePress	0	n/a	n/a	4	50	Fixation	Neutral	True
480.566	0.24	Control	0.5882000000000001	0.004	No	2.78	-0.004	3.0	PrematurePress	0	0.058	479.624	4	50	Target	Neutral	True
480.624	0.3	Control	0.5882000000000001	0.004	No	2.78	-0.004	3.0	PrematurePress	0	0.058	n/a	4	50	ButtonPress	Neutral	True
480.816	0.46	Control	0.5882000000000001	n/a	No	2.78	n/a	n/a	PrematurePress	0	n/a	n/a	4	50	Blank	Neutral	True
481.268	1.45	Control	0.5882000000000001	n/a	No	2.78	n/a	5.0	PrematurePress	0	0.019	480.287	4	50	Feedback	Neutral	True
482.722	2.78	Control	0.5882000000000001	n/a	No	2.78	n/a	n/a	PrematurePress	0	0.0	n/a	4	50	ISIslide	Neutral	True
485.514	0.25	Control	0.5962	0.0	Yes	2.736	0.014	n/a	GoodResponse	0	n/a	n/a	4	51	Cue	Neutral	True
485.765	3.95	Control	0.5962	0.0	Yes	2.736	0.001	n/a	GoodResponse	0	n/a	n/a	4	51	Fixation	Neutral	True
489.71	0.25	Control	0.5962	0.004	Yes	2.736	-0.004	3.0	GoodResponse	0	0.175	488.885	4	51	Target	Neutral	True
489.885	0.3	Control	0.5962	0.004	Yes	2.736	-0.004	3.0	GoodResponse	0	0.175	n/a	4	51	ButtonPress	Neutral	True
489.96	0.45	Control	0.5962	n/a	Yes	2.736	n/a	n/a	GoodResponse	0	n/a	n/a	4	51	Blank	Neutral	True
490.412	1.45	Control	0.5962	n/a	Yes	2.736	n/a	5.0	GoodResponse	0	0.045	489.457	4	51	Feedback	Neutral	True
491.866	2.736	Control	0.5962	n/a	Yes	2.736	n/a	n/a	GoodResponse	0	0.0	n/a	4	51	ISIslide	Neutral	True
494.624	0.25	Control	0.5849	0.0	No	2.626	0.024	n/a	NoResponse	0	n/a	n/a	4	52	Cue	Neutral	False
494.875	4.05	Control	0.5849	0.0	No	2.626	0.001	n/a	NoResponse	0	n/a	n/a	4	52	Fixation	Neutral	False
498.921	0.26	Control	0.5849	0.003	No	2.626	-0.003	n/a	NoResponse	0	n/a	n/a	4	52	Target	Neutral	False
499.188	0.44	Control	0.5849	n/a	No	2.626	n/a	n/a	NoResponse	0	n/a	n/a	4	52	Blank	Neutral	False
499.623	1.45	Control	0.5849	n/a	No	2.626	n/a	5.0	NoResponse	0	0.005	498.628	4	52	Feedback	Neutral	False
501.077	2.626	Control	0.5849	n/a	No	2.626	n/a	n/a	NoResponse	0	0.0	n/a	4	52	ISIslide	Neutral	False
503.718	0.25	Win2	0.5926	0.0	Yes	2.932	0.018	n/a	GoodResponse	1	n/a	n/a	5	53	Cue	Win	True
503.969	4.05	Win2	0.5926	0.0	Yes	2.932	0.001	n/a	GoodResponse	1	n/a	n/a	5	53	Fixation	Win	True
508.014	0.27	Win2	0.5926	0.004	Yes	2.932	-0.004	3.0	GoodResponse	1	0.178	507.192	5	53	Target	Win	True
508.192	0.3	Win2	0.5926	0.004	Yes	2.932	-0.004	3.0	GoodResponse	1	0.178	n/a	5	53	ButtonPress	Win	True
508.299	0.43	Win2	0.5926	n/a	Yes	2.932	n/a	n/a	GoodResponse	1	n/a	n/a	5	53	Blank	Win	True
508.716	1.45	Win2	0.5926	n/a	Yes	2.932	n/a	5.0	GoodResponse	1	0.034	507.75	5	53	Feedback	Win	True
510.171	2.932	Win2	0.5926	n/a	Yes	2.932	n/a	n/a	GoodResponse	1	0.0	n/a	5	53	ISIslide	Win	True
513.113	0.25	Win2	0.6	0.0	Yes	2.737	0.013	n/a	GoodResponse	1	n/a	n/a	6	54	Cue	Win	True
513.364	3.95	Win2	0.6	0.0	Yes	2.737	0.001	n/a	GoodResponse	1	n/a	n/a	6	54	Fixation	Win	True
517.309	0.28	Win2	0.6	0.004	Yes	2.737	-0.004	3.0	GoodResponse	1	0.103	516.412	6	54	Target	Win	True
517.412	0.3	Win2	0.6	0.004	Yes	2.737	-0.004	3.0	GoodResponse	1	0.103	n/a	6	54	ButtonPress	Win	True
517.593	0.42	Win2	0.6	n/a	Yes	2.737	n/a	n/a	GoodResponse	1	n/a	n/a	6	54	Blank	Win	True
518.011	1.45	Win2	0.6	n/a	Yes	2.737	n/a	5.0	GoodResponse	1	0.007	517.018	6	54	Feedback	Win	True
519.465	2.737	Win2	0.6	n/a	Yes	2.737	n/a	n/a	GoodResponse	1	0.0	n/a	6	54	ISIslide	Win	True
522.224	0.25	Control	0.6071	0.0	Yes	3.026	0.024	n/a	GoodResponse	0	n/a	n/a	6	55	Cue	Neutral	False
522.474	3.95	Control	0.6071	0.0	Yes	3.026	0.0	3.0	GoodResponse	0	3.647	525.121	6	55	Fixation	Neutral	False
526.121	0.3	Control	0.6071	0.0	Yes	3.026	0.0	3.0	GoodResponse	0	3.647	n/a	6	55	ButtonPress	Neutral	False
526.436	0.29	Control	0.6071	0.0	Yes	3.026	0.012	3.0	GoodResponse	0	0.218	525.654	6	55	Target	Neutral	False
526.654	0.3	Control	0.6071	0.0	Yes	3.026	0.012	3.0	GoodResponse	0	0.218	n/a	6	55	ButtonPress	Neutral	False
526.72	0.41	Control	0.6071	n/a	Yes	3.026	n/a	n/a	GoodResponse	0	n/a	n/a	6	55	Blank	Neutral	False
527.122	1.45	Control	0.6071	n/a	Yes	3.026	n/a	5.0	GoodResponse	0	0.018	526.14	6	55	Feedback	Neutral	False
528.576	3.026	Control	0.6071	n/a	Yes	3.026	n/a	n/a	GoodResponse	0	0.0	n/a	6	55	ISIslide	Neutral	False
531.618	0.25	Control	0.614	0.0	Yes	2.832	0.018	n/a	GoodResponse	0	n/a	n/a	6	56	Cue	Neutral	True
531.869	3.95	Control	0.614	0.0	Yes	2.832	0.001	n/a	GoodResponse	0	n/a	n/a	6	56	Fixation	Neutral	True
535.814	0.3	Control	0.614	0.004	Yes	2.832	-0.004	3.0	GoodResponse	0	0.28	535.094	6	56	Target	Neutral	True
536.094	0.3	Control	0.614	0.004	Yes	2.832	-0.004	3.0	GoodResponse	0	0.28	n/a	6	56	ButtonPress	Neutral	True
536.115	0.4	Control	0.614	n/a	Yes	2.832	n/a	n/a	GoodResponse	0	n/a	n/a	6	56	Blank	Neutral	True
536.516	1.45	Control	0.614	n/a	Yes	2.832	n/a	5.0	GoodResponse	0	0.038	535.554	6	56	Feedback	Neutral	True
537.971	2.832	Control	0.614	n/a	Yes	2.832	n/a	n/a	GoodResponse	0	0.0	n/a	6	56	ISIslide	Neutral	True
540.829	0.25	Control	0.6207	0.0	Yes	3.471	0.029	n/a	GoodResponse	0	n/a	n/a	6	57	Cue	Neutral	True
541.08	4.0	Control	0.6207	0.0	Yes	3.471	0.001	n/a	GoodResponse	0	n/a	n/a	6	57	Fixation	Neutral	True
545.075	0.31	Control	0.6207	0.004	Yes	3.471	-0.004	3.0	GoodResponse	0	0.179	544.254	6	57	Target	Neutral	True
545.254	0.3	Control	0.6207	0.004	Yes	3.471	-0.004	3.0	GoodResponse	0	0.179	n/a	6	57	ButtonPress	Neutral	True
545.393	0.39	Control	0.6207	n/a	Yes	3.471	n/a	n/a	GoodResponse	0	n/a	n/a	6	57	Blank	Neutral	True
545.777	1.45	Control	0.6207	n/a	Yes	3.471	n/a	5.0	GoodResponse	0	0.045	544.822	6	57	Feedback	Neutral	True
547.232	3.471	Control	0.6207	n/a	Yes	3.471	n/a	n/a	GoodResponse	0	0.0	n/a	6	57	ISIslide	Neutral	True
550.725	0.25	Win2	0.6271	0.001	Yes	2.725	0.025	n/a	GoodResponse	1	n/a	n/a	7	58	Cue	Win	True
550.976	4.05	Win2	0.6271	0.0	Yes	2.725	0.001	n/a	GoodResponse	1	n/a	n/a	7	58	Fixation	Win	True
555.022	0.32	Win2	0.6271	0.003	Yes	2.725	-0.003	3.0	GoodResponse	1	0.184	554.206	7	58	Target	Win	True
555.206	0.3	Win2	0.6271	0.003	Yes	2.725	-0.003	3.0	GoodResponse	1	0.184	n/a	7	58	ButtonPress	Win	True
555.356	0.38	Win2	0.6271	n/a	Yes	2.725	n/a	n/a	GoodResponse	1	n/a	n/a	7	58	Blank	Win	True
555.724	1.45	Win2	0.6271	n/a	Yes	2.725	n/a	5.0	GoodResponse	1	0.001	554.725	7	58	Feedback	Win	True
557.178	2.725	Win2	0.6271	n/a	Yes	2.725	n/a	n/a	GoodResponse	1	0.0	n/a	7	58	ISIslide	Win	True
559.92	0.25	Lose2	0.6333	0.0	Yes	2.68	0.02	n/a	GoodResponse	0	n/a	n/a	7	59	Cue	AvoidedLoss	False
560.17	4.0	Lose2	0.6333	0.0	Yes	2.68	0.0	3.0	GoodResponse	0	3.705	562.875	7	59	Fixation	AvoidedLoss	False
563.875	0.3	Lose2	0.6333	0.0	Yes	2.68	0.0	3.0	GoodResponse	0	3.705	n/a	7	59	ButtonPress	AvoidedLoss	False
564.166	0.33	Lose2	0.6333	0.004	Yes	2.68	-0.004	3.0	GoodResponse	0	0.18	563.346	7	59	Target	AvoidedLoss	False
564.346	0.3	Lose2	0.6333	0.004	Yes	2.68	-0.004	3.0	GoodResponse	0	0.18	n/a	7	59	ButtonPress	AvoidedLoss	False
564.5	0.37	Lose2	0.6333	n/a	Yes	2.68	n/a	n/a	GoodResponse	0	n/a	n/a	7	59	Blank	AvoidedLoss	False
564.868	1.45	Lose2	0.6333	n/a	Yes	2.68	n/a	5.0	GoodResponse	0	0.028	563.896	7	59	Feedback	AvoidedLoss	False
566.322	2.68	Lose2	0.6333	n/a	Yes	2.68	n/a	n/a	GoodResponse	0	0.0	n/a	7	59	ISIslide	AvoidedLoss	False
569.013	0.25	Control	0.623	0.001	No	2.687	0.013	n/a	NoResponse	0	n/a	n/a	7	60	Cue	Neutral	True
569.264	4.0	Control	0.623	0.0	No	2.687	0.001	3.0	NoResponse	0	3.913	572.177	7	60	Fixation	Neutral	True
573.177	0.3	Control	0.623	0.0	No	2.687	0.001	3.0	NoResponse	0	3.913	n/a	7	60	ButtonPress	Neutral	True
573.259	0.34	Control	0.623	0.004	No	2.687	-0.004	n/a	NoResponse	0	n/a	n/a	7	60	Target	Neutral	True
573.611	0.36	Control	0.623	n/a	No	2.687	n/a	n/a	NoResponse	0	n/a	n/a	7	60	Blank	Neutral	True
573.962	1.45	Control	0.623	n/a	No	2.687	n/a	5.0	NoResponse	0	0.006	572.968	7	60	Feedback	Neutral	True
575.416	2.687	Control	0.623	n/a	No	2.687	n/a	n/a	NoResponse	0	0.0	n/a	7	60	ISIslide	Neutral	True
578.124	0.25	Lose2	0.629	0.0	Yes	2.976	0.024	n/a	GoodResponse	0	n/a	n/a	7	61	Cue	AvoidedLoss	True
578.375	4.0	Lose2	0.629	0.0	Yes	2.976	0.001	n/a	GoodResponse	0	n/a	n/a	7	61	Fixation	AvoidedLoss	True
582.37	0.35	Lose2	0.629	0.004	Yes	2.976	-0.004	3.0	GoodResponse	0	0.184	581.554	7	61	Target	AvoidedLoss	True
582.554	0.3	Lose2	0.629	0.004	Yes	2.976	-0.004	3.0	GoodResponse	0	0.184	n/a	7	61	ButtonPress	AvoidedLoss	True
582.721	0.35	Lose2	0.629	n/a	Yes	2.976	n/a	n/a	GoodResponse	0	n/a	n/a	7	61	Blank	AvoidedLoss	True
583.072	1.45	Lose2	0.629	n/a	Yes	2.976	n/a	5.0	GoodResponse	0	0.018	582.09	7	61	Feedback	AvoidedLoss	True
584.526	2.976	Lose2	0.629	n/a	Yes	2.976	n/a	n/a	GoodResponse	0	0.0	n/a	7	61	ISIslide	AvoidedLoss	True
587.519	0.25	Lose2	0.6349	0.0	Yes	2.881	0.019	n/a	GoodResponse	0	n/a	n/a	7	62	Cue	AvoidedLoss	True
587.77	3.9	Lose2	0.6349	0.0	Yes	2.881	0.001	n/a	GoodResponse	0	n/a	n/a	7	62	Fixation	AvoidedLoss	True
591.664	0.36	Lose2	0.6349	0.005	Yes	2.881	-0.005	3.0	GoodResponse	0	0.196	590.86	7	62	Target	AvoidedLoss	True
591.86	0.3	Lose2	0.6349	0.005	Yes	2.881	-0.005	3.0	GoodResponse	0	0.196	n/a	7	62	ButtonPress	AvoidedLoss	True
592.032	0.34	Lose2	0.6349	n/a	Yes	2.881	n/a	n/a	GoodResponse	0	n/a	n/a	7	62	Blank	AvoidedLoss	True
592.367	1.45	Lose2	0.6349	n/a	Yes	2.881	n/a	5.0	GoodResponse	0	0.04	591.407	7	62	Feedback	AvoidedLoss	True
593.821	2.881	Lose2	0.6349	n/a	Yes	2.881	n/a	n/a	GoodResponse	0	0.0	n/a	7	62	ISIslide	AvoidedLoss	True
596.73	0.25	Lose2	0.6406000000000001	0.0	Yes	2.62	0.03	n/a	GoodResponse	0	n/a	n/a	7	63	Cue	AvoidedLoss	True
596.98	4.05	Lose2	0.6406000000000001	0.0	Yes	2.62	0.0	n/a	GoodResponse	0	n/a	n/a	7	63	Fixation	AvoidedLoss	True
601.026	0.37	Lose2	0.6406000000000001	0.004	Yes	2.62	-0.004	3.0	GoodResponse	0	0.176	600.202	7	63	Target	AvoidedLoss	True
601.202	0.3	Lose2	0.6406000000000001	0.004	Yes	2.62	-0.004	3.0	GoodResponse	0	0.176	n/a	7	63	ButtonPress	AvoidedLoss	True
601.41	0.33	Lose2	0.6406000000000001	n/a	Yes	2.62	n/a	n/a	GoodResponse	0	n/a	n/a	7	63	Blank	AvoidedLoss	True
601.728	1.45	Lose2	0.6406000000000001	n/a	Yes	2.62	n/a	5.0	GoodResponse	0	0.045	600.773	7	63	Feedback	AvoidedLoss	True
603.182	2.62	Lose2	0.6406000000000001	n/a	Yes	2.62	n/a	n/a	GoodResponse	0	0.0	n/a	7	63	ISIslide	AvoidedLoss	True
605.823	0.25	Win2	0.6462	0.001	Yes	3.127	0.023	n/a	GoodResponse	1	n/a	n/a	8	64	Cue	Win	True
606.074	4.15	Win2	0.6462	0.0	Yes	3.127	0.001	n/a	GoodResponse	1	n/a	n/a	8	64	Fixation	Win	True
610.22	0.38	Win2	0.6462	0.003	Yes	3.127	-0.003	3.0	GoodResponse	1	0.163	609.383	8	64	Target	Win	True
610.383	0.3	Win2	0.6462	0.003	Yes	3.127	-0.003	3.0	GoodResponse	1	0.163	n/a	8	64	ButtonPress	Win	True
610.604	0.32	Win2	0.6462	n/a	Yes	3.127	n/a	n/a	GoodResponse	1	n/a	n/a	8	64	Blank	Win	True
610.922	1.45	Win2	0.6462	n/a	Yes	3.127	n/a	5.0	GoodResponse	1	0.022	609.944	8	64	Feedback	Win	True
612.376	3.127	Win2	0.6462	n/a	Yes	3.127	n/a	n/a	GoodResponse	1	0.0	n/a	8	64	ISIslide	Win	True
615.519	0.25	Control	0.6515000000000001	0.0	Yes	2.781	0.019	n/a	GoodResponse	0	n/a	n/a	8	65	Cue	Neutral	True
615.77	4.0	Control	0.6515000000000001	0.0	Yes	2.781	0.001	n/a	GoodResponse	0	n/a	n/a	8	65	Fixation	Neutral	True
619.765	0.39	Control	0.6515000000000001	0.004	Yes	2.781	-0.004	3.0	GoodResponse	0	0.185	618.95	8	65	Target	Neutral	True
619.95	0.3	Control	0.6515000000000001	0.004	Yes	2.781	-0.004	3.0	GoodResponse	0	0.185	n/a	8	65	ButtonPress	Neutral	True
620.166	0.31	Control	0.6515000000000001	n/a	Yes	2.781	n/a	n/a	GoodResponse	0	n/a	n/a	8	65	Blank	Neutral	True
620.467	1.45	Control	0.6515000000000001	n/a	Yes	2.781	n/a	5.0	GoodResponse	0	0.037	619.504	8	65	Feedback	Neutral	True
621.922	2.781	Control	0.6515000000000001	n/a	Yes	2.781	n/a	n/a	GoodResponse	0	0.0	n/a	8	65	ISIslide	Neutral	True
624.713	0.25	Win2	0.6567000000000001	0.0	Yes	2.787	0.013	n/a	GoodResponse	1	n/a	n/a	9	66	Cue	Win	True
624.964	3.9	Win2	0.6567000000000001	0.0	Yes	2.787	0.001	n/a	GoodResponse	1	n/a	n/a	9	66	Fixation	Win	True
628.859	0.4	Win2	0.6567000000000001	0.004	Yes	2.787	-0.004	3.0	GoodResponse	1	0.248	628.107	9	66	Target	Win	True
629.107	0.3	Win2	0.6567000000000001	0.004	Yes	2.787	-0.004	3.0	GoodResponse	1	0.248	n/a	9	66	ButtonPress	Win	True
629.26	0.3	Win2	0.6567000000000001	n/a	Yes	2.787	n/a	n/a	GoodResponse	1	n/a	n/a	9	66	Blank	Win	True
629.561	1.45	Win2	0.6567000000000001	n/a	Yes	2.787	n/a	5.0	GoodResponse	1	0.016	628.577	9	66	Feedback	Win	True
631.015	2.787	Win2	0.6567000000000001	n/a	Yes	2.787	n/a	n/a	GoodResponse	1	0.0	n/a	9	66	ISIslide	Win	True
633.824	0.25	Control	0.6618	0.0	Yes	2.726	0.024	n/a	GoodResponse	0	n/a	n/a	9	67	Cue	Neutral	True
634.075	3.95	Control	0.6618	0.0	Yes	2.726	0.001	n/a	GoodResponse	0	n/a	n/a	9	67	Fixation	Neutral	True
638.02	0.4	Control	0.6618	0.004	Yes	2.726	-0.004	3.0	GoodResponse	0	0.242	637.262	9	67	Target	Neutral	True
638.262	0.3	Control	0.6618	0.004	Yes	2.726	-0.004	3.0	GoodResponse	0	0.242	n/a	9	67	ButtonPress	Neutral	True
638.421	0.3	Control	0.6618	n/a	Yes	2.726	n/a	n/a	GoodResponse	0	n/a	n/a	9	67	Blank	Neutral	True
638.722	1.45	Control	0.6618	n/a	Yes	2.726	n/a	5.0	GoodResponse	0	0.026	637.748	9	67	Feedback	Neutral	True
640.176	2.726	Control	0.6618	n/a	Yes	2.726	n/a	n/a	GoodResponse	0	0.0	n/a	9	67	ISIslide	Neutral	True
642.918	0.25	Win2	0.6667000000000001	0.0	Yes	3.082	0.018	n/a	GoodResponse	1	n/a	n/a	10	68	Cue	Win	False
643.168	4.0	Win2	0.6667000000000001	0.001	Yes	3.082	0.0	3.0	GoodResponse	1	3.711	645.879	10	68	Fixation	Win	False
646.879	0.3	Win2	0.6667000000000001	0.001	Yes	3.082	0.0	3.0	GoodResponse	1	3.711	n/a	10	68	ButtonPress	Win	False
647.164	0.4	Win2	0.6667000000000001	0.004	Yes	3.082	-0.004	3.0	GoodResponse	1	0.133	646.297	10	68	Target	Win	False
647.297	0.3	Win2	0.6667000000000001	0.004	Yes	3.082	-0.004	3.0	GoodResponse	1	0.133	n/a	10	68	ButtonPress	Win	False
647.565	0.3	Win2	0.6667000000000001	n/a	Yes	3.082	n/a	n/a	GoodResponse	1	n/a	n/a	10	68	Blank	Win	False
647.866	1.45	Win2	0.6667000000000001	n/a	Yes	3.082	n/a	5.0	GoodResponse	1	0.004	646.87	10	68	Feedback	Win	False
649.32	3.082	Win2	0.6667000000000001	n/a	Yes	3.082	n/a	n/a	GoodResponse	1	0.0	n/a	10	68	ISIslide	Win	False
652.43	0.25	Win2	0.6714	0.0	Yes	3.22	0.03	n/a	GoodResponse	1	n/a	n/a	11	69	Cue	Win	True
652.68	3.95	Win2	0.6714	0.0	Yes	3.22	0.0	n/a	GoodResponse	1	n/a	n/a	11	69	Fixation	Win	True
656.642	0.39	Win2	0.6714	0.0	Yes	3.22	0.012	3.0	GoodResponse	1	0.222	655.864	11	69	Target	Win	True
656.864	0.3	Win2	0.6714	0.0	Yes	3.22	0.012	3.0	GoodResponse	1	0.222	n/a	11	69	ButtonPress	Win	True
657.027	0.31	Win2	0.6714	n/a	Yes	3.22	n/a	n/a	GoodResponse	1	n/a	n/a	11	69	Blank	Win	True
657.327	1.45	Win2	0.6714	n/a	Yes	3.22	n/a	5.0	GoodResponse	1	0.007	656.334	11	69	Feedback	Win	True
658.782	3.22	Win2	0.6714	n/a	Yes	3.22	n/a	n/a	GoodResponse	1	0.0	n/a	11	69	ISIslide	Win	True
662.025	0.25	Lose2	0.6761	0.0	Yes	3.025	0.025	n/a	GoodResponse	0	n/a	n/a	11	70	Cue	AvoidedLoss	True
662.276	4.05	Lose2	0.6761	0.0	Yes	3.025	0.001	n/a	GoodResponse	0	n/a	n/a	11	70	Fixation	AvoidedLoss	True
666.321	0.38	Lose2	0.6761	0.004	Yes	3.025	-0.004	3.0	GoodResponse	0	0.301	665.622	11	70	Target	AvoidedLoss	True
666.622	0.3	Lose2	0.6761	0.004	Yes	3.025	-0.004	3.0	GoodResponse	0	0.301	n/a	11	70	ButtonPress	AvoidedLoss	True
666.706	0.32	Lose2	0.6761	n/a	Yes	3.025	n/a	n/a	GoodResponse	0	n/a	n/a	11	70	Blank	AvoidedLoss	True
667.023	1.45	Lose2	0.6761	n/a	Yes	3.025	n/a	5.0	GoodResponse	0	0.017	666.04	11	70	Feedback	AvoidedLoss	True
668.477	3.025	Lose2	0.6761	n/a	Yes	3.025	n/a	n/a	GoodResponse	0	0.0	n/a	11	70	ISIslide	AvoidedLoss	True
671.52	0.25	Win2	0.6806	0.0	Yes	2.73	0.02	n/a	GoodResponse	1	n/a	n/a	12	71	Cue	Win	True
671.771	4.05	Win2	0.6806	0.0	Yes	2.73	0.001	n/a	GoodResponse	1	n/a	n/a	12	71	Fixation	Win	True
675.816	0.37	Win2	0.6806	0.004	Yes	2.73	-0.004	3.0	GoodResponse	1	0.224	675.04	12	71	Target	Win	True
676.04	0.3	Win2	0.6806	0.004	Yes	2.73	-0.004	3.0	GoodResponse	1	0.224	n/a	12	71	ButtonPress	Win	True
676.201	0.33	Win2	0.6806	n/a	Yes	2.73	n/a	n/a	GoodResponse	1	n/a	n/a	12	71	Blank	Win	True
676.518	1.45	Win2	0.6806	n/a	Yes	2.73	n/a	5.0	GoodResponse	1	0.034	675.552	12	71	Feedback	Win	True
677.973	2.73	Win2	0.6806	n/a	Yes	2.73	n/a	n/a	GoodResponse	1	0.0	n/a	12	71	ISIslide	Win	True
680.714	0.25	Win2	0.6849	0.0	Yes	2.786	0.014	n/a	GoodResponse	1	n/a	n/a	13	72	Cue	Win	True
680.965	4.1	Win2	0.6849	0.0	Yes	2.786	0.001	n/a	GoodResponse	1	n/a	n/a	13	72	Fixation	Win	True
685.06	0.36	Win2	0.6849	0.004	Yes	2.786	-0.004	3.0	GoodResponse	1	0.235	684.295	13	72	Target	Win	True
685.295	0.3	Win2	0.6849	0.004	Yes	2.786	-0.004	3.0	GoodResponse	1	0.235	n/a	13	72	ButtonPress	Win	True
685.428	0.34	Win2	0.6849	n/a	Yes	2.786	n/a	n/a	GoodResponse	1	n/a	n/a	13	72	Blank	Win	True
685.763	1.45	Win2	0.6849	n/a	Yes	2.786	n/a	5.0	GoodResponse	1	0.009	684.772	13	72	Feedback	Win	True
687.217	2.786	Win2	0.6849	n/a	Yes	2.786	n/a	n/a	GoodResponse	1	0.0	n/a	13	72	ISIslide	Win	True
690.025	0.25	Win2	0.6892	0.0	Yes	2.675	0.025	n/a	GoodResponse	1	n/a	n/a	14	73	Cue	Win	True
690.276	4.0	Win2	0.6892	0.0	Yes	2.675	0.001	n/a	GoodResponse	1	n/a	n/a	14	73	Fixation	Win	True
694.271	0.35	Win2	0.6892	0.004	Yes	2.675	-0.004	3.0	GoodResponse	1	0.227	693.498	14	73	Target	Win	True
694.498	0.3	Win2	0.6892	0.004	Yes	2.675	-0.004	3.0	GoodResponse	1	0.227	n/a	14	73	ButtonPress	Win	True
694.622	0.35	Win2	0.6892	n/a	Yes	2.675	n/a	n/a	GoodResponse	1	n/a	n/a	14	73	Blank	Win	True
694.973	1.45	Win2	0.6892	n/a	Yes	2.675	n/a	5.0	GoodResponse	1	0.019	693.992	14	73	Feedback	Win	True
696.428	2.675	Win2	0.6892	n/a	Yes	2.675	n/a	n/a	GoodResponse	1	0.0	n/a	14	73	ISIslide	Win	True
699.119	0.25	Lose2	0.6933	0.0	Yes	2.631	0.019	n/a	GoodResponse	0	n/a	n/a	14	74	Cue	AvoidedLoss	True
699.37	4.05	Lose2	0.6933	0.0	Yes	2.631	0.001	n/a	GoodResponse	0	n/a	n/a	14	74	Fixation	AvoidedLoss	True
703.415	0.34	Lose2	0.6933	0.004	Yes	2.631	-0.004	3.0	GoodResponse	0	0.202	702.617	14	74	Target	AvoidedLoss	True
703.617	0.3	Lose2	0.6933	0.004	Yes	2.631	-0.004	3.0	GoodResponse	0	0.202	n/a	14	74	ButtonPress	AvoidedLoss	True
703.766	0.36	Lose2	0.6933	n/a	Yes	2.631	n/a	n/a	GoodResponse	0	n/a	n/a	14	74	Blank	AvoidedLoss	True
704.117	1.45	Lose2	0.6933	n/a	Yes	2.631	n/a	5.0	GoodResponse	0	0.044	703.161	14	74	Feedback	AvoidedLoss	True
705.572	2.631	Lose2	0.6933	n/a	Yes	2.631	n/a	n/a	GoodResponse	0	0.0	n/a	14	74	ISIslide	AvoidedLoss	True
708.213	0.25	Lose2	0.6973999999999999	0.0	Yes	2.937	0.013	n/a	GoodResponse	0	n/a	n/a	14	75	Cue	AvoidedLoss	True
708.464	3.95	Lose2	0.6973999999999999	0.0	Yes	2.937	0.001	n/a	GoodResponse	0	n/a	n/a	14	75	Fixation	AvoidedLoss	True
712.409	0.33	Lose2	0.6973999999999999	0.004	Yes	2.937	-0.004	3.0	GoodResponse	0	0.203	711.612	14	75	Target	AvoidedLoss	True
712.612	0.3	Lose2	0.6973999999999999	0.004	Yes	2.937	-0.004	3.0	GoodResponse	0	0.203	n/a	14	75	ButtonPress	AvoidedLoss	True
712.743	0.37	Lose2	0.6973999999999999	n/a	Yes	2.937	n/a	n/a	GoodResponse	0	n/a	n/a	14	75	Blank	AvoidedLoss	True
713.111	1.45	Lose2	0.6973999999999999	n/a	Yes	2.937	n/a	5.0	GoodResponse	0	0.026	712.137	14	75	Feedback	AvoidedLoss	True
714.565	2.937	Lose2	0.6973999999999999	n/a	Yes	2.937	n/a	n/a	GoodResponse	0	0.0	n/a	14	75	ISIslide	AvoidedLoss	True
717.524	0.25	Control	0.6883	0.0	No	3.226	0.024	n/a	NoResponse	0	n/a	n/a	14	76	Cue	Neutral	False
717.775	4.05	Control	0.6883	0.0	No	3.226	0.001	n/a	NoResponse	0	n/a	n/a	14	76	Fixation	Neutral	False
721.82	0.32	Control	0.6883	0.004	No	3.226	-0.004	n/a	NoResponse	0	n/a	n/a	14	76	Target	Neutral	False
722.155	0.38	Control	0.6883	n/a	No	3.226	n/a	n/a	NoResponse	0	n/a	n/a	14	76	Blank	Neutral	False
722.522	1.45	Control	0.6883	n/a	No	3.226	n/a	5.0	NoResponse	0	0.03	721.552	14	76	Feedback	Neutral	False
723.977	3.226	Control	0.6883	n/a	No	3.226	n/a	n/a	NoResponse	0	0.0	n/a	14	76	ISIslide	Neutral	False
727.22	0.25	Lose2	0.6923	0.0	Yes	2.58	0.02	n/a	GoodResponse	0	n/a	n/a	14	77	Cue	AvoidedLoss	True
727.471	3.95	Lose2	0.6923	0.0	Yes	2.58	0.001	n/a	GoodResponse	0	n/a	n/a	14	77	Fixation	AvoidedLoss	True
731.416	0.31	Lose2	0.6923	0.004	Yes	2.58	-0.004	3.0	GoodResponse	0	0.186	730.602	14	77	Target	AvoidedLoss	True
731.602	0.3	Lose2	0.6923	0.004	Yes	2.58	-0.004	3.0	GoodResponse	0	0.186	n/a	14	77	ButtonPress	AvoidedLoss	True
731.733	0.39	Lose2	0.6923	n/a	Yes	2.58	n/a	n/a	GoodResponse	0	n/a	n/a	14	77	Blank	AvoidedLoss	True
732.118	1.45	Lose2	0.6923	n/a	Yes	2.58	n/a	5.0	GoodResponse	0	0.044	731.162	14	77	Feedback	AvoidedLoss	True
733.572	2.58	Lose2	0.6923	n/a	Yes	2.58	n/a	n/a	GoodResponse	0	0.0	n/a	14	77	ISIslide	AvoidedLoss	True
