onset	duration	cue_type	current_mean_accuracy	duration_error	is_hit	isi_adjusted	onset_delay	response	response_type	reward	rt	rt_time	total_reward	trial_number	trial_phase	trial_type	one_press
11.098	0.25	Control	1.0	0.0	Yes	2.952	-0.002	n/a	GoodResponse	0	n/a	n/a	0	0	Cue	Neutral	True
11.348	3.85	Control	1.0	0.001	Yes	2.952	0.0	n/a	GoodResponse	0	n/a	n/a	0	0	Fixation	Neutral	True
15.21	0.4	Control	1.0	0.0	Yes	2.952	0.012	1.0	GoodResponse	0	0.31	14.52	0	0	Target	Neutral	True
15.52	0.3	Control	1.0	0.0	Yes	2.952	0.012	1.0	GoodResponse	0	0.31	n/a	0	0	ButtonPress	Neutral	True
15.595	0.3	Control	1.0	n/a	Yes	2.952	n/a	n/a	GoodResponse	0	n/a	n/a	0	0	Blank	Neutral	True
15.895	1.45	Control	1.0	n/a	Yes	2.952	n/a	5.0	GoodResponse	0	0.031	14.926	0	0	Feedback	Neutral	True
17.35	2.952	Control	1.0	n/a	Yes	2.952	n/a	n/a	GoodResponse	0	0.0	n/a	0	0	ISIslide	Neutral	True
20.325	0.25	Lose2	1.0	0.0	Yes	2.775	0.025	n/a	GoodResponse	0	n/a	n/a	0	1	Cue	AvoidedLoss	True
20.576	4.0	Lose2	1.0	0.0	Yes	2.775	0.001	n/a	GoodResponse	0	n/a	n/a	0	1	Fixation	AvoidedLoss	True
24.571	0.39	Lose2	1.0	0.004	Yes	2.775	-0.004	1.0	GoodResponse	0	0.196	23.767	0	1	Target	AvoidedLoss	True
24.767	0.3	Lose2	1.0	0.004	Yes	2.775	-0.004	1.0	GoodResponse	0	0.196	n/a	0	1	ButtonPress	AvoidedLoss	True
24.973	0.31	Lose2	1.0	n/a	Yes	2.775	n/a	n/a	GoodResponse	0	n/a	n/a	0	1	Blank	AvoidedLoss	True
25.273	1.45	Lose2	1.0	n/a	Yes	2.775	n/a	5.0	GoodResponse	0	0.019	24.292	0	1	Feedback	AvoidedLoss	True
26.728	2.775	Lose2	1.0	n/a	Yes	2.775	n/a	n/a	GoodResponse	0	0.0	n/a	0	1	ISIslide	AvoidedLoss	True
29.52	0.25	Control	1.0	0.0	Yes	2.58	0.02	n/a	GoodResponse	0	n/a	n/a	0	2	Cue	Neutral	True
29.77	4.1	Control	1.0	0.0	Yes	2.58	0.0	n/a	GoodResponse	0	n/a	n/a	0	2	Fixation	Neutral	True
33.866	0.38	Control	1.0	0.004	Yes	2.58	-0.004	1.0	GoodResponse	0	0.181	33.047	0	2	Target	Neutral	True
34.047	0.3	Control	1.0	0.004	Yes	2.58	-0.004	1.0	GoodResponse	0	0.181	n/a	0	2	ButtonPress	Neutral	True
34.25	0.32	Control	1.0	n/a	Yes	2.58	n/a	n/a	GoodResponse	0	n/a	n/a	0	2	Blank	Neutral	True
34.568	1.45	Control	1.0	n/a	Yes	2.58	n/a	5.0	GoodResponse	0	0.042	33.61	0	2	Feedback	Neutral	True
36.022	2.58	Control	1.0	n/a	Yes	2.58	n/a	n/a	GoodResponse	0	0.0	n/a	0	2	ISIslide	Neutral	True
38.63	0.25	Win2	1.0	0.0	Yes	2.82	0.03	n/a	GoodResponse	1	n/a	n/a	1	3	Cue	Win	True
38.881	3.95	Win2	1.0	0.0	Yes	2.82	0.001	n/a	GoodResponse	1	n/a	n/a	1	3	Fixation	Win	True
42.826	0.37	Win2	1.0	0.004	Yes	2.82	-0.004	1.0	GoodResponse	1	0.175	42.001	1	3	Target	Win	True
43.001	0.3	Win2	1.0	0.004	Yes	2.82	-0.004	1.0	GoodResponse	1	0.175	n/a	1	3	ButtonPress	Win	True
43.211	0.33	Win2	1.0	n/a	Yes	2.82	n/a	n/a	GoodResponse	1	n/a	n/a	1	3	Blank	Win	True
43.528	1.45	Win2	1.0	n/a	Yes	2.82	n/a	5.0	GoodResponse	1	0.009	42.537	1	3	Feedback	Win	True
44.983	2.82	Win2	1.0	n/a	Yes	2.82	n/a	n/a	GoodResponse	1	0.0	n/a	1	3	ISIslide	Win	True
47.824	0.25	Win2	1.0	0.0	Yes	3.276	0.024	n/a	GoodResponse	1	n/a	n/a	2	4	Cue	Win	True
48.075	4.0	Win2	1.0	0.0	Yes	3.276	0.001	n/a	GoodResponse	1	n/a	n/a	2	4	Fixation	Win	True
52.07	0.36	Win2	1.0	0.004	Yes	3.276	-0.004	1.0	GoodResponse	1	0.177	51.247	2	4	Target	Win	True
52.247	0.3	Win2	1.0	0.004	Yes	3.276	-0.004	1.0	GoodResponse	1	0.177	n/a	2	4	ButtonPress	Win	True
52.438	0.34	Win2	1.0	n/a	Yes	3.276	n/a	n/a	GoodResponse	1	n/a	n/a	2	4	Blank	Win	True
52.772	1.45	Win2	1.0	n/a	Yes	3.276	n/a	5.0	GoodResponse	1	0.032	51.804	2	4	Feedback	Win	True
54.227	3.276	Win2	1.0	n/a	Yes	3.276	n/a	n/a	GoodResponse	1	0.0	n/a	2	4	ISIslide	Win	True
57.52	0.25	Win2	1.0	0.0	Yes	2.78	0.02	n/a	GoodResponse	1	n/a	n/a	3	5	Cue	Win	False
57.771	4.0	Win2	1.0	0.0	Yes	2.78	0.001	1.0	GoodResponse	1	3.323	60.094	3	5	Fixation	Win	False
61.094	0.3	Win2	1.0	0.0	Yes	2.78	0.001	1.0	GoodResponse	1	3.323	n/a	3	5	ButtonPress	Win	False
61.766	0.35	Win2	1.0	0.004	Yes	2.78	-0.004	1.0	GoodResponse	1	0.178	60.944	3	5	Target	Win	False
61.944	0.3	Win2	1.0	0.004	Yes	2.78	-0.004	1.0	GoodResponse	1	0.178	n/a	3	5	ButtonPress	Win	False
62.117	0.35	Win2	1.0	n/a	Yes	2.78	n/a	n/a	GoodResponse	1	n/a	n/a	3	5	Blank	Win	False
62.468	1.45	Win2	1.0	n/a	Yes	2.78	n/a	5.0	GoodResponse	1	0.043	61.511	3	5	Feedback	Win	False
63.923	2.78	Win2	1.0	n/a	Yes	2.78	n/a	n/a	GoodResponse	1	0.0	n/a	3	5	ISIslide	Win	False
66.714	0.25	Lose2	1.0	0.0	Yes	2.736	0.014	n/a	GoodResponse	0	n/a	n/a	3	6	Cue	AvoidedLoss	True
66.965	3.95	Lose2	1.0	0.0	Yes	2.736	0.001	n/a	GoodResponse	0	n/a	n/a	3	6	Fixation	AvoidedLoss	True
70.91	0.34	Lose2	1.0	0.004	Yes	2.736	-0.004	1.0	GoodResponse	0	0.197	70.107	3	6	Target	AvoidedLoss	True
71.107	0.3	Lose2	1.0	0.004	Yes	2.736	-0.004	1.0	GoodResponse	0	0.197	n/a	3	6	ButtonPress	AvoidedLoss	True
71.261	0.36	Lose2	1.0	n/a	Yes	2.736	n/a	n/a	GoodResponse	0	n/a	n/a	3	6	Blank	AvoidedLoss	True
71.612	1.45	Lose2	1.0	n/a	Yes	2.736	n/a	5.0	GoodResponse	0	0.021	70.633	3	6	Feedback	AvoidedLoss	True
73.067	2.736	Lose2	1.0	n/a	Yes	2.736	n/a	n/a	GoodResponse	0	0.0	n/a	3	6	ISIslide	AvoidedLoss	True
75.825	0.25	Lose2	1.0	0.0	Yes	4.025	0.025	n/a	GoodResponse	0	n/a	n/a	3	7	Cue	AvoidedLoss	True
76.076	4.05	Lose2	1.0	0.0	Yes	4.025	0.001	n/a	GoodResponse	0	n/a	n/a	3	7	Fixation	AvoidedLoss	True
80.121	0.33	Lose2	1.0	0.004	Yes	4.025	-0.004	1.0	GoodResponse	0	0.196	79.317	3	7	Target	AvoidedLoss	True
80.317	0.3	Lose2	1.0	0.004	Yes	4.025	-0.004	1.0	GoodResponse	0	0.196	n/a	3	7	ButtonPress	AvoidedLoss	True
80.455	0.37	Lose2	1.0	n/a	Yes	4.025	n/a	n/a	GoodResponse	0	n/a	n/a	3	7	Blank	AvoidedLoss	True
80.823	1.45	Lose2	1.0	n/a	Yes	4.025	n/a	5.0	GoodResponse	0	0.03	79.853	3	7	Feedback	AvoidedLoss	True
82.277	4.025	Lose2	1.0	n/a	Yes	4.025	n/a	n/a	GoodResponse	0	0.0	n/a	3	7	ISIslide	AvoidedLoss	True
86.323	0.25	Lose2	1.0	0.0	Yes	3.027	0.023	n/a	GoodResponse	0	n/a	n/a	3	8	Cue	AvoidedLoss	True
86.574	3.95	Lose2	1.0	0.0	Yes	3.027	0.001	n/a	GoodResponse	0	n/a	n/a	3	8	Fixation	AvoidedLoss	True
90.519	0.32	Lose2	1.0	0.004	Yes	3.027	-0.004	1.0	GoodResponse	0	0.213	89.732	3	8	Target	AvoidedLoss	True
90.732	0.3	Lose2	1.0	0.004	Yes	3.027	-0.004	1.0	GoodResponse	0	0.213	n/a	3	8	ButtonPress	AvoidedLoss	True
90.853	0.38	Lose2	1.0	n/a	Yes	3.027	n/a	n/a	GoodResponse	0	n/a	n/a	3	8	Blank	AvoidedLoss	True
91.221	1.45	Lose2	1.0	n/a	Yes	3.027	n/a	5.0	GoodResponse	0	0.022	90.243	3	8	Feedback	AvoidedLoss	True
92.675	3.027	Lose2	1.0	n/a	Yes	3.027	n/a	n/a	GoodResponse	0	0.0	n/a	3	8	ISIslide	AvoidedLoss	True
95.718	0.25	Lose2	1.0	0.0	Yes	3.132	0.018	n/a	GoodResponse	0	n/a	n/a	3	9	Cue	AvoidedLoss	True
95.968	3.95	Lose2	1.0	0.001	Yes	3.132	0.0	n/a	GoodResponse	0	n/a	n/a	3	9	Fixation	AvoidedLoss	True
99.914	0.31	Lose2	1.0	0.004	Yes	3.132	-0.004	1.0	GoodResponse	0	0.179	99.093	3	9	Target	AvoidedLoss	True
100.093	0.3	Lose2	1.0	0.004	Yes	3.132	-0.004	1.0	GoodResponse	0	0.179	n/a	3	9	ButtonPress	AvoidedLoss	True
100.231	0.39	Lose2	1.0	n/a	Yes	3.132	n/a	n/a	GoodResponse	0	n/a	n/a	3	9	Blank	AvoidedLoss	True
100.616	1.45	Lose2	1.0	n/a	Yes	3.132	n/a	5.0	GoodResponse	0	0.041	99.657	3	9	Feedback	AvoidedLoss	True
102.07	3.132	Lose2	1.0	n/a	Yes	3.132	n/a	n/a	GoodResponse	0	0.0	n/a	3	9	ISIslide	AvoidedLoss	True
105.213	0.25	Control	1.0	0.0	Yes	3.287	0.013	n/a	GoodResponse	0	n/a	n/a	3	10	Cue	Neutral	True
105.464	4.0	Control	1.0	0.0	Yes	3.287	0.001	n/a	GoodResponse	0	n/a	n/a	3	10	Fixation	Neutral	True
109.459	0.3	Control	1.0	0.004	Yes	3.287	-0.004	1.0	GoodResponse	0	0.217	108.676	3	10	Target	Neutral	True
109.676	0.3	Control	1.0	0.004	Yes	3.287	-0.004	1.0	GoodResponse	0	0.217	n/a	3	10	ButtonPress	Neutral	True
109.76	0.4	Control	1.0	n/a	Yes	3.287	n/a	n/a	GoodResponse	0	n/a	n/a	3	10	Blank	Neutral	True
110.161	1.45	Control	1.0	n/a	Yes	3.287	n/a	5.0	GoodResponse	0	0.008	109.169	3	10	Feedback	Neutral	True
111.615	3.287	Control	1.0	n/a	Yes	3.287	n/a	n/a	GoodResponse	0	0.0	n/a	3	10	ISIslide	Neutral	True
114.925	0.25	Lose2	1.0	0.0	Yes	2.725	0.025	n/a	GoodResponse	0	n/a	n/a	3	11	Cue	AvoidedLoss	True
115.176	4.05	Lose2	1.0	0.0	Yes	2.725	0.001	n/a	GoodResponse	0	n/a	n/a	3	11	Fixation	AvoidedLoss	True
119.221	0.29	Lose2	1.0	0.004	Yes	2.725	-0.004	1.0	GoodResponse	0	0.222	118.443	3	11	Target	AvoidedLoss	True
119.443	0.3	Lose2	1.0	0.004	Yes	2.725	-0.004	1.0	GoodResponse	0	0.222	n/a	3	11	ButtonPress	AvoidedLoss	True
119.522	0.41	Lose2	1.0	n/a	Yes	2.725	n/a	n/a	GoodResponse	0	n/a	n/a	3	11	Blank	AvoidedLoss	True
119.923	1.45	Lose2	1.0	n/a	Yes	2.725	n/a	5.0	GoodResponse	0	0.005	118.928	3	11	Feedback	AvoidedLoss	True
121.378	2.725	Lose2	1.0	n/a	Yes	2.725	n/a	n/a	GoodResponse	0	0.0	n/a	3	11	ISIslide	AvoidedLoss	True
124.119	0.25	Control	1.0	0.0	Yes	2.981	0.019	n/a	GoodResponse	0	n/a	n/a	3	12	Cue	Neutral	True
124.37	3.9	Control	1.0	0.0	Yes	2.981	0.001	n/a	GoodResponse	0	n/a	n/a	3	12	Fixation	Neutral	True
128.265	0.28	Control	1.0	0.004	Yes	2.981	-0.004	1.0	GoodResponse	0	0.21	127.475	3	12	Target	Neutral	True
128.475	0.3	Control	1.0	0.004	Yes	2.981	-0.004	1.0	GoodResponse	0	0.21	n/a	3	12	ButtonPress	Neutral	True
128.549	0.42	Control	1.0	n/a	Yes	2.981	n/a	n/a	GoodResponse	0	n/a	n/a	3	12	Blank	Neutral	True
128.967	1.45	Control	1.0	n/a	Yes	2.981	n/a	5.0	GoodResponse	0	0.032	127.999	3	12	Feedback	Neutral	True
130.422	2.981	Control	1.0	n/a	Yes	2.981	n/a	n/a	GoodResponse	0	0.0	n/a	3	12	ISIslide	Neutral	True
133.414	0.25	Control	1.0	0.0	Yes	2.786	0.014	n/a	GoodResponse	0	n/a	n/a	3	13	Cue	Neutral	True
133.665	4.0	Control	1.0	0.0	Yes	2.786	0.001	n/a	GoodResponse	0	n/a	n/a	3	13	Fixation	Neutral	True
137.66	0.27	Control	1.0	0.004	Yes	2.786	-0.004	1.0	GoodResponse	0	0.177	136.837	3	13	Target	Neutral	True
137.837	0.3	Control	1.0	0.004	Yes	2.786	-0.004	1.0	GoodResponse	0	0.177	n/a	3	13	ButtonPress	Neutral	True
137.944	0.43	Control	1.0	n/a	Yes	2.786	n/a	n/a	GoodResponse	0	n/a	n/a	3	13	Blank	Neutral	True
138.362	1.45	Control	1.0	n/a	Yes	2.786	n/a	5.0	GoodResponse	0	0.005	137.367	3	13	Feedback	Neutral	True
139.816	2.786	Control	1.0	n/a	Yes	2.786	n/a	n/a	GoodResponse	0	0.0	n/a	3	13	ISIslide	Neutral	True
142.625	0.25	Win2	1.0	0.0	Yes	2.675	0.025	n/a	GoodResponse	1	n/a	n/a	4	14	Cue	Win	True
142.876	4.1	Win2	1.0	0.0	Yes	2.675	0.001	n/a	GoodResponse	1	n/a	n/a	4	14	Fixation	Win	True
146.971	0.26	Win2	1.0	0.004	Yes	2.675	-0.004	1.0	GoodResponse	1	0.152	146.123	4	14	Target	Win	True
147.123	0.3	Win2	1.0	0.004	Yes	2.675	-0.004	1.0	GoodResponse	1	0.152	n/a	4	14	ButtonPress	Win	True
147.239	0.44	Win2	1.0	n/a	Yes	2.675	n/a	n/a	GoodResponse	1	n/a	n/a	4	14	Blank	Win	True
147.673	1.45	Win2	1.0	n/a	Yes	2.675	n/a	5.0	GoodResponse	1	0.008	146.681	4	14	Feedback	Win	True
149.128	2.675	Win2	1.0	n/a	Yes	2.675	n/a	n/a	GoodResponse	1	0.0	n/a	4	14	ISIslide	Win	True
151.819	0.25	Control	0.9375	0.0	No	2.981	0.019	n/a	LatePress	0	n/a	n/a	4	15	Cue	Neutral	True
152.07	4.0	Control	0.9375	0.0	No	2.981	0.001	n/a	LatePress	0	n/a	n/a	4	15	Fixation	Neutral	True
156.065	0.25	Control	0.9375	0.004	No	2.981	-0.004	1.0	LatePress	0	0.253	155.318	4	15	Target	Neutral	True
156.316	0.45	Control	0.9375	n/a	No	2.981	n/a	n/a	LatePress	0	n/a	n/a	4	15	Blank	Neutral	True
156.318	0.3	Control	0.9375	0.004	No	2.981	-0.004	1.0	LatePress	0	0.253	n/a	4	15	ButtonPress	Neutral	True
156.767	1.45	Control	0.9375	n/a	No	2.981	n/a	5.0	LatePress	0	0.036	155.803	4	15	Feedback	Neutral	True
158.221	2.981	Control	0.9375	n/a	No	2.981	n/a	n/a	LatePress	0	0.0	n/a	4	15	ISIslide	Neutral	True
161.214	0.25	Win2	0.9412	0.0	Yes	2.886	0.014	n/a	GoodResponse	1	n/a	n/a	5	16	Cue	Win	True
161.465	4.0	Win2	0.9412	0.0	Yes	2.886	0.001	n/a	GoodResponse	1	n/a	n/a	5	16	Fixation	Win	True
165.46	0.24	Win2	0.9412	0.004	Yes	2.886	-0.004	1.0	GoodResponse	1	0.194	164.654	5	16	Target	Win	True
165.654	0.3	Win2	0.9412	0.004	Yes	2.886	-0.004	1.0	GoodResponse	1	0.194	n/a	5	16	ButtonPress	Win	True
165.711	0.46	Win2	0.9412	n/a	Yes	2.886	n/a	n/a	GoodResponse	1	n/a	n/a	5	16	Blank	Win	True
166.162	1.45	Win2	0.9412	n/a	Yes	2.886	n/a	5.0	GoodResponse	1	0.007	165.169	5	16	Feedback	Win	True
167.616	2.886	Win2	0.9412	n/a	Yes	2.886	n/a	n/a	GoodResponse	1	0.0	n/a	5	16	ISIslide	Win	True
170.525	0.25	Lose2	0.9444	0.0	Yes	2.725	0.025	n/a	GoodResponse	0	n/a	n/a	5	17	Cue	AvoidedLoss	True
170.776	3.95	Lose2	0.9444	0.0	Yes	2.725	0.001	n/a	GoodResponse	0	n/a	n/a	5	17	Fixation	AvoidedLoss	True
174.721	0.23	Lose2	0.9444	0.004	Yes	2.725	-0.004	1.0	GoodResponse	0	0.214	173.935	5	17	Target	AvoidedLoss	True
174.935	0.3	Lose2	0.9444	0.004	Yes	2.725	-0.004	1.0	GoodResponse	0	0.214	n/a	5	17	ButtonPress	AvoidedLoss	True
174.955	0.47	Lose2	0.9444	n/a	Yes	2.725	n/a	n/a	GoodResponse	0	n/a	n/a	5	17	Blank	AvoidedLoss	True
175.423	1.45	Lose2	0.9444	n/a	Yes	2.725	n/a	5.0	GoodResponse	0	0.014	174.437	5	17	Feedback	AvoidedLoss	True
176.877	2.725	Lose2	0.9444	n/a	Yes	2.725	n/a	n/a	GoodResponse	0	0.0	n/a	5	17	ISIslide	AvoidedLoss	True
179.619	0.25	Lose2	0.8946999999999999	0.0	No	2.731	0.019	n/a	NoResponse	-1	n/a	n/a	4	18	Cue	Loss	True
179.87	4.05	Lose2	0.8946999999999999	0.0	No	2.731	0.001	n/a	NoResponse	-1	n/a	n/a	4	18	Fixation	Loss	True
183.915	0.22	Lose2	0.8946999999999999	0.004	No	2.731	-0.004	1.0	NoResponse	-1	0.245	183.16	4	18	Target	Loss	True
184.149	0.48	Lose2	0.8946999999999999	n/a	No	2.731	n/a	n/a	NoResponse	-1	n/a	n/a	4	18	Blank	Loss	True
184.16	0.3	Lose2	0.8946999999999999	0.004	No	2.731	-0.004	1.0	NoResponse	-1	0.245	n/a	4	18	ButtonPress	Loss	True
184.617	1.45	Lose2	0.8946999999999999	n/a	No	2.731	n/a	5.0	NoResponse	-1	0.04	183.657	4	18	Feedback	Loss	True
186.071	2.731	Lose2	0.8946999999999999	n/a	No	2.731	n/a	n/a	NoResponse	-1	0.0	n/a	4	18	ISIslide	Loss	True
188.813	0.25	Control	0.85	0.0	No	2.937	0.013	n/a	NoResponse	0	n/a	n/a	4	19	Cue	Neutral	True
189.064	3.95	Control	0.85	0.0	No	2.937	0.001	n/a	NoResponse	0	n/a	n/a	4	19	Fixation	Neutral	True
193.009	0.21	Control	0.85	0.004	No	2.937	-0.004	1.0	NoResponse	0	0.289	192.298	4	19	Target	Neutral	True
193.226	0.49	Control	0.85	n/a	No	2.937	n/a	n/a	NoResponse	0	n/a	n/a	4	19	Blank	Neutral	True
193.298	0.3	Control	0.85	0.004	No	2.937	-0.004	1.0	NoResponse	0	0.289	n/a	4	19	ButtonPress	Neutral	True
193.711	1.45	Control	0.85	n/a	No	2.937	n/a	5.0	NoResponse	0	0.019	192.73	4	19	Feedback	Neutral	True
195.165	2.937	Control	0.85	n/a	No	2.937	n/a	n/a	NoResponse	0	0.0	n/a	4	19	ISIslide	Neutral	True
198.124	0.25	Control	0.8095	0.0	No	2.626	0.024	n/a	NoResponse	0	n/a	n/a	4	20	Cue	Neutral	True
198.375	4.05	Control	0.8095	0.0	No	2.626	0.001	n/a	NoResponse	0	n/a	n/a	4	20	Fixation	Neutral	True
202.42	0.2	Control	0.8095	0.004	No	2.626	-0.004	1.0	NoResponse	0	0.222	201.642	4	20	Target	Neutral	True
202.621	0.5	Control	0.8095	n/a	No	2.626	n/a	n/a	NoResponse	0	n/a	n/a	4	20	Blank	Neutral	True
202.642	0.3	Control	0.8095	0.004	No	2.626	-0.004	1.0	NoResponse	0	0.222	n/a	4	20	ButtonPress	Neutral	True
203.123	1.45	Control	0.8095	n/a	No	2.626	n/a	5.0	NoResponse	0	0.021	202.144	4	20	Feedback	Neutral	True
204.577	2.626	Control	0.8095	n/a	No	2.626	n/a	n/a	NoResponse	0	0.0	n/a	4	20	ISIslide	Neutral	True
207.218	0.25	Control	0.7726999999999999	0.0	No	2.782	0.018	n/a	NoResponse	0	n/a	n/a	4	21	Cue	Neutral	True
207.469	4.1	Control	0.7726999999999999	0.0	No	2.782	0.001	n/a	NoResponse	0	n/a	n/a	4	21	Fixation	Neutral	True
211.564	0.19	Control	0.7726999999999999	0.004	No	2.782	-0.004	1.0	NoResponse	0	0.243	210.807	4	21	Target	Neutral	True
211.765	0.51	Control	0.7726999999999999	n/a	No	2.782	n/a	n/a	NoResponse	0	n/a	n/a	4	21	Blank	Neutral	True
211.807	0.3	Control	0.7726999999999999	0.004	No	2.782	-0.004	1.0	NoResponse	0	0.243	n/a	4	21	ButtonPress	Neutral	True
212.267	1.45	Control	0.7726999999999999	n/a	No	2.782	n/a	5.0	NoResponse	0	0.048	211.315	4	21	Feedback	Neutral	True
213.721	2.782	Control	0.7726999999999999	n/a	No	2.782	n/a	n/a	NoResponse	0	0.0	n/a	4	21	ISIslide	Neutral	True
216.513	0.25	Control	0.7391	0.0	No	2.787	0.013	n/a	NoResponse	0	n/a	n/a	4	22	Cue	Neutral	True
216.763	4.0	Control	0.7391	0.0	No	2.787	0.0	n/a	NoResponse	0	n/a	n/a	4	22	Fixation	Neutral	True
220.759	0.18	Control	0.7391	0.004	No	2.787	-0.004	1.0	NoResponse	0	0.301	220.06	4	22	Target	Neutral	True
220.943	0.52	Control	0.7391	n/a	No	2.787	n/a	n/a	NoResponse	0	n/a	n/a	4	22	Blank	Neutral	True
221.06	0.3	Control	0.7391	0.004	No	2.787	-0.004	1.0	NoResponse	0	0.301	n/a	4	22	ButtonPress	Neutral	True
221.461	1.45	Control	0.7391	n/a	No	2.787	n/a	5.0	NoResponse	0	0.025	220.486	4	22	Feedback	Neutral	True
222.915	2.787	Control	0.7391	n/a	No	2.787	n/a	n/a	NoResponse	0	0.0	n/a	4	22	ISIslide	Neutral	True
225.724	0.25	Control	0.7082999999999999	0.0	No	2.776	0.024	n/a	NoResponse	0	n/a	n/a	4	23	Cue	Neutral	True
225.974	3.9	Control	0.7082999999999999	0.0	No	2.776	0.0	n/a	NoResponse	0	n/a	n/a	4	23	Fixation	Neutral	True
229.886	0.17	Control	0.7082999999999999	0.0	No	2.776	0.012	1.0	NoResponse	0	0.315	229.201	4	23	Target	Neutral	True
230.053	0.53	Control	0.7082999999999999	n/a	No	2.776	n/a	n/a	NoResponse	0	n/a	n/a	4	23	Blank	Neutral	True
230.201	0.3	Control	0.7082999999999999	0.0	No	2.776	0.012	1.0	NoResponse	0	0.315	n/a	4	23	ButtonPress	Neutral	True
230.571	1.45	Control	0.7082999999999999	n/a	No	2.776	n/a	5.0	NoResponse	0	0.037	229.608	4	23	Feedback	Neutral	True
232.026	2.776	Control	0.7082999999999999	n/a	No	2.776	n/a	n/a	NoResponse	0	0.0	n/a	4	23	ISIslide	Neutral	True
234.817	0.25	Win2	0.68	0.0	No	3.133	0.017	n/a	NoResponse	0	n/a	n/a	4	24	Cue	MissedWin	True
235.068	3.95	Win2	0.68	0.0	No	3.133	0.001	n/a	NoResponse	0	n/a	n/a	4	24	Fixation	MissedWin	True
239.013	0.16	Win2	0.68	0.004	No	3.133	-0.004	1.0	NoResponse	0	0.178	238.191	4	24	Target	MissedWin	True
239.18	0.54	Win2	0.68	n/a	No	3.133	n/a	n/a	NoResponse	0	n/a	n/a	4	24	Blank	MissedWin	True
239.191	0.3	Win2	0.68	0.004	No	3.133	-0.004	1.0	NoResponse	0	0.178	n/a	4	24	ButtonPress	MissedWin	True
239.715	1.45	Win2	0.68	n/a	No	3.133	n/a	5.0	NoResponse	0	0.015	238.73	4	24	Feedback	MissedWin	True
241.17	3.133	Win2	0.68	n/a	No	3.133	n/a	n/a	NoResponse	0	0.0	n/a	4	24	ISIslide	MissedWin	True
244.329	0.25	Win2	0.6537999999999999	0.0	No	3.071	0.029	n/a	NoResponse	0	n/a	n/a	4	25	Cue	MissedWin	True
244.58	4.0	Win2	0.6537999999999999	0.0	No	3.071	0.001	n/a	NoResponse	0	n/a	n/a	4	25	Fixation	MissedWin	True
248.575	0.15	Win2	0.6537999999999999	0.004	No	3.071	-0.004	1.0	NoResponse	0	0.183	247.758	4	25	Target	MissedWin	True
248.726	0.55	Win2	0.6537999999999999	n/a	No	3.071	n/a	n/a	NoResponse	0	n/a	n/a	4	25	Blank	MissedWin	True
248.758	0.3	Win2	0.6537999999999999	0.004	No	3.071	-0.004	1.0	NoResponse	0	0.183	n/a	4	25	ButtonPress	MissedWin	True
249.277	1.45	Win2	0.6537999999999999	n/a	No	3.071	n/a	5.0	NoResponse	0	0.013	248.29	4	25	Feedback	MissedWin	True
250.732	3.071	Win2	0.6537999999999999	n/a	No	3.071	n/a	n/a	NoResponse	0	0.0	n/a	4	25	ISIslide	MissedWin	True
253.824	0.25	Win2	0.6296	0.0	No	2.926	0.024	n/a	NoResponse	0	n/a	n/a	4	26	Cue	MissedWin	True
254.075	3.95	Win2	0.6296	0.0	No	2.926	0.001	n/a	NoResponse	0	n/a	n/a	4	26	Fixation	MissedWin	True
258.02	0.16	Win2	0.6296	0.004	No	2.926	-0.004	1.0	NoResponse	0	0.204	257.224	4	26	Target	MissedWin	True
258.187	0.54	Win2	0.6296	n/a	No	2.926	n/a	n/a	NoResponse	0	n/a	n/a	4	26	Blank	MissedWin	True
258.224	0.3	Win2	0.6296	0.004	No	2.926	-0.004	1.0	NoResponse	0	0.204	n/a	4	26	ButtonPress	MissedWin	True
258.722	1.45	Win2	0.6296	n/a	No	2.926	n/a	5.0	NoResponse	0	0.031	257.753	4	26	Feedback	MissedWin	True
260.177	2.926	Win2	0.6296	n/a	No	2.926	n/a	n/a	NoResponse	0	0.0	n/a	4	26	ISIslide	MissedWin	True
263.119	0.25	Lose2	0.6071	0.0	No	2.831	0.019	n/a	LatePress	-1	n/a	n/a	3	27	Cue	Loss	True
263.37	4.05	Lose2	0.6071	0.0	No	2.831	0.001	n/a	LatePress	-1	n/a	n/a	3	27	Fixation	Loss	True
267.415	0.17	Lose2	0.6071	0.004	No	2.831	-0.004	1.0	LatePress	-1	0.17	266.585	3	27	Target	Loss	True
267.585	0.3	Lose2	0.6071	0.004	No	2.831	-0.004	1.0	LatePress	-1	0.17	n/a	3	27	ButtonPress	Loss	True
267.599	0.53	Lose2	0.6071	n/a	No	2.831	n/a	n/a	LatePress	-1	n/a	n/a	3	27	Blank	Loss	True
268.117	1.45	Lose2	0.6071	n/a	No	2.831	n/a	5.0	LatePress	-1	0.002	267.119	3	27	Feedback	Loss	True
269.571	2.831	Lose2	0.6071	n/a	No	2.831	n/a	n/a	LatePress	-1	0.0	n/a	3	27	ISIslide	Loss	True
272.413	0.25	Control	0.5861999999999999	0.0	No	2.837	0.013	n/a	NoResponse	0	n/a	n/a	3	28	Cue	Neutral	False
272.664	4.05	Control	0.5861999999999999	0.0	No	2.837	0.001	n/a	NoResponse	0	n/a	n/a	3	28	Fixation	Neutral	False
276.709	0.18	Control	0.5861999999999999	0.004	No	2.837	-0.004	n/a	NoResponse	0	n/a	n/a	3	28	Target	Neutral	False
276.893	0.52	Control	0.5861999999999999	n/a	No	2.837	n/a	n/a	NoResponse	0	n/a	n/a	3	28	Blank	Neutral	False
277.412	1.45	Control	0.5861999999999999	n/a	No	2.837	n/a	5.0	NoResponse	0	0.025	276.437	3	28	Feedback	Neutral	False
278.866	2.837	Control	0.5861999999999999	n/a	No	2.837	n/a	n/a	NoResponse	0	0.0	n/a	3	28	ISIslide	Neutral	False
281.724	0.25	Lose2	0.5667	0.001	No	2.826	0.024	n/a	PrematurePress	-1	n/a	n/a	2	29	Cue	Loss	True
281.975	3.95	Lose2	0.5667	0.0	No	2.826	0.001	n/a	PrematurePress	-1	n/a	n/a	2	29	Fixation	Loss	True
285.92	0.19	Lose2	0.5667	0.004	No	2.826	-0.004	1.0	PrematurePress	-1	0.044	284.964	2	29	Target	Loss	True
285.964	0.3	Lose2	0.5667	0.004	No	2.826	-0.004	1.0	PrematurePress	-1	0.044	n/a	2	29	ButtonPress	Loss	True
286.121	0.51	Lose2	0.5667	n/a	No	2.826	n/a	n/a	PrematurePress	-1	n/a	n/a	2	29	Blank	Loss	True
286.622	1.45	Lose2	0.5667	n/a	No	2.826	n/a	5.0	PrematurePress	-1	0.034	285.656	2	29	Feedback	Loss	True
288.077	2.826	Lose2	0.5667	n/a	No	2.826	n/a	n/a	PrematurePress	-1	0.0	n/a	2	29	ISIslide	Loss	True
290.919	0.25	Win2	0.5484	0.0	No	2.781	0.019	n/a	NoResponse	0	n/a	n/a	2	30	Cue	MissedWin	True
291.169	3.9	Win2	0.5484	0.001	No	2.781	0.0	n/a	NoResponse	0	n/a	n/a	2	30	Fixation	MissedWin	True
295.081	0.2	Win2	0.5484	0.0	No	2.781	0.012	1.0	NoResponse	0	0.204	294.285	2	30	Target	MissedWin	True
295.265	0.5	Win2	0.5484	n/a	No	2.781	n/a	n/a	NoResponse	0	n/a	n/a	2	30	Blank	MissedWin	True
295.285	0.3	Win2	0.5484	0.0	No	2.781	0.012	1.0	NoResponse	0	0.204	n/a	2	30	ButtonPress	MissedWin	True
295.767	1.45	Win2	0.5484	n/a	No	2.781	n/a	5.0	NoResponse	0	0.011	294.778	2	30	Feedback	MissedWin	True
297.221	2.781	Win2	0.5484	n/a	No	2.781	n/a	n/a	NoResponse	0	0.0	n/a	2	30	ISIslide	MissedWin	True
300.029	0.25	Lose2	0.5625	0.0	Yes	2.821	0.029	n/a	GoodResponse	0	n/a	n/a	2	31	Cue	AvoidedLoss	True
300.28	4.05	Lose2	0.5625	0.0	Yes	2.821	0.001	n/a	GoodResponse	0	n/a	n/a	2	31	Fixation	AvoidedLoss	True
304.325	0.21	Lose2	0.5625	0.004	Yes	2.821	-0.004	1.0	GoodResponse	0	0.176	303.501	2	31	Target	AvoidedLoss	True
304.501	0.3	Lose2	0.5625	0.004	Yes	2.821	-0.004	1.0	GoodResponse	0	0.176	n/a	2	31	ButtonPress	AvoidedLoss	True
304.543	0.49	Lose2	0.5625	n/a	Yes	2.821	n/a	n/a	GoodResponse	0	n/a	n/a	2	31	Blank	AvoidedLoss	True
305.028	1.45	Lose2	0.5625	n/a	Yes	2.821	n/a	5.0	GoodResponse	0	0.018	304.046	2	31	Feedback	AvoidedLoss	True
306.482	2.821	Lose2	0.5625	n/a	Yes	2.821	n/a	n/a	GoodResponse	0	0.0	n/a	2	31	ISIslide	AvoidedLoss	True
309.324	0.25	Lose2	0.5758	0.0	Yes	2.626	0.024	n/a	GoodResponse	0	n/a	n/a	2	32	Cue	AvoidedLoss	True
309.575	4.15	Lose2	0.5758	0.0	Yes	2.626	0.001	n/a	GoodResponse	0	n/a	n/a	2	32	Fixation	AvoidedLoss	True
313.72	0.22	Lose2	0.5758	0.004	Yes	2.626	-0.004	1.0	GoodResponse	0	0.196	312.916	2	32	Target	AvoidedLoss	True
313.916	0.3	Lose2	0.5758	0.004	Yes	2.626	-0.004	1.0	GoodResponse	0	0.196	n/a	2	32	ButtonPress	AvoidedLoss	True
313.954	0.48	Lose2	0.5758	n/a	Yes	2.626	n/a	n/a	GoodResponse	0	n/a	n/a	2	32	Blank	AvoidedLoss	True
314.422	1.45	Lose2	0.5758	n/a	Yes	2.626	n/a	5.0	GoodResponse	0	0.038	313.46	2	32	Feedback	AvoidedLoss	True
315.877	2.626	Lose2	0.5758	n/a	Yes	2.626	n/a	n/a	GoodResponse	0	0.0	n/a	2	32	ISIslide	AvoidedLoss	True
318.518	0.25	Win2	0.5882000000000001	0.0	Yes	2.682	0.018	n/a	GoodResponse	1	n/a	n/a	3	33	Cue	Win	True
318.769	4.0	Win2	0.5882000000000001	0.0	Yes	2.682	0.001	n/a	GoodResponse	1	n/a	n/a	3	33	Fixation	Win	True
322.764	0.23	Win2	0.5882000000000001	0.004	Yes	2.682	-0.004	1.0	GoodResponse	1	0.182	321.946	3	33	Target	Win	True
322.946	0.3	Win2	0.5882000000000001	0.004	Yes	2.682	-0.004	1.0	GoodResponse	1	0.182	n/a	3	33	ButtonPress	Win	True
322.998	0.47	Win2	0.5882000000000001	n/a	Yes	2.682	n/a	n/a	GoodResponse	1	n/a	n/a	3	33	Blank	Win	True
323.466	1.45	Win2	0.5882000000000001	n/a	Yes	2.682	n/a	5.0	GoodResponse	1	0.019	322.485	3	33	Feedback	Win	True
324.92	2.682	Win2	0.5882000000000001	n/a	Yes	2.682	n/a	n/a	GoodResponse	1	0.0	n/a	3	33	ISIslide	Win	True
327.629	0.25	Lose2	0.6	0.0	Yes	2.621	0.029	n/a	GoodResponse	0	n/a	n/a	3	34	Cue	AvoidedLoss	True
327.879	4.05	Lose2	0.6	0.0	Yes	2.621	0.0	n/a	GoodResponse	0	n/a	n/a	3	34	Fixation	AvoidedLoss	True
331.925	0.24	Lose2	0.6	0.004	Yes	2.621	-0.004	1.0	GoodResponse	0	0.182	331.107	3	34	Target	AvoidedLoss	True
332.107	0.3	Lose2	0.6	0.004	Yes	2.621	-0.004	1.0	GoodResponse	0	0.182	n/a	3	34	ButtonPress	AvoidedLoss	True
332.175	0.46	Lose2	0.6	n/a	Yes	2.621	n/a	n/a	GoodResponse	0	n/a	n/a	3	34	Blank	AvoidedLoss	True
332.627	1.45	Lose2	0.6	n/a	Yes	2.621	n/a	5.0	GoodResponse	0	0.029	331.656	3	34	Feedback	AvoidedLoss	True
334.081	2.621	Lose2	0.6	n/a	Yes	2.621	n/a	n/a	GoodResponse	0	0.0	n/a	3	34	ISIslide	AvoidedLoss	True
336.722	0.25	Lose2	0.6111	0.001	Yes	2.678	0.022	n/a	GoodResponse	0	n/a	n/a	3	35	Cue	AvoidedLoss	True
336.973	4.0	Lose2	0.6111	0.0	Yes	2.678	0.001	n/a	GoodResponse	0	n/a	n/a	3	35	Fixation	AvoidedLoss	True
340.968	0.25	Lose2	0.6111	0.004	Yes	2.678	-0.004	1.0	GoodResponse	0	0.192	340.16	3	35	Target	AvoidedLoss	True
341.16	0.3	Lose2	0.6111	0.004	Yes	2.678	-0.004	1.0	GoodResponse	0	0.192	n/a	3	35	ButtonPress	AvoidedLoss	True
341.219	0.45	Lose2	0.6111	n/a	Yes	2.678	n/a	n/a	GoodResponse	0	n/a	n/a	3	35	Blank	AvoidedLoss	True
341.671	1.45	Lose2	0.6111	n/a	Yes	2.678	n/a	5.0	GoodResponse	0	0.009	340.68	3	35	Feedback	AvoidedLoss	True
343.125	2.678	Lose2	0.6111	n/a	Yes	2.678	n/a	n/a	GoodResponse	0	0.0	n/a	3	35	ISIslide	AvoidedLoss	True
345.816	0.25	Control	0.6215999999999999	0.0	Yes	2.684	0.016	n/a	GoodResponse	0	n/a	n/a	3	36	Cue	Neutral	True
346.067	4.0	Control	0.6215999999999999	0.0	Yes	2.684	0.001	n/a	GoodResponse	0	n/a	n/a	3	36	Fixation	Neutral	True
350.062	0.26	Control	0.6215999999999999	0.004	Yes	2.684	-0.004	1.0	GoodResponse	0	0.146	349.208	3	36	Target	Neutral	True
350.208	0.3	Control	0.6215999999999999	0.004	Yes	2.684	-0.004	1.0	GoodResponse	0	0.146	n/a	3	36	ButtonPress	Neutral	True
350.33	0.44	Control	0.6215999999999999	n/a	Yes	2.684	n/a	n/a	GoodResponse	0	n/a	n/a	3	36	Blank	Neutral	True
350.764	1.45	Control	0.6215999999999999	n/a	Yes	2.684	n/a	5.0	GoodResponse	0	0.037	349.801	3	36	Feedback	Neutral	True
352.219	2.684	Control	0.6215999999999999	n/a	Yes	2.684	n/a	n/a	GoodResponse	0	0.0	n/a	3	36	ISIslide	Neutral	True
354.927	0.25	Win2	0.6315999999999999	0.0	Yes	2.873	0.027	n/a	GoodResponse	1	n/a	n/a	4	37	Cue	Win	True
355.178	4.0	Win2	0.6315999999999999	0.0	Yes	2.873	0.001	n/a	GoodResponse	1	n/a	n/a	4	37	Fixation	Win	True
359.173	0.27	Win2	0.6315999999999999	0.004	Yes	2.873	-0.004	1.0	GoodResponse	1	0.233	358.406	4	37	Target	Win	True
359.406	0.3	Win2	0.6315999999999999	0.004	Yes	2.873	-0.004	1.0	GoodResponse	1	0.233	n/a	4	37	ButtonPress	Win	True
359.457	0.43	Win2	0.6315999999999999	n/a	Yes	2.873	n/a	n/a	GoodResponse	1	n/a	n/a	4	37	Blank	Win	True
359.875	1.45	Win2	0.6315999999999999	n/a	Yes	2.873	n/a	5.0	GoodResponse	1	0.0	358.875	4	37	Feedback	Win	True
361.329	2.873	Win2	0.6315999999999999	n/a	Yes	2.873	n/a	n/a	GoodResponse	1	0.0	n/a	4	37	ISIslide	Win	True
364.221	0.25	Lose2	0.6409999999999999	0.001	Yes	2.829	0.021	n/a	GoodResponse	0	n/a	n/a	4	38	Cue	AvoidedLoss	True
364.472	3.95	Lose2	0.6409999999999999	0.0	Yes	2.829	0.001	n/a	GoodResponse	0	n/a	n/a	4	38	Fixation	AvoidedLoss	True
368.417	0.28	Lose2	0.6409999999999999	0.004	Yes	2.829	-0.004	1.0	GoodResponse	0	0.203	367.62	4	38	Target	AvoidedLoss	True
368.62	0.3	Lose2	0.6409999999999999	0.004	Yes	2.829	-0.004	1.0	GoodResponse	0	0.203	n/a	4	38	ButtonPress	AvoidedLoss	True
368.701	0.42	Lose2	0.6409999999999999	n/a	Yes	2.829	n/a	n/a	GoodResponse	0	n/a	n/a	4	38	Blank	AvoidedLoss	True
369.119	1.45	Lose2	0.6409999999999999	n/a	Yes	2.829	n/a	5.0	GoodResponse	0	0.024	368.143	4	38	Feedback	AvoidedLoss	True
370.574	2.829	Lose2	0.6409999999999999	n/a	Yes	2.829	n/a	n/a	GoodResponse	0	0.0	n/a	4	38	ISIslide	AvoidedLoss	True
373.416	0.25	Win2	0.65	0.0	Yes	2.984	0.016	n/a	GoodResponse	1	n/a	n/a	5	39	Cue	Win	True
373.666	4.1	Win2	0.65	0.0	Yes	2.984	0.0	n/a	GoodResponse	1	n/a	n/a	5	39	Fixation	Win	True
377.762	0.29	Win2	0.65	0.004	Yes	2.984	-0.004	1.0	GoodResponse	1	0.152	376.914	5	39	Target	Win	True
377.914	0.3	Win2	0.65	0.004	Yes	2.984	-0.004	1.0	GoodResponse	1	0.152	n/a	5	39	ButtonPress	Win	True
378.063	0.41	Win2	0.65	n/a	Yes	2.984	n/a	n/a	GoodResponse	1	n/a	n/a	5	39	Blank	Win	True
378.464	1.45	Win2	0.65	n/a	Yes	2.984	n/a	5.0	GoodResponse	1	0.045	377.509	5	39	Feedback	Win	True
379.918	2.984	Win2	0.65	n/a	Yes	2.984	n/a	n/a	GoodResponse	1	0.0	n/a	5	39	ISIslide	Win	True
382.927	0.25	Win2	0.6585	0.0	Yes	2.723	0.027	n/a	GoodResponse	1	n/a	n/a	6	40	Cue	Win	True
383.178	3.95	Win2	0.6585	0.0	Yes	2.723	0.001	n/a	GoodResponse	1	n/a	n/a	6	40	Fixation	Win	True
387.123	0.3	Win2	0.6585	0.004	Yes	2.723	-0.004	1.0	GoodResponse	1	0.233	386.356	6	40	Target	Win	True
387.356	0.3	Win2	0.6585	0.004	Yes	2.723	-0.004	1.0	GoodResponse	1	0.233	n/a	6	40	ButtonPress	Win	True
387.424	0.4	Win2	0.6585	n/a	Yes	2.723	n/a	n/a	GoodResponse	1	n/a	n/a	6	40	Blank	Win	True
387.825	1.45	Win2	0.6585	n/a	Yes	2.723	n/a	5.0	GoodResponse	1	0.001	386.826	6	40	Feedback	Win	True
389.28	2.723	Win2	0.6585	n/a	Yes	2.723	n/a	n/a	GoodResponse	1	0.0	n/a	6	40	ISIslide	Win	True
392.021	0.25	Win2	0.6667000000000001	0.0	Yes	2.779	0.021	n/a	GoodResponse	1	n/a	n/a	7	41	Cue	Win	True
392.272	3.9	Win2	0.6667000000000001	0.0	Yes	2.779	0.001	n/a	GoodResponse	1	n/a	n/a	7	41	Fixation	Win	True
396.167	0.3	Win2	0.6667000000000001	0.004	Yes	2.779	-0.004	1.0	GoodResponse	1	0.174	395.341	7	41	Target	Win	True
396.341	0.3	Win2	0.6667000000000001	0.004	Yes	2.779	-0.004	1.0	GoodResponse	1	0.174	n/a	7	41	ButtonPress	Win	True
396.468	0.4	Win2	0.6667000000000001	n/a	Yes	2.779	n/a	n/a	GoodResponse	1	n/a	n/a	7	41	Blank	Win	True
396.869	1.45	Win2	0.6667000000000001	n/a	Yes	2.779	n/a	5.0	GoodResponse	1	0.03	395.899	7	41	Feedback	Win	True
398.323	2.779	Win2	0.6667000000000001	n/a	Yes	2.779	n/a	n/a	GoodResponse	1	0.0	n/a	7	41	ISIslide	Win	True
401.115	0.25	Control	0.6744	0.0	Yes	2.935	0.015	n/a	GoodResponse	0	n/a	n/a	7	42	Cue	Neutral	True
401.366	3.85	Control	0.6744	0.0	Yes	2.935	0.001	n/a	GoodResponse	0	n/a	n/a	7	42	Fixation	Neutral	True
405.211	0.29	Control	0.6744	0.004	Yes	2.935	-0.004	1.0	GoodResponse	0	0.236	404.447	7	42	Target	Neutral	True
405.447	0.3	Control	0.6744	0.004	Yes	2.935	-0.004	1.0	GoodResponse	0	0.236	n/a	7	42	ButtonPress	Neutral	True
405.512	0.41	Control	0.6744	n/a	Yes	2.935	n/a	n/a	GoodResponse	0	n/a	n/a	7	42	Blank	Neutral	True
405.913	1.45	Control	0.6744	n/a	Yes	2.935	n/a	5.0	GoodResponse	0	0.01	404.923	7	42	Feedback	Neutral	True
407.367	2.935	Control	0.6744	n/a	Yes	2.935	n/a	n/a	GoodResponse	0	0.0	n/a	7	42	ISIslide	Neutral	True
410.326	0.25	Win2	0.6818000000000001	0.0	Yes	3.174	0.026	n/a	GoodResponse	1	n/a	n/a	8	43	Cue	Win	True
410.577	4.0	Win2	0.6818000000000001	0.0	Yes	3.174	0.001	n/a	GoodResponse	1	n/a	n/a	8	43	Fixation	Win	True
414.572	0.28	Win2	0.6818000000000001	0.004	Yes	3.174	-0.004	1.0	GoodResponse	1	0.195	413.767	8	43	Target	Win	True
414.767	0.3	Win2	0.6818000000000001	0.004	Yes	3.174	-0.004	1.0	GoodResponse	1	0.195	n/a	8	43	ButtonPress	Win	True
414.856	0.42	Win2	0.6818000000000001	n/a	Yes	3.174	n/a	n/a	GoodResponse	1	n/a	n/a	8	43	Blank	Win	True
415.274	1.45	Win2	0.6818000000000001	n/a	Yes	3.174	n/a	5.0	GoodResponse	1	0.015	414.289	8	43	Feedback	Win	True
416.729	3.174	Win2	0.6818000000000001	n/a	Yes	3.174	n/a	n/a	GoodResponse	1	0.0	n/a	8	43	ISIslide	Win	True
419.921	0.25	Win2	0.6889	0.001	Yes	2.979	0.021	n/a	GoodResponse	1	n/a	n/a	9	44	Cue	Win	True
420.172	4.0	Win2	0.6889	0.0	Yes	2.979	0.001	n/a	GoodResponse	1	n/a	n/a	9	44	Fixation	Win	True
424.168	0.27	Win2	0.6889	0.003	Yes	2.979	-0.003	1.0	GoodResponse	1	0.245	423.413	9	44	Target	Win	True
424.413	0.3	Win2	0.6889	0.003	Yes	2.979	-0.003	1.0	GoodResponse	1	0.245	n/a	9	44	ButtonPress	Win	True
424.452	0.43	Win2	0.6889	n/a	Yes	2.979	n/a	n/a	GoodResponse	1	n/a	n/a	9	44	Blank	Win	True
424.87	1.45	Win2	0.6889	n/a	Yes	2.979	n/a	5.0	GoodResponse	1	0.029	423.899	9	44	Feedback	Win	True
426.324	2.979	Win2	0.6889	n/a	Yes	2.979	n/a	n/a	GoodResponse	1	0.0	n/a	9	44	ISIslide	Win	True
429.316	0.25	Control	0.6957	0.0	Yes	2.884	0.016	n/a	GoodResponse	0	n/a	n/a	9	45	Cue	Neutral	True
429.567	4.1	Control	0.6957	0.0	Yes	2.884	0.001	n/a	GoodResponse	0	n/a	n/a	9	45	Fixation	Neutral	True
433.663	0.26	Control	0.6957	0.003	Yes	2.884	-0.003	1.0	GoodResponse	0	0.185	432.848	9	45	Target	Neutral	True
433.848	0.3	Control	0.6957	0.003	Yes	2.884	-0.003	1.0	GoodResponse	0	0.185	n/a	9	45	ButtonPress	Neutral	True
433.93	0.44	Control	0.6957	n/a	Yes	2.884	n/a	n/a	GoodResponse	0	n/a	n/a	9	45	Blank	Neutral	True
434.365	1.45	Control	0.6957	n/a	Yes	2.884	n/a	5.0	GoodResponse	0	0.046	433.411	9	45	Feedback	Neutral	True
435.819	2.884	Control	0.6957	n/a	Yes	2.884	n/a	n/a	GoodResponse	0	0.0	n/a	9	45	ISIslide	Neutral	True
438.728	0.25	Lose2	0.7021	0.0	Yes	3.372	0.028	n/a	GoodResponse	0	n/a	n/a	9	46	Cue	AvoidedLoss	True
438.979	4.0	Lose2	0.7021	0.0	Yes	3.372	0.001	n/a	GoodResponse	0	n/a	n/a	9	46	Fixation	AvoidedLoss	True
442.974	0.25	Lose2	0.7021	0.004	Yes	3.372	-0.004	1.0	GoodResponse	0	0.185	442.159	9	46	Target	AvoidedLoss	True
443.159	0.3	Lose2	0.7021	0.004	Yes	3.372	-0.004	1.0	GoodResponse	0	0.185	n/a	9	46	ButtonPress	AvoidedLoss	True
443.225	0.45	Lose2	0.7021	n/a	Yes	3.372	n/a	n/a	GoodResponse	0	n/a	n/a	9	46	Blank	AvoidedLoss	True
443.676	1.45	Lose2	0.7021	n/a	Yes	3.372	n/a	5.0	GoodResponse	0	0.008	442.684	9	46	Feedback	AvoidedLoss	True
445.13	3.372	Lose2	0.7021	n/a	Yes	3.372	n/a	n/a	GoodResponse	0	0.0	n/a	9	46	ISIslide	AvoidedLoss	True
448.524	0.25	Lose2	0.7082999999999999	0.0	Yes	2.676	0.024	n/a	GoodResponse	0	n/a	n/a	9	47	Cue	AvoidedLoss	True
448.775	4.0	Lose2	0.7082999999999999	0.0	Yes	2.676	0.001	n/a	GoodResponse	0	n/a	n/a	9	47	Fixation	AvoidedLoss	True
452.77	0.24	Lose2	0.7082999999999999	0.004	Yes	2.676	-0.004	1.0	GoodResponse	0	0.206	451.976	9	47	Target	AvoidedLoss	True
452.976	0.3	Lose2	0.7082999999999999	0.004	Yes	2.676	-0.004	1.0	GoodResponse	0	0.206	n/a	9	47	ButtonPress	AvoidedLoss	True
453.021	0.46	Lose2	0.7082999999999999	n/a	Yes	2.676	n/a	n/a	GoodResponse	0	n/a	n/a	9	47	Blank	AvoidedLoss	True
453.472	1.45	Lose2	0.7082999999999999	n/a	Yes	2.676	n/a	5.0	GoodResponse	0	0.011	452.483	9	47	Feedback	AvoidedLoss	True
454.926	2.676	Lose2	0.7082999999999999	n/a	Yes	2.676	n/a	n/a	GoodResponse	0	0.0	n/a	9	47	ISIslide	AvoidedLoss	True
457.618	0.25	Lose2	0.6939	0.0	No	3.032	0.018	n/a	NoResponse	-1	n/a	n/a	8	48	Cue	Loss	True
457.868	3.95	Lose2	0.6939	0.0	No	3.032	0.0	n/a	NoResponse	-1	n/a	n/a	8	48	Fixation	Loss	True
461.814	0.23	Lose2	0.6939	0.004	No	3.032	-0.004	1.0	NoResponse	-1	0.242	461.056	8	48	Target	Loss	True
462.048	0.47	Lose2	0.6939	n/a	No	3.032	n/a	n/a	NoResponse	-1	n/a	n/a	8	48	Blank	Loss	True
462.056	0.3	Lose2	0.6939	0.004	No	3.032	-0.004	1.0	NoResponse	-1	0.242	n/a	8	48	ButtonPress	Loss	True
462.516	1.45	Lose2	0.6939	n/a	No	3.032	n/a	5.0	NoResponse	-1	0.041	461.557	8	48	Feedback	Loss	True
463.97	3.032	Lose2	0.6939	n/a	No	3.032	n/a	n/a	NoResponse	-1	0.0	n/a	8	48	ISIslide	Loss	True
467.029	0.25	Control	0.7	0.0	Yes	2.871	0.029	n/a	GoodResponse	0	n/a	n/a	8	49	Cue	Neutral	True
467.28	4.0	Control	0.7	0.0	Yes	2.871	0.001	n/a	GoodResponse	0	n/a	n/a	8	49	Fixation	Neutral	True
471.275	0.22	Control	0.7	0.004	Yes	2.871	-0.004	1.0	GoodResponse	0	0.203	470.478	8	49	Target	Neutral	True
471.478	0.3	Control	0.7	0.004	Yes	2.871	-0.004	1.0	GoodResponse	0	0.203	n/a	8	49	ButtonPress	Neutral	True
471.509	0.48	Control	0.7	n/a	Yes	2.871	n/a	n/a	GoodResponse	0	n/a	n/a	8	49	Blank	Neutral	True
471.977	1.45	Control	0.7	n/a	Yes	2.871	n/a	5.0	GoodResponse	0	0.043	471.02	8	49	Feedback	Neutral	True
473.432	2.871	Control	0.7	n/a	Yes	2.871	n/a	n/a	GoodResponse	0	0.0	n/a	8	49	ISIslide	Neutral	True
476.324	0.25	Control	0.6862999999999999	0.0	No	2.776	0.024	n/a	NoResponse	0	n/a	n/a	8	50	Cue	Neutral	True
476.574	4.0	Control	0.6862999999999999	0.0	No	2.776	0.0	n/a	NoResponse	0	n/a	n/a	8	50	Fixation	Neutral	True
480.57	0.21	Control	0.6862999999999999	0.004	No	2.776	-0.004	1.0	NoResponse	0	0.226	479.796	8	50	Target	Neutral	True
480.787	0.49	Control	0.6862999999999999	n/a	No	2.776	n/a	n/a	NoResponse	0	n/a	n/a	8	50	Blank	Neutral	True
480.796	0.3	Control	0.6862999999999999	0.004	No	2.776	-0.004	1.0	NoResponse	0	0.226	n/a	8	50	ButtonPress	Neutral	True
481.272	1.45	Control	0.6862999999999999	n/a	No	2.776	n/a	5.0	NoResponse	0	0.017	480.289	8	50	Feedback	Neutral	True
482.726	2.776	Control	0.6862999999999999	n/a	No	2.776	n/a	n/a	NoResponse	0	0.0	n/a	8	50	ISIslide	Neutral	True
485.518	0.25	Control	0.6731	0.0	No	2.732	0.018	n/a	NoResponse	0	n/a	n/a	8	51	Cue	Neutral	True
485.769	3.95	Control	0.6731	0.0	No	2.732	0.001	1.0	NoResponse	0	3.853	488.622	8	51	Fixation	Neutral	True
489.622	0.3	Control	0.6731	0.0	No	2.732	0.001	1.0	NoResponse	0	3.853	n/a	8	51	ButtonPress	Neutral	True
489.714	0.2	Control	0.6731	0.004	No	2.732	-0.004	n/a	NoResponse	0	n/a	n/a	8	51	Target	Neutral	True
489.914	0.5	Control	0.6731	n/a	No	2.732	n/a	n/a	NoResponse	0	n/a	n/a	8	51	Blank	Neutral	True
490.416	1.45	Control	0.6731	n/a	No	2.732	n/a	5.0	NoResponse	0	0.043	489.459	8	51	Feedback	Neutral	True
491.87	2.732	Control	0.6731	n/a	No	2.732	n/a	n/a	NoResponse	0	0.0	n/a	8	51	ISIslide	Neutral	True
494.628	0.25	Control	0.6604000000000001	0.001	No	2.622	0.028	n/a	NoResponse	0	n/a	n/a	8	52	Cue	Neutral	True
494.879	4.05	Control	0.6604000000000001	0.0	No	2.622	0.001	n/a	NoResponse	0	n/a	n/a	8	52	Fixation	Neutral	True
498.925	0.19	Control	0.6604000000000001	0.003	No	2.622	-0.003	1.0	NoResponse	0	0.267	498.192	8	52	Target	Neutral	True
499.125	0.51	Control	0.6604000000000001	n/a	No	2.622	n/a	n/a	NoResponse	0	n/a	n/a	8	52	Blank	Neutral	True
499.192	0.3	Control	0.6604000000000001	0.003	No	2.622	-0.003	1.0	NoResponse	0	0.267	n/a	8	52	ButtonPress	Neutral	True
499.627	1.45	Control	0.6604000000000001	n/a	No	2.622	n/a	5.0	NoResponse	0	0.007	498.634	8	52	Feedback	Neutral	True
501.081	2.622	Control	0.6604000000000001	n/a	No	2.622	n/a	n/a	NoResponse	0	0.0	n/a	8	52	ISIslide	Neutral	True
503.722	0.25	Win2	0.6667000000000001	0.0	Yes	2.928	0.022	n/a	GoodResponse	1	n/a	n/a	9	53	Cue	Win	True
503.973	4.05	Win2	0.6667000000000001	0.0	Yes	2.928	0.001	n/a	GoodResponse	1	n/a	n/a	9	53	Fixation	Win	True
508.019	0.19	Win2	0.6667000000000001	0.003	Yes	2.928	-0.003	1.0	GoodResponse	1	0.185	507.204	9	53	Target	Win	True
508.204	0.3	Win2	0.6667000000000001	0.003	Yes	2.928	-0.003	1.0	GoodResponse	1	0.185	n/a	9	53	ButtonPress	Win	True
508.219	0.51	Win2	0.6667000000000001	n/a	Yes	2.928	n/a	n/a	GoodResponse	1	n/a	n/a	9	53	Blank	Win	True
508.721	1.45	Win2	0.6667000000000001	n/a	Yes	2.928	n/a	5.0	GoodResponse	1	0.03	507.751	9	53	Feedback	Win	True
510.175	2.928	Win2	0.6667000000000001	n/a	Yes	2.928	n/a	n/a	GoodResponse	1	0.0	n/a	9	53	ISIslide	Win	True
513.117	0.25	Win2	0.6727	0.0	Yes	2.733	0.017	n/a	GoodResponse	1	n/a	n/a	10	54	Cue	Win	True
513.368	3.95	Win2	0.6727	0.0	Yes	2.733	0.001	n/a	GoodResponse	1	n/a	n/a	10	54	Fixation	Win	True
517.313	0.18	Win2	0.6727	0.004	Yes	2.733	-0.004	1.0	GoodResponse	1	0.179	516.492	10	54	Target	Win	True
517.492	0.3	Win2	0.6727	0.004	Yes	2.733	-0.004	1.0	GoodResponse	1	0.179	n/a	10	54	ButtonPress	Win	True
517.497	0.52	Win2	0.6727	n/a	Yes	2.733	n/a	n/a	GoodResponse	1	n/a	n/a	10	54	Blank	Win	True
518.015	1.45	Win2	0.6727	n/a	Yes	2.733	n/a	5.0	GoodResponse	1	0.007	517.022	10	54	Feedback	Win	True
519.469	2.733	Win2	0.6727	n/a	Yes	2.733	n/a	n/a	GoodResponse	1	0.0	n/a	10	54	ISIslide	Win	True
522.228	0.25	Control	0.6607	0.0	No	3.022	0.028	n/a	NoResponse	0	n/a	n/a	10	55	Cue	Neutral	True
522.478	3.95	Control	0.6607	0.001	No	3.022	0.0	n/a	NoResponse	0	n/a	n/a	10	55	Fixation	Neutral	True
526.424	0.17	Control	0.6607	0.004	No	3.022	-0.004	1.0	NoResponse	0	0.249	525.673	10	55	Target	Neutral	True
526.607	0.53	Control	0.6607	n/a	No	3.022	n/a	n/a	NoResponse	0	n/a	n/a	10	55	Blank	Neutral	True
526.673	0.3	Control	0.6607	0.004	No	3.022	-0.004	1.0	NoResponse	0	0.249	n/a	10	55	ButtonPress	Neutral	True
527.126	1.45	Control	0.6607	n/a	No	3.022	n/a	5.0	NoResponse	0	0.016	526.142	10	55	Feedback	Neutral	True
528.58	3.022	Control	0.6607	n/a	No	3.022	n/a	n/a	NoResponse	0	0.0	n/a	10	55	ISIslide	Neutral	True
531.622	0.25	Control	0.6491	0.001	No	2.828	0.022	n/a	NoResponse	0	n/a	n/a	10	56	Cue	Neutral	True
531.873	3.95	Control	0.6491	0.0	No	2.828	0.001	n/a	NoResponse	0	n/a	n/a	10	56	Fixation	Neutral	True
535.818	0.17	Control	0.6491	0.004	No	2.828	-0.004	1.0	NoResponse	0	0.244	535.062	10	56	Target	Neutral	True
536.002	0.53	Control	0.6491	n/a	No	2.828	n/a	n/a	NoResponse	0	n/a	n/a	10	56	Blank	Neutral	True
536.062	0.3	Control	0.6491	0.004	No	2.828	-0.004	1.0	NoResponse	0	0.244	n/a	10	56	ButtonPress	Neutral	True
536.52	1.45	Control	0.6491	n/a	No	2.828	n/a	5.0	NoResponse	0	0.036	535.556	10	56	Feedback	Neutral	True
537.975	2.828	Control	0.6491	n/a	No	2.828	n/a	n/a	NoResponse	0	0.0	n/a	10	56	ISIslide	Neutral	True
540.817	0.25	Control	0.6379	0.0	No	3.483	0.017	n/a	NoResponse	0	n/a	n/a	10	57	Cue	Neutral	False
541.067	4.0	Control	0.6379	0.001	No	3.483	0.0	n/a	NoResponse	0	n/a	n/a	10	57	Fixation	Neutral	False
545.063	0.18	Control	0.6379	0.004	No	3.483	-0.004	n/a	NoResponse	0	n/a	n/a	10	57	Target	Neutral	False
545.247	0.52	Control	0.6379	n/a	No	3.483	n/a	n/a	NoResponse	0	n/a	n/a	10	57	Blank	Neutral	False
545.765	1.45	Control	0.6379	n/a	No	3.483	n/a	5.0	NoResponse	0	0.011	544.776	10	57	Feedback	Neutral	False
547.219	3.483	Control	0.6379	n/a	No	3.483	n/a	n/a	NoResponse	0	0.0	n/a	10	57	ISIslide	Neutral	False
550.73	0.25	Win2	0.6441	0.0	Yes	2.72	0.03	n/a	GoodResponse	1	n/a	n/a	11	58	Cue	Win	True
550.98	4.05	Win2	0.6441	0.001	Yes	2.72	0.0	n/a	GoodResponse	1	n/a	n/a	11	58	Fixation	Win	True
555.026	0.19	Win2	0.6441	0.004	Yes	2.72	-0.004	1.0	GoodResponse	1	0.172	554.198	11	58	Target	Win	True
555.198	0.3	Win2	0.6441	0.004	Yes	2.72	-0.004	1.0	GoodResponse	1	0.172	n/a	11	58	ButtonPress	Win	True
555.226	0.51	Win2	0.6441	n/a	Yes	2.72	n/a	n/a	GoodResponse	1	n/a	n/a	11	58	Blank	Win	True
555.728	1.45	Win2	0.6441	n/a	Yes	2.72	n/a	5.0	GoodResponse	1	0.047	554.775	11	58	Feedback	Win	True
557.182	2.72	Win2	0.6441	n/a	Yes	2.72	n/a	n/a	GoodResponse	1	0.0	n/a	11	58	ISIslide	Win	True
559.924	0.25	Lose2	0.65	0.0	Yes	2.676	0.024	n/a	GoodResponse	0	n/a	n/a	11	59	Cue	AvoidedLoss	True
560.175	4.0	Lose2	0.65	0.0	Yes	2.676	0.001	n/a	GoodResponse	0	n/a	n/a	11	59	Fixation	AvoidedLoss	True
564.17	0.2	Lose2	0.65	0.004	Yes	2.676	-0.004	1.0	GoodResponse	0	0.193	563.363	11	59	Target	AvoidedLoss	True
564.363	0.3	Lose2	0.65	0.004	Yes	2.676	-0.004	1.0	GoodResponse	0	0.193	n/a	11	59	ButtonPress	AvoidedLoss	True
564.371	0.5	Lose2	0.65	n/a	Yes	2.676	n/a	n/a	GoodResponse	0	n/a	n/a	11	59	Blank	AvoidedLoss	True
564.872	1.45	Lose2	0.65	n/a	Yes	2.676	n/a	5.0	GoodResponse	0	0.025	563.897	11	59	Feedback	AvoidedLoss	True
566.326	2.676	Lose2	0.65	n/a	Yes	2.676	n/a	n/a	GoodResponse	0	0.0	n/a	11	59	ISIslide	AvoidedLoss	True
569.018	0.25	Control	0.6393	0.0	No	2.682	0.018	n/a	NoResponse	0	n/a	n/a	11	60	Cue	Neutral	False
569.269	4.0	Control	0.6393	0.0	No	2.682	0.001	1.0	NoResponse	0	3.82	572.089	11	60	Fixation	Neutral	False
573.089	0.3	Control	0.6393	0.0	No	2.682	0.001	1.0	NoResponse	0	3.82	n/a	11	60	ButtonPress	Neutral	False
573.264	0.21	Control	0.6393	0.004	No	2.682	-0.004	1.0	NoResponse	0	0.306	572.57	11	60	Target	Neutral	False
573.481	0.49	Control	0.6393	n/a	No	2.682	n/a	n/a	NoResponse	0	n/a	n/a	11	60	Blank	Neutral	False
573.57	0.3	Control	0.6393	0.004	No	2.682	-0.004	1.0	NoResponse	0	0.306	n/a	11	60	ButtonPress	Neutral	False
573.966	1.45	Control	0.6393	n/a	No	2.682	n/a	5.0	NoResponse	0	0.008	572.974	11	60	Feedback	Neutral	False
575.42	2.682	Control	0.6393	n/a	No	2.682	n/a	n/a	NoResponse	0	0.0	n/a	11	60	ISIslide	Neutral	False
578.128	0.25	Lose2	0.6452	0.0	Yes	2.972	0.028	n/a	GoodResponse	0	n/a	n/a	11	61	Cue	AvoidedLoss	True
578.379	4.0	Lose2	0.6452	0.0	Yes	2.972	0.001	n/a	GoodResponse	0	n/a	n/a	11	61	Fixation	AvoidedLoss	True
582.374	0.22	Lose2	0.6452	0.004	Yes	2.972	-0.004	1.0	GoodResponse	0	0.166	581.54	11	61	Target	AvoidedLoss	True
582.54	0.3	Lose2	0.6452	0.004	Yes	2.972	-0.004	1.0	GoodResponse	0	0.166	n/a	11	61	ButtonPress	AvoidedLoss	True
582.608	0.48	Lose2	0.6452	n/a	Yes	2.972	n/a	n/a	GoodResponse	0	n/a	n/a	11	61	Blank	AvoidedLoss	True
583.077	1.45	Lose2	0.6452	n/a	Yes	2.972	n/a	5.0	GoodResponse	0	0.016	582.093	11	61	Feedback	AvoidedLoss	True
584.531	2.972	Lose2	0.6452	n/a	Yes	2.972	n/a	n/a	GoodResponse	0	0.0	n/a	11	61	ISIslide	AvoidedLoss	True
587.523	0.25	Lose2	0.6507999999999999	0.0	Yes	2.877	0.023	n/a	GoodResponse	0	n/a	n/a	11	62	Cue	AvoidedLoss	True
587.774	3.9	Lose2	0.6507999999999999	0.0	Yes	2.877	0.001	n/a	GoodResponse	0	n/a	n/a	11	62	Fixation	AvoidedLoss	True
591.669	0.23	Lose2	0.6507999999999999	0.004	Yes	2.877	-0.004	1.0	GoodResponse	0	0.201	590.87	11	62	Target	AvoidedLoss	True
591.87	0.3	Lose2	0.6507999999999999	0.004	Yes	2.877	-0.004	1.0	GoodResponse	0	0.201	n/a	11	62	ButtonPress	AvoidedLoss	True
591.903	0.47	Lose2	0.6507999999999999	n/a	Yes	2.877	n/a	n/a	GoodResponse	0	n/a	n/a	11	62	Blank	AvoidedLoss	True
592.371	1.45	Lose2	0.6507999999999999	n/a	Yes	2.877	n/a	5.0	GoodResponse	0	0.039	591.41	11	62	Feedback	AvoidedLoss	True
593.825	2.877	Lose2	0.6507999999999999	n/a	Yes	2.877	n/a	n/a	GoodResponse	0	0.0	n/a	11	62	ISIslide	AvoidedLoss	True
596.717	0.25	Lose2	0.6562	0.0	Yes	2.633	0.017	n/a	GoodResponse	0	n/a	n/a	11	63	Cue	AvoidedLoss	True
596.968	4.05	Lose2	0.6562	0.0	Yes	2.633	0.001	n/a	GoodResponse	0	n/a	n/a	11	63	Fixation	AvoidedLoss	True
601.014	0.24	Lose2	0.6562	0.003	Yes	2.633	-0.003	1.0	GoodResponse	0	0.168	600.182	11	63	Target	AvoidedLoss	True
601.182	0.3	Lose2	0.6562	0.003	Yes	2.633	-0.003	1.0	GoodResponse	0	0.168	n/a	11	63	ButtonPress	AvoidedLoss	True
601.264	0.46	Lose2	0.6562	n/a	Yes	2.633	n/a	n/a	GoodResponse	0	n/a	n/a	11	63	Blank	AvoidedLoss	True
601.716	1.45	Lose2	0.6562	n/a	Yes	2.633	n/a	5.0	GoodResponse	0	0.01	600.726	11	63	Feedback	AvoidedLoss	True
603.17	2.633	Lose2	0.6562	n/a	Yes	2.633	n/a	n/a	GoodResponse	0	0.0	n/a	11	63	ISIslide	AvoidedLoss	True
605.828	0.25	Win2	0.6615000000000001	0.0	Yes	3.122	0.028	n/a	GoodResponse	1	n/a	n/a	12	64	Cue	Win	True
606.079	4.15	Win2	0.6615000000000001	0.0	Yes	3.122	0.001	n/a	GoodResponse	1	n/a	n/a	12	64	Fixation	Win	True
610.224	0.24	Win2	0.6615000000000001	0.004	Yes	3.122	-0.004	1.0	GoodResponse	1	0.19	609.414	12	64	Target	Win	True
610.414	0.3	Win2	0.6615000000000001	0.004	Yes	3.122	-0.004	1.0	GoodResponse	1	0.19	n/a	12	64	ButtonPress	Win	True
610.475	0.46	Win2	0.6615000000000001	n/a	Yes	3.122	n/a	n/a	GoodResponse	1	n/a	n/a	12	64	Blank	Win	True
610.927	1.45	Win2	0.6615000000000001	n/a	Yes	3.122	n/a	5.0	GoodResponse	1	0.018	609.945	12	64	Feedback	Win	True
612.381	3.122	Win2	0.6615000000000001	n/a	Yes	3.122	n/a	n/a	GoodResponse	1	0.0	n/a	12	64	ISIslide	Win	True
615.524	0.25	Control	0.6667000000000001	0.0	Yes	2.776	0.024	n/a	GoodResponse	0	n/a	n/a	12	65	Cue	Neutral	True
615.774	4.0	Control	0.6667000000000001	0.0	Yes	2.776	0.0	n/a	GoodResponse	0	n/a	n/a	12	65	Fixation	Neutral	True
619.77	0.24	Control	0.6667000000000001	0.004	Yes	2.776	-0.004	1.0	GoodResponse	0	0.239	619.009	12	65	Target	Neutral	True
620.009	0.3	Control	0.6667000000000001	0.004	Yes	2.776	-0.004	1.0	GoodResponse	0	0.239	n/a	12	65	ButtonPress	Neutral	True
620.02	0.46	Control	0.6667000000000001	n/a	Yes	2.776	n/a	n/a	GoodResponse	0	n/a	n/a	12	65	Blank	Neutral	True
620.472	1.45	Control	0.6667000000000001	n/a	Yes	2.776	n/a	5.0	GoodResponse	0	0.035	619.507	12	65	Feedback	Neutral	True
621.926	2.776	Control	0.6667000000000001	n/a	Yes	2.776	n/a	n/a	GoodResponse	0	0.0	n/a	12	65	ISIslide	Neutral	True
624.718	0.25	Win2	0.6716	0.0	Yes	2.782	0.018	n/a	GoodResponse	1	n/a	n/a	13	66	Cue	Win	True
624.969	3.9	Win2	0.6716	0.0	Yes	2.782	0.001	n/a	GoodResponse	1	n/a	n/a	13	66	Fixation	Win	True
628.864	0.23	Win2	0.6716	0.004	Yes	2.782	-0.004	1.0	GoodResponse	1	0.185	628.049	13	66	Target	Win	True
629.049	0.3	Win2	0.6716	0.004	Yes	2.782	-0.004	1.0	GoodResponse	1	0.185	n/a	13	66	ButtonPress	Win	True
629.098	0.47	Win2	0.6716	n/a	Yes	2.782	n/a	n/a	GoodResponse	1	n/a	n/a	13	66	Blank	Win	True
629.566	1.45	Win2	0.6716	n/a	Yes	2.782	n/a	5.0	GoodResponse	1	0.014	628.58	13	66	Feedback	Win	True
631.02	2.782	Win2	0.6716	n/a	Yes	2.782	n/a	n/a	GoodResponse	1	0.0	n/a	13	66	ISIslide	Win	True
633.828	0.25	Control	0.6618	0.001	No	2.722	0.028	n/a	NoResponse	0	n/a	n/a	13	67	Cue	Neutral	True
634.079	3.95	Control	0.6618	0.0	No	2.722	0.001	n/a	NoResponse	0	n/a	n/a	13	67	Fixation	Neutral	True
638.024	0.22	Control	0.6618	0.004	No	2.722	-0.004	1.0	NoResponse	0	0.285	637.309	13	67	Target	Neutral	True
638.258	0.48	Control	0.6618	n/a	No	2.722	n/a	n/a	NoResponse	0	n/a	n/a	13	67	Blank	Neutral	True
638.309	0.3	Control	0.6618	0.004	No	2.722	-0.004	1.0	NoResponse	0	0.285	n/a	13	67	ButtonPress	Neutral	True
638.726	1.45	Control	0.6618	n/a	No	2.722	n/a	5.0	NoResponse	0	0.025	637.751	13	67	Feedback	Neutral	True
640.181	2.722	Control	0.6618	n/a	No	2.722	n/a	n/a	NoResponse	0	0.0	n/a	13	67	ISIslide	Neutral	True
642.922	0.25	Win2	0.6522	0.0	No	3.078	0.022	n/a	NoResponse	0	n/a	n/a	13	68	Cue	MissedWin	True
643.173	4.0	Win2	0.6522	0.0	No	3.078	0.001	n/a	NoResponse	0	n/a	n/a	13	68	Fixation	MissedWin	True
647.168	0.22	Win2	0.6522	0.004	No	3.078	-0.004	1.0	NoResponse	0	0.236	646.404	13	68	Target	MissedWin	True
647.402	0.48	Win2	0.6522	n/a	No	3.078	n/a	n/a	NoResponse	0	n/a	n/a	13	68	Blank	MissedWin	True
647.404	0.3	Win2	0.6522	0.004	No	3.078	-0.004	1.0	NoResponse	0	0.236	n/a	13	68	ButtonPress	MissedWin	True
647.87	1.45	Win2	0.6522	n/a	No	3.078	n/a	5.0	NoResponse	0	0.008	646.878	13	68	Feedback	MissedWin	True
649.325	3.078	Win2	0.6522	n/a	No	3.078	n/a	n/a	NoResponse	0	0.0	n/a	13	68	ISIslide	MissedWin	True
652.417	0.25	Win2	0.6570999999999999	0.001	Yes	3.233	0.017	n/a	GoodResponse	1	n/a	n/a	14	69	Cue	Win	True
652.668	3.95	Win2	0.6570999999999999	0.0	Yes	3.233	0.001	n/a	GoodResponse	1	n/a	n/a	14	69	Fixation	Win	True
656.613	0.23	Win2	0.6570999999999999	0.004	Yes	3.233	-0.004	1.0	GoodResponse	1	0.179	655.792	14	69	Target	Win	True
656.792	0.3	Win2	0.6570999999999999	0.004	Yes	3.233	-0.004	1.0	GoodResponse	1	0.179	n/a	14	69	ButtonPress	Win	True
656.847	0.47	Win2	0.6570999999999999	n/a	Yes	3.233	n/a	n/a	GoodResponse	1	n/a	n/a	14	69	Blank	Win	True
657.315	1.45	Win2	0.6570999999999999	n/a	Yes	3.233	n/a	5.0	GoodResponse	1	0.02	656.335	14	69	Feedback	Win	True
658.77	3.233	Win2	0.6570999999999999	n/a	Yes	3.233	n/a	n/a	GoodResponse	1	0.0	n/a	14	69	ISIslide	Win	True
662.03	0.25	Lose2	0.662	0.0	Yes	3.02	0.03	n/a	GoodResponse	0	n/a	n/a	14	70	Cue	AvoidedLoss	True
662.28	4.05	Lose2	0.662	0.0	Yes	3.02	0.0	n/a	GoodResponse	0	n/a	n/a	14	70	Fixation	AvoidedLoss	True
666.326	0.23	Lose2	0.662	0.004	Yes	3.02	-0.004	1.0	GoodResponse	0	0.177	665.503	14	70	Target	AvoidedLoss	True
666.503	0.3	Lose2	0.662	0.004	Yes	3.02	-0.004	1.0	GoodResponse	0	0.177	n/a	14	70	ButtonPress	AvoidedLoss	True
666.56	0.47	Lose2	0.662	n/a	Yes	3.02	n/a	n/a	GoodResponse	0	n/a	n/a	14	70	Blank	AvoidedLoss	True
667.028	1.45	Lose2	0.662	n/a	Yes	3.02	n/a	5.0	GoodResponse	0	0.015	666.043	14	70	Feedback	AvoidedLoss	True
668.482	3.02	Lose2	0.662	n/a	Yes	3.02	n/a	n/a	GoodResponse	0	0.0	n/a	14	70	ISIslide	AvoidedLoss	True
671.525	0.25	Win2	0.6667000000000001	0.0	Yes	2.725	0.025	n/a	GoodResponse	1	n/a	n/a	15	71	Cue	Win	True
671.775	4.05	Win2	0.6667000000000001	0.0	Yes	2.725	0.0	n/a	GoodResponse	1	n/a	n/a	15	71	Fixation	Win	True
675.821	0.23	Win2	0.6667000000000001	0.004	Yes	2.725	-0.004	1.0	GoodResponse	1	0.19	675.011	15	71	Target	Win	True
676.011	0.3	Win2	0.6667000000000001	0.004	Yes	2.725	-0.004	1.0	GoodResponse	1	0.19	n/a	15	71	ButtonPress	Win	True
676.055	0.47	Win2	0.6667000000000001	n/a	Yes	2.725	n/a	n/a	GoodResponse	1	n/a	n/a	15	71	Blank	Win	True
676.523	1.45	Win2	0.6667000000000001	n/a	Yes	2.725	n/a	5.0	GoodResponse	1	0.032	675.555	15	71	Feedback	Win	True
677.977	2.725	Win2	0.6667000000000001	n/a	Yes	2.725	n/a	n/a	GoodResponse	1	0.0	n/a	15	71	ISIslide	Win	True
680.719	0.25	Win2	0.6712	0.0	Yes	2.781	0.019	n/a	GoodResponse	1	n/a	n/a	16	72	Cue	Win	True
680.97	4.1	Win2	0.6712	0.0	Yes	2.781	0.001	n/a	GoodResponse	1	n/a	n/a	16	72	Fixation	Win	True
685.065	0.22	Win2	0.6712	0.004	Yes	2.781	-0.004	1.0	GoodResponse	1	0.172	684.237	16	72	Target	Win	True
685.237	0.3	Win2	0.6712	0.004	Yes	2.781	-0.004	1.0	GoodResponse	1	0.172	n/a	16	72	ButtonPress	Win	True
685.299	0.48	Win2	0.6712	n/a	Yes	2.781	n/a	n/a	GoodResponse	1	n/a	n/a	16	72	Blank	Win	True
685.767	1.45	Win2	0.6712	n/a	Yes	2.781	n/a	5.0	GoodResponse	1	0.008	684.775	16	72	Feedback	Win	True
687.222	2.781	Win2	0.6712	n/a	Yes	2.781	n/a	n/a	GoodResponse	1	0.0	n/a	16	72	ISIslide	Win	True
690.03	0.25	Win2	0.6757	0.0	Yes	2.67	0.03	n/a	GoodResponse	1	n/a	n/a	17	73	Cue	Win	True
690.281	4.0	Win2	0.6757	0.0	Yes	2.67	0.001	n/a	GoodResponse	1	n/a	n/a	17	73	Fixation	Win	True
694.276	0.21	Win2	0.6757	0.004	Yes	2.67	-0.004	1.0	GoodResponse	1	0.185	693.461	17	73	Target	Win	True
694.461	0.3	Win2	0.6757	0.004	Yes	2.67	-0.004	1.0	GoodResponse	1	0.185	n/a	17	73	ButtonPress	Win	True
694.493	0.49	Win2	0.6757	n/a	Yes	2.67	n/a	n/a	GoodResponse	1	n/a	n/a	17	73	Blank	Win	True
694.978	1.45	Win2	0.6757	n/a	Yes	2.67	n/a	5.0	GoodResponse	1	0.016	693.994	17	73	Feedback	Win	True
696.432	2.67	Win2	0.6757	n/a	Yes	2.67	n/a	n/a	GoodResponse	1	0.0	n/a	17	73	ISIslide	Win	True
699.124	0.25	Lose2	0.6667000000000001	0.0	No	2.626	0.024	n/a	NoResponse	-1	n/a	n/a	16	74	Cue	Loss	True
699.375	4.05	Lose2	0.6667000000000001	0.0	No	2.626	0.001	n/a	NoResponse	-1	n/a	n/a	16	74	Fixation	Loss	True
703.42	0.2	Lose2	0.6667000000000001	0.004	No	2.626	-0.004	1.0	NoResponse	-1	0.212	702.632	16	74	Target	Loss	True
703.621	0.5	Lose2	0.6667000000000001	n/a	No	2.626	n/a	n/a	NoResponse	-1	n/a	n/a	16	74	Blank	Loss	True
703.632	0.3	Lose2	0.6667000000000001	0.004	No	2.626	-0.004	1.0	NoResponse	-1	0.212	n/a	16	74	ButtonPress	Loss	True
704.122	1.45	Lose2	0.6667000000000001	n/a	No	2.626	n/a	5.0	NoResponse	-1	0.042	703.164	16	74	Feedback	Loss	True
705.577	2.626	Lose2	0.6667000000000001	n/a	No	2.626	n/a	n/a	NoResponse	-1	0.0	n/a	16	74	ISIslide	Loss	True
708.218	0.25	Lose2	0.6711	0.0	Yes	2.932	0.018	n/a	GoodResponse	0	n/a	n/a	16	75	Cue	AvoidedLoss	False
708.469	3.95	Lose2	0.6711	0.0	Yes	2.932	0.001	1.0	GoodResponse	0	3.478	710.947	16	75	Fixation	AvoidedLoss	False
711.947	0.3	Lose2	0.6711	0.0	Yes	2.932	0.001	1.0	GoodResponse	0	3.478	n/a	16	75	ButtonPress	AvoidedLoss	False
712.414	0.19	Lose2	0.6711	0.004	Yes	2.932	-0.004	1.0	GoodResponse	0	0.138	711.552	16	75	Target	AvoidedLoss	False
712.552	0.3	Lose2	0.6711	0.004	Yes	2.932	-0.004	1.0	GoodResponse	0	0.138	n/a	16	75	ButtonPress	AvoidedLoss	False
712.614	0.51	Lose2	0.6711	n/a	Yes	2.932	n/a	n/a	GoodResponse	0	n/a	n/a	16	75	Blank	AvoidedLoss	False
713.116	1.45	Lose2	0.6711	n/a	Yes	2.932	n/a	5.0	GoodResponse	0	0.024	712.14	16	75	Feedback	AvoidedLoss	False
714.57	2.932	Lose2	0.6711	n/a	Yes	2.932	n/a	n/a	GoodResponse	0	0.0	n/a	16	75	ISIslide	AvoidedLoss	False
717.529	0.25	Control	0.6623	0.0	No	3.221	0.029	n/a	NoResponse	0	n/a	n/a	16	76	Cue	Neutral	True
717.78	4.05	Control	0.6623	0.0	No	3.221	0.001	1.0	NoResponse	0	2.875	719.655	16	76	Fixation	Neutral	True
720.655	0.3	Control	0.6623	0.0	No	3.221	0.001	1.0	NoResponse	0	2.875	n/a	16	76	ButtonPress	Neutral	True
721.825	0.18	Control	0.6623	0.004	No	3.221	-0.004	n/a	NoResponse	0	n/a	n/a	16	76	Target	Neutral	True
722.009	0.52	Control	0.6623	n/a	No	3.221	n/a	n/a	NoResponse	0	n/a	n/a	16	76	Blank	Neutral	True
722.527	1.45	Control	0.6623	n/a	No	3.221	n/a	5.0	NoResponse	0	0.027	721.554	16	76	Feedback	Neutral	True
723.982	3.221	Control	0.6623	n/a	No	3.221	n/a	n/a	NoResponse	0	0.0	n/a	16	76	ISIslide	Neutral	True
727.225	0.25	Lose2	0.6537999999999999	0.0	No	2.575	0.025	n/a	LatePress	-1	n/a	n/a	15	77	Cue	Loss	False
727.475	3.95	Lose2	0.6537999999999999	0.0	No	2.575	0.0	1.0	LatePress	-1	3.276	729.751	15	77	Fixation	Loss	False
730.751	0.3	Lose2	0.6537999999999999	0.0	No	2.575	0.0	1.0	LatePress	-1	3.276	n/a	15	77	ButtonPress	Loss	False
731.421	0.18	Lose2	0.6537999999999999	0.004	No	2.575	-0.004	1.0	LatePress	-1	0.182	730.603	15	77	Target	Loss	False
731.603	0.3	Lose2	0.6537999999999999	0.004	No	2.575	-0.004	1.0	LatePress	-1	0.182	n/a	15	77	ButtonPress	Loss	False
731.604	0.52	Lose2	0.6537999999999999	n/a	No	2.575	n/a	n/a	LatePress	-1	n/a	n/a	15	77	Blank	Loss	False
732.123	1.45	Lose2	0.6537999999999999	n/a	No	2.575	n/a	5.0	LatePress	-1	0.041	731.164	15	77	Feedback	Loss	False
733.577	2.575	Lose2	0.6537999999999999	n/a	No	2.575	n/a	n/a	LatePress	-1	0.0	n/a	15	77	ISIslide	Loss	False
