onset	duration	cue_type	current_mean_accuracy	duration_error	is_hit	isi_adjusted	onset_delay	response	response_type	reward	rt	rt_time	total_reward	trial_number	trial_phase	trial_type	one_press
11.099	0.25	Control	1.0	0.0	Yes	2.951	-0.001	n/a	GoodResponse	0	n/a	n/a	0	0	Cue	Neutral	True
11.349	3.85	Control	1.0	0.0	Yes	2.951	0.0	n/a	GoodResponse	0	n/a	n/a	0	0	Fixation	Neutral	True
15.211	0.4	Control	1.0	0.0	Yes	2.951	0.012	3.0	GoodResponse	0	0.204	14.415	0	0	Target	Neutral	True
15.415	0.3	Control	1.0	0.0	Yes	2.951	0.012	3.0	GoodResponse	0	0.204	n/a	0	0	ButtonPress	Neutral	True
15.595	0.3	Control	1.0	n/a	Yes	2.951	n/a	n/a	GoodResponse	0	n/a	n/a	0	0	Blank	Neutral	True
15.896	1.45	Control	1.0	n/a	Yes	2.951	n/a	5.0	GoodResponse	0	0.033	14.929	0	0	Feedback	Neutral	True
17.351	2.951	Control	1.0	n/a	Yes	2.951	n/a	n/a	GoodResponse	0	0.0	n/a	0	0	ISIslide	Neutral	True
20.326	0.25	Lose2	1.0	0.0	Yes	2.774	0.026	n/a	GoodResponse	0	n/a	n/a	0	1	Cue	AvoidedLoss	True
20.577	4.0	Lose2	1.0	0.0	Yes	2.774	0.001	n/a	GoodResponse	0	n/a	n/a	0	1	Fixation	AvoidedLoss	True
24.572	0.39	Lose2	1.0	0.004	Yes	2.774	-0.004	3.0	GoodResponse	0	0.251	23.823	0	1	Target	AvoidedLoss	True
24.823	0.3	Lose2	1.0	0.004	Yes	2.774	-0.004	3.0	GoodResponse	0	0.251	n/a	0	1	ButtonPress	AvoidedLoss	True
24.973	0.31	Lose2	1.0	n/a	Yes	2.774	n/a	n/a	GoodResponse	0	n/a	n/a	0	1	Blank	AvoidedLoss	True
25.274	1.45	Lose2	1.0	n/a	Yes	2.774	n/a	5.0	GoodResponse	0	0.02	24.294	0	1	Feedback	AvoidedLoss	True
26.729	2.774	Lose2	1.0	n/a	Yes	2.774	n/a	n/a	GoodResponse	0	0.0	n/a	0	1	ISIslide	AvoidedLoss	True
29.52	0.25	Control	1.0	0.0	Yes	2.58	0.02	n/a	GoodResponse	0	n/a	n/a	0	2	Cue	Neutral	True
29.771	4.1	Control	1.0	0.0	Yes	2.58	0.001	n/a	GoodResponse	0	n/a	n/a	0	2	Fixation	Neutral	True
33.867	0.38	Control	1.0	0.003	Yes	2.58	-0.003	3.0	GoodResponse	0	0.23	33.097	0	2	Target	Neutral	True
34.097	0.3	Control	1.0	0.003	Yes	2.58	-0.003	3.0	GoodResponse	0	0.23	n/a	0	2	ButtonPress	Neutral	True
34.251	0.32	Control	1.0	n/a	Yes	2.58	n/a	n/a	GoodResponse	0	n/a	n/a	0	2	Blank	Neutral	True
34.569	1.45	Control	1.0	n/a	Yes	2.58	n/a	5.0	GoodResponse	0	0.042	33.611	0	2	Feedback	Neutral	True
36.023	2.58	Control	1.0	n/a	Yes	2.58	n/a	n/a	GoodResponse	0	0.0	n/a	0	2	ISIslide	Neutral	True
38.614	0.25	Win2	1.0	0.0	Yes	2.836	0.014	n/a	GoodResponse	1	n/a	n/a	1	3	Cue	Win	True
38.865	3.95	Win2	1.0	0.0	Yes	2.836	0.001	n/a	GoodResponse	1	n/a	n/a	1	3	Fixation	Win	True
42.81	0.37	Win2	1.0	0.004	Yes	2.836	-0.004	3.0	GoodResponse	1	0.305	42.115	1	3	Target	Win	True
43.115	0.3	Win2	1.0	0.004	Yes	2.836	-0.004	3.0	GoodResponse	1	0.305	n/a	1	3	ButtonPress	Win	True
43.194	0.33	Win2	1.0	n/a	Yes	2.836	n/a	n/a	GoodResponse	1	n/a	n/a	1	3	Blank	Win	True
43.512	1.45	Win2	1.0	n/a	Yes	2.836	n/a	5.0	GoodResponse	1	0.026	42.538	1	3	Feedback	Win	True
44.966	2.836	Win2	1.0	n/a	Yes	2.836	n/a	n/a	GoodResponse	1	0.0	n/a	1	3	ISIslide	Win	True
47.825	0.25	Win2	1.0	0.0	Yes	3.275	0.025	n/a	GoodResponse	1	n/a	n/a	2	4	Cue	Win	True
48.076	4.0	Win2	1.0	0.0	Yes	3.275	0.001	n/a	GoodResponse	1	n/a	n/a	2	4	Fixation	Win	True
52.071	0.36	Win2	1.0	0.004	Yes	3.275	-0.004	3.0	GoodResponse	1	0.24	51.311	2	4	Target	Win	True
52.311	0.3	Win2	1.0	0.004	Yes	3.275	-0.004	3.0	GoodResponse	1	0.24	n/a	2	4	ButtonPress	Win	True
52.439	0.34	Win2	1.0	n/a	Yes	3.275	n/a	n/a	GoodResponse	1	n/a	n/a	2	4	Blank	Win	True
52.773	1.45	Win2	1.0	n/a	Yes	3.275	n/a	5.0	GoodResponse	1	0.034	51.807	2	4	Feedback	Win	True
54.227	3.275	Win2	1.0	n/a	Yes	3.275	n/a	n/a	GoodResponse	1	0.0	n/a	2	4	ISIslide	Win	True
57.521	0.25	Win2	0.8332999999999999	0.0	No	2.779	0.021	n/a	NoResponse	0	n/a	n/a	2	5	Cue	MissedWin	True
57.771	4.0	Win2	0.8332999999999999	0.0	No	2.779	0.0	n/a	NoResponse	0	n/a	n/a	2	5	Fixation	MissedWin	True
61.767	0.35	Win2	0.8332999999999999	0.004	No	2.779	-0.004	3.0	NoResponse	0	0.41	61.177	2	5	Target	MissedWin	True
62.118	0.35	Win2	0.8332999999999999	n/a	No	2.779	n/a	n/a	NoResponse	0	n/a	n/a	2	5	Blank	MissedWin	True
62.177	0.3	Win2	0.8332999999999999	0.004	No	2.779	-0.004	3.0	NoResponse	0	0.41	n/a	2	5	ButtonPress	MissedWin	True
62.469	1.45	Win2	0.8332999999999999	n/a	No	2.779	n/a	5.0	NoResponse	0	0.044	61.513	2	5	Feedback	MissedWin	True
63.923	2.779	Win2	0.8332999999999999	n/a	No	2.779	n/a	n/a	NoResponse	0	0.0	n/a	2	5	ISIslide	MissedWin	True
66.715	0.25	Lose2	0.7143	0.0	No	2.735	0.015	n/a	NoResponse	-1	n/a	n/a	1	6	Cue	Loss	False
66.965	3.95	Lose2	0.7143	0.001	No	2.735	0.0	n/a	NoResponse	-1	n/a	n/a	1	6	Fixation	Loss	False
70.911	0.34	Lose2	0.7143	0.004	No	2.735	-0.004	n/a	NoResponse	-1	n/a	n/a	1	6	Target	Loss	False
71.262	0.36	Lose2	0.7143	n/a	No	2.735	n/a	n/a	NoResponse	-1	n/a	n/a	1	6	Blank	Loss	False
71.613	1.45	Lose2	0.7143	n/a	No	2.735	n/a	5.0	NoResponse	-1	0.022	70.635	1	6	Feedback	Loss	False
73.067	2.735	Lose2	0.7143	n/a	No	2.735	n/a	n/a	NoResponse	-1	0.0	n/a	1	6	ISIslide	Loss	False
75.825	0.25	Lose2	0.625	0.0	No	4.025	0.025	n/a	NoResponse	-1	n/a	n/a	0	7	Cue	Loss	True
76.076	4.05	Lose2	0.625	0.0	No	4.025	0.001	n/a	NoResponse	-1	n/a	n/a	0	7	Fixation	Loss	True
80.121	0.33	Lose2	0.625	0.004	No	4.025	-0.004	3.0	NoResponse	-1	0.362	79.483	0	7	Target	Loss	True
80.456	0.37	Lose2	0.625	n/a	No	4.025	n/a	n/a	NoResponse	-1	n/a	n/a	0	7	Blank	Loss	True
80.483	0.3	Lose2	0.625	0.004	No	4.025	-0.004	3.0	NoResponse	-1	0.362	n/a	0	7	ButtonPress	Loss	True
80.824	1.45	Lose2	0.625	n/a	No	4.025	n/a	5.0	NoResponse	-1	0.031	79.855	0	7	Feedback	Loss	True
82.278	4.025	Lose2	0.625	n/a	No	4.025	n/a	n/a	NoResponse	-1	0.0	n/a	0	7	ISIslide	Loss	True
86.323	0.25	Lose2	0.6667000000000001	0.0	Yes	3.027	0.023	n/a	GoodResponse	0	n/a	n/a	0	8	Cue	AvoidedLoss	True
86.574	3.95	Lose2	0.6667000000000001	0.0	Yes	3.027	0.001	n/a	GoodResponse	0	n/a	n/a	0	8	Fixation	AvoidedLoss	True
90.519	0.34	Lose2	0.6667000000000001	0.004	Yes	3.027	-0.004	3.0	GoodResponse	0	0.236	89.755	0	8	Target	AvoidedLoss	True
90.755	0.3	Lose2	0.6667000000000001	0.004	Yes	3.027	-0.004	3.0	GoodResponse	0	0.236	n/a	0	8	ButtonPress	AvoidedLoss	True
90.87	0.36	Lose2	0.6667000000000001	n/a	Yes	3.027	n/a	n/a	GoodResponse	0	n/a	n/a	0	8	Blank	AvoidedLoss	True
91.221	1.45	Lose2	0.6667000000000001	n/a	Yes	3.027	n/a	5.0	GoodResponse	0	0.024	90.245	0	8	Feedback	AvoidedLoss	True
92.676	3.027	Lose2	0.6667000000000001	n/a	Yes	3.027	n/a	n/a	GoodResponse	0	0.0	n/a	0	8	ISIslide	AvoidedLoss	True
95.718	0.25	Lose2	0.7	0.0	Yes	3.132	0.018	n/a	GoodResponse	0	n/a	n/a	0	9	Cue	AvoidedLoss	True
95.969	3.95	Lose2	0.7	0.0	Yes	3.132	0.001	n/a	GoodResponse	0	n/a	n/a	0	9	Fixation	AvoidedLoss	True
99.914	0.33	Lose2	0.7	0.004	Yes	3.132	-0.004	3.0	GoodResponse	0	0.218	99.132	0	9	Target	AvoidedLoss	True
100.132	0.3	Lose2	0.7	0.004	Yes	3.132	-0.004	3.0	GoodResponse	0	0.218	n/a	0	9	ButtonPress	AvoidedLoss	True
100.248	0.37	Lose2	0.7	n/a	Yes	3.132	n/a	n/a	GoodResponse	0	n/a	n/a	0	9	Blank	AvoidedLoss	True
100.616	1.45	Lose2	0.7	n/a	Yes	3.132	n/a	5.0	GoodResponse	0	0.043	99.659	0	9	Feedback	AvoidedLoss	True
102.07	3.132	Lose2	0.7	n/a	Yes	3.132	n/a	n/a	GoodResponse	0	0.0	n/a	0	9	ISIslide	AvoidedLoss	True
105.23	0.25	Control	0.7273000000000001	0.0	Yes	3.27	0.03	n/a	GoodResponse	0	n/a	n/a	0	10	Cue	Neutral	True
105.48	4.0	Control	0.7273000000000001	0.001	Yes	3.27	0.0	n/a	GoodResponse	0	n/a	n/a	0	10	Fixation	Neutral	True
109.476	0.32	Control	0.7273000000000001	0.004	Yes	3.27	-0.004	3.0	GoodResponse	0	0.29	108.766	0	10	Target	Neutral	True
109.766	0.3	Control	0.7273000000000001	0.004	Yes	3.27	-0.004	3.0	GoodResponse	0	0.29	n/a	0	10	ButtonPress	Neutral	True
109.81	0.38	Control	0.7273000000000001	n/a	Yes	3.27	n/a	n/a	GoodResponse	0	n/a	n/a	0	10	Blank	Neutral	True
110.178	1.45	Control	0.7273000000000001	n/a	Yes	3.27	n/a	5.0	GoodResponse	0	0.042	109.22	0	10	Feedback	Neutral	True
111.632	3.27	Control	0.7273000000000001	n/a	Yes	3.27	n/a	n/a	GoodResponse	0	0.0	n/a	0	10	ISIslide	Neutral	True
114.925	0.25	Lose2	0.6667000000000001	0.0	No	2.725	0.025	n/a	NoResponse	-1	n/a	n/a	-1	11	Cue	Loss	False
115.176	4.05	Lose2	0.6667000000000001	0.0	No	2.725	0.001	n/a	NoResponse	-1	n/a	n/a	-1	11	Fixation	Loss	False
119.222	0.31	Lose2	0.6667000000000001	0.003	No	2.725	-0.003	n/a	NoResponse	-1	n/a	n/a	-1	11	Target	Loss	False
119.539	0.39	Lose2	0.6667000000000001	n/a	No	2.725	n/a	n/a	NoResponse	-1	n/a	n/a	-1	11	Blank	Loss	False
119.924	1.45	Lose2	0.6667000000000001	n/a	No	2.725	n/a	5.0	NoResponse	-1	0.005	118.929	-1	11	Feedback	Loss	False
121.378	2.725	Lose2	0.6667000000000001	n/a	No	2.725	n/a	n/a	NoResponse	-1	0.0	n/a	-1	11	ISIslide	Loss	False
124.119	0.25	Control	0.6154	0.001	No	2.981	0.019	n/a	NoResponse	0	n/a	n/a	-1	12	Cue	Neutral	False
124.37	3.9	Control	0.6154	0.0	No	2.981	0.001	n/a	NoResponse	0	n/a	n/a	-1	12	Fixation	Neutral	False
128.265	0.3	Control	0.6154	0.004	No	2.981	-0.004	n/a	NoResponse	0	n/a	n/a	-1	12	Target	Neutral	False
128.566	0.4	Control	0.6154	n/a	No	2.981	n/a	n/a	NoResponse	0	n/a	n/a	-1	12	Blank	Neutral	False
128.967	1.45	Control	0.6154	n/a	No	2.981	n/a	5.0	NoResponse	0	0.033	128.0	-1	12	Feedback	Neutral	False
130.422	2.981	Control	0.6154	n/a	No	2.981	n/a	n/a	NoResponse	0	0.0	n/a	-1	12	ISIslide	Neutral	False
133.431	0.25	Control	0.6429	0.0	Yes	2.769	0.031	n/a	GoodResponse	0	n/a	n/a	-1	13	Cue	Neutral	True
133.681	4.0	Control	0.6429	0.0	Yes	2.769	0.0	n/a	GoodResponse	0	n/a	n/a	-1	13	Fixation	Neutral	True
137.677	0.31	Control	0.6429	0.004	Yes	2.769	-0.004	3.0	GoodResponse	0	0.229	136.906	-1	13	Target	Neutral	True
137.906	0.3	Control	0.6429	0.004	Yes	2.769	-0.004	3.0	GoodResponse	0	0.229	n/a	-1	13	ButtonPress	Neutral	True
137.994	0.39	Control	0.6429	n/a	Yes	2.769	n/a	n/a	GoodResponse	0	n/a	n/a	-1	13	Blank	Neutral	True
138.379	1.45	Control	0.6429	n/a	Yes	2.769	n/a	5.0	GoodResponse	0	0.036	137.415	-1	13	Feedback	Neutral	True
139.833	2.769	Control	0.6429	n/a	Yes	2.769	n/a	n/a	GoodResponse	0	0.0	n/a	-1	13	ISIslide	Neutral	True
142.625	0.25	Win2	0.6667000000000001	0.0	Yes	2.675	0.025	n/a	GoodResponse	1	n/a	n/a	0	14	Cue	Win	True
142.876	4.1	Win2	0.6667000000000001	0.0	Yes	2.675	0.001	n/a	GoodResponse	1	n/a	n/a	0	14	Fixation	Win	True
146.971	0.32	Win2	0.6667000000000001	0.004	Yes	2.675	-0.004	3.0	GoodResponse	1	0.227	146.198	0	14	Target	Win	True
147.198	0.3	Win2	0.6667000000000001	0.004	Yes	2.675	-0.004	3.0	GoodResponse	1	0.227	n/a	0	14	ButtonPress	Win	True
147.305	0.38	Win2	0.6667000000000001	n/a	Yes	2.675	n/a	n/a	GoodResponse	1	n/a	n/a	0	14	Blank	Win	True
147.673	1.45	Win2	0.6667000000000001	n/a	Yes	2.675	n/a	5.0	GoodResponse	1	0.01	146.683	0	14	Feedback	Win	True
149.128	2.675	Win2	0.6667000000000001	n/a	Yes	2.675	n/a	n/a	GoodResponse	1	0.0	n/a	0	14	ISIslide	Win	True
151.819	0.25	Control	0.625	0.0	No	2.981	0.019	n/a	NoResponse	0	n/a	n/a	0	15	Cue	Neutral	True
152.07	4.0	Control	0.625	0.0	No	2.981	0.001	n/a	NoResponse	0	n/a	n/a	0	15	Fixation	Neutral	True
156.065	0.31	Control	0.625	0.004	No	2.981	-0.004	3.0	NoResponse	0	0.341	155.406	0	15	Target	Neutral	True
156.383	0.39	Control	0.625	n/a	No	2.981	n/a	n/a	NoResponse	0	n/a	n/a	0	15	Blank	Neutral	True
156.406	0.3	Control	0.625	0.004	No	2.981	-0.004	3.0	NoResponse	0	0.341	n/a	0	15	ButtonPress	Neutral	True
156.767	1.45	Control	0.625	n/a	No	2.981	n/a	5.0	NoResponse	0	0.038	155.805	0	15	Feedback	Neutral	True
158.221	2.981	Control	0.625	n/a	No	2.981	n/a	n/a	NoResponse	0	0.0	n/a	0	15	ISIslide	Neutral	True
161.23	0.25	Win2	0.5882000000000001	0.0	No	2.87	0.03	n/a	NoResponse	0	n/a	n/a	0	16	Cue	MissedWin	True
161.481	4.0	Win2	0.5882000000000001	0.0	No	2.87	0.001	n/a	NoResponse	0	n/a	n/a	0	16	Fixation	MissedWin	True
165.476	0.32	Win2	0.5882000000000001	0.004	No	2.87	-0.004	3.0	NoResponse	0	0.562	165.038	0	16	Target	MissedWin	True
165.811	0.38	Win2	0.5882000000000001	n/a	No	2.87	n/a	n/a	NoResponse	0	n/a	n/a	0	16	Blank	MissedWin	True
166.038	0.3	Win2	0.5882000000000001	0.004	No	2.87	-0.004	3.0	NoResponse	0	0.562	n/a	0	16	ButtonPress	MissedWin	True
166.178	1.45	Win2	0.5882000000000001	n/a	No	2.87	n/a	5.0	NoResponse	0	0.041	165.219	0	16	Feedback	MissedWin	True
167.633	2.87	Win2	0.5882000000000001	n/a	No	2.87	n/a	n/a	NoResponse	0	0.0	n/a	0	16	ISIslide	MissedWin	True
170.525	0.25	Lose2	0.6111	0.0	Yes	2.725	0.025	n/a	GoodResponse	0	n/a	n/a	0	17	Cue	AvoidedLoss	True
170.775	3.95	Lose2	0.6111	0.001	Yes	2.725	0.0	n/a	GoodResponse	0	n/a	n/a	0	17	Fixation	AvoidedLoss	True
174.721	0.33	Lose2	0.6111	0.004	Yes	2.725	-0.004	3.0	GoodResponse	0	0.3	174.021	0	17	Target	AvoidedLoss	True
175.021	0.3	Lose2	0.6111	0.004	Yes	2.725	-0.004	3.0	GoodResponse	0	0.3	n/a	0	17	ButtonPress	AvoidedLoss	True
175.055	0.37	Lose2	0.6111	n/a	Yes	2.725	n/a	n/a	GoodResponse	0	n/a	n/a	0	17	Blank	AvoidedLoss	True
175.423	1.45	Lose2	0.6111	n/a	Yes	2.725	n/a	5.0	GoodResponse	0	0.015	174.438	0	17	Feedback	AvoidedLoss	True
176.877	2.725	Lose2	0.6111	n/a	Yes	2.725	n/a	n/a	GoodResponse	0	0.0	n/a	0	17	ISIslide	AvoidedLoss	True
179.619	0.25	Lose2	0.5789	0.0	No	2.731	0.019	n/a	NoResponse	-1	n/a	n/a	-1	18	Cue	Loss	True
179.869	4.05	Lose2	0.5789	0.0	No	2.731	0.0	n/a	NoResponse	-1	n/a	n/a	-1	18	Fixation	Loss	True
183.915	0.34	Lose2	0.5789	0.004	No	2.731	-0.004	3.0	NoResponse	-1	0.64	183.555	-1	18	Target	Loss	True
184.266	0.36	Lose2	0.5789	n/a	No	2.731	n/a	n/a	NoResponse	-1	n/a	n/a	-1	18	Blank	Loss	True
184.555	0.3	Lose2	0.5789	0.004	No	2.731	-0.004	3.0	NoResponse	-1	0.64	n/a	-1	18	ButtonPress	Loss	True
184.617	1.45	Lose2	0.5789	n/a	No	2.731	n/a	5.0	NoResponse	-1	0.041	183.658	-1	18	Feedback	Loss	True
186.071	2.731	Lose2	0.5789	n/a	No	2.731	n/a	n/a	NoResponse	-1	0.0	n/a	-1	18	ISIslide	Loss	True
188.829	0.25	Control	0.6	0.001	Yes	2.921	0.029	n/a	GoodResponse	0	n/a	n/a	-1	19	Cue	Neutral	True
189.08	3.95	Control	0.6	0.0	Yes	2.921	0.001	n/a	GoodResponse	0	n/a	n/a	-1	19	Fixation	Neutral	True
193.025	0.35	Control	0.6	0.004	Yes	2.921	-0.004	3.0	GoodResponse	0	0.221	192.246	-1	19	Target	Neutral	True
193.246	0.3	Control	0.6	0.004	Yes	2.921	-0.004	3.0	GoodResponse	0	0.221	n/a	-1	19	ButtonPress	Neutral	True
193.376	0.35	Control	0.6	n/a	Yes	2.921	n/a	n/a	GoodResponse	0	n/a	n/a	-1	19	Blank	Neutral	True
193.727	1.45	Control	0.6	n/a	Yes	2.921	n/a	5.0	GoodResponse	0	0.006	192.733	-1	19	Feedback	Neutral	True
195.182	2.921	Control	0.6	n/a	Yes	2.921	n/a	n/a	GoodResponse	0	0.0	n/a	-1	19	ISIslide	Neutral	True
198.124	0.25	Control	0.5714	0.0	No	2.626	0.024	n/a	NoResponse	0	n/a	n/a	-1	20	Cue	Neutral	False
198.375	4.05	Control	0.5714	0.0	No	2.626	0.001	n/a	NoResponse	0	n/a	n/a	-1	20	Fixation	Neutral	False
202.42	0.36	Control	0.5714	0.004	No	2.626	-0.004	n/a	NoResponse	0	n/a	n/a	-1	20	Target	Neutral	False
202.788	0.34	Control	0.5714	n/a	No	2.626	n/a	n/a	NoResponse	0	n/a	n/a	-1	20	Blank	Neutral	False
203.122	1.45	Control	0.5714	n/a	No	2.626	n/a	5.0	NoResponse	0	0.024	202.146	-1	20	Feedback	Neutral	False
204.576	2.626	Control	0.5714	n/a	No	2.626	n/a	n/a	NoResponse	0	0.0	n/a	-1	20	ISIslide	Neutral	False
207.218	0.25	Control	0.5909	0.0	Yes	2.782	0.018	3.0	GoodResponse	0	0.246	206.464	-1	21	Cue	Neutral	False
207.464	0.3	Control	0.5909	0.0	Yes	2.782	0.018	3.0	GoodResponse	0	0.246	n/a	-1	21	ButtonPress	Neutral	False
207.468	4.1	Control	0.5909	0.001	Yes	2.782	0.0	n/a	GoodResponse	0	n/a	n/a	-1	21	Fixation	Neutral	False
211.564	0.37	Control	0.5909	0.004	Yes	2.782	-0.004	3.0	GoodResponse	0	0.264	210.828	-1	21	Target	Neutral	False
211.828	0.3	Control	0.5909	0.004	Yes	2.782	-0.004	3.0	GoodResponse	0	0.264	n/a	-1	21	ButtonPress	Neutral	False
211.948	0.33	Control	0.5909	n/a	Yes	2.782	n/a	n/a	GoodResponse	0	n/a	n/a	-1	21	Blank	Neutral	False
212.266	1.45	Control	0.5909	n/a	Yes	2.782	n/a	5.0	GoodResponse	0	0.001	211.267	-1	21	Feedback	Neutral	False
213.72	2.782	Control	0.5909	n/a	Yes	2.782	n/a	n/a	GoodResponse	0	0.0	n/a	-1	21	ISIslide	Neutral	False
216.529	0.25	Control	0.6087	0.0	Yes	2.771	0.029	n/a	GoodResponse	0	n/a	n/a	-1	22	Cue	Neutral	True
216.78	4.0	Control	0.6087	0.0	Yes	2.771	0.001	n/a	GoodResponse	0	n/a	n/a	-1	22	Fixation	Neutral	True
220.775	0.38	Control	0.6087	0.004	Yes	2.771	-0.004	3.0	GoodResponse	0	0.208	219.983	-1	22	Target	Neutral	True
220.983	0.3	Control	0.6087	0.004	Yes	2.771	-0.004	3.0	GoodResponse	0	0.208	n/a	-1	22	ButtonPress	Neutral	True
221.159	0.32	Control	0.6087	n/a	Yes	2.771	n/a	n/a	GoodResponse	0	n/a	n/a	-1	22	Blank	Neutral	True
221.477	1.45	Control	0.6087	n/a	Yes	2.771	n/a	5.0	GoodResponse	0	0.01	220.487	-1	22	Feedback	Neutral	True
222.931	2.771	Control	0.6087	n/a	Yes	2.771	n/a	n/a	GoodResponse	0	0.0	n/a	-1	22	ISIslide	Neutral	True
225.723	0.25	Control	0.625	0.0	Yes	2.777	0.023	n/a	GoodResponse	0	n/a	n/a	-1	23	Cue	Neutral	True
225.974	3.9	Control	0.625	0.0	Yes	2.777	0.001	n/a	GoodResponse	0	n/a	n/a	-1	23	Fixation	Neutral	True
229.869	0.39	Control	0.625	0.004	Yes	2.777	-0.004	3.0	GoodResponse	0	0.23	229.099	-1	23	Target	Neutral	True
230.099	0.3	Control	0.625	0.004	Yes	2.777	-0.004	3.0	GoodResponse	0	0.23	n/a	-1	23	ButtonPress	Neutral	True
230.27	0.31	Control	0.625	n/a	Yes	2.777	n/a	n/a	GoodResponse	0	n/a	n/a	-1	23	Blank	Neutral	True
230.571	1.45	Control	0.625	n/a	Yes	2.777	n/a	5.0	GoodResponse	0	0.038	229.609	-1	23	Feedback	Neutral	True
232.025	2.777	Control	0.625	n/a	Yes	2.777	n/a	n/a	GoodResponse	0	0.0	n/a	-1	23	ISIslide	Neutral	True
234.817	0.25	Win2	0.64	0.0	Yes	3.133	0.017	n/a	GoodResponse	1	n/a	n/a	0	24	Cue	Win	True
235.068	3.95	Win2	0.64	0.0	Yes	3.133	0.001	n/a	GoodResponse	1	n/a	n/a	0	24	Fixation	Win	True
239.013	0.4	Win2	0.64	0.004	Yes	3.133	-0.004	3.0	GoodResponse	1	0.196	238.209	0	24	Target	Win	True
239.209	0.3	Win2	0.64	0.004	Yes	3.133	-0.004	3.0	GoodResponse	1	0.196	n/a	0	24	ButtonPress	Win	True
239.414	0.3	Win2	0.64	n/a	Yes	3.133	n/a	n/a	GoodResponse	1	n/a	n/a	0	24	Blank	Win	True
239.715	1.45	Win2	0.64	n/a	Yes	3.133	n/a	5.0	GoodResponse	1	0.016	238.731	0	24	Feedback	Win	True
241.169	3.133	Win2	0.64	n/a	Yes	3.133	n/a	n/a	GoodResponse	1	0.0	n/a	0	24	ISIslide	Win	True
244.328	0.25	Win2	0.6537999999999999	0.001	Yes	3.072	0.028	n/a	GoodResponse	1	n/a	n/a	1	25	Cue	Win	True
244.579	4.0	Win2	0.6537999999999999	0.0	Yes	3.072	0.001	n/a	GoodResponse	1	n/a	n/a	1	25	Fixation	Win	True
248.575	0.41	Win2	0.6537999999999999	0.003	Yes	3.072	-0.003	3.0	GoodResponse	1	0.211	247.786	1	25	Target	Win	True
248.786	0.3	Win2	0.6537999999999999	0.003	Yes	3.072	-0.003	3.0	GoodResponse	1	0.211	n/a	1	25	ButtonPress	Win	True
248.992	0.29	Win2	0.6537999999999999	n/a	Yes	3.072	n/a	n/a	GoodResponse	1	n/a	n/a	1	25	Blank	Win	True
249.277	1.45	Win2	0.6537999999999999	n/a	Yes	3.072	n/a	5.0	GoodResponse	1	0.014	248.291	1	25	Feedback	Win	True
250.731	3.072	Win2	0.6537999999999999	n/a	Yes	3.072	n/a	n/a	GoodResponse	1	0.0	n/a	1	25	ISIslide	Win	True
253.824	0.25	Win2	0.6296	0.0	No	2.926	0.024	n/a	NoResponse	0	n/a	n/a	1	26	Cue	MissedWin	False
254.074	3.95	Win2	0.6296	0.0	No	2.926	0.0	n/a	NoResponse	0	n/a	n/a	1	26	Fixation	MissedWin	False
258.036	0.42	Win2	0.6296	0.0	No	2.926	0.012	n/a	NoResponse	0	n/a	n/a	1	26	Target	MissedWin	False
258.454	0.28	Win2	0.6296	n/a	No	2.926	n/a	n/a	NoResponse	0	n/a	n/a	1	26	Blank	MissedWin	False
258.721	1.45	Win2	0.6296	n/a	No	2.926	n/a	5.0	NoResponse	0	0.034	257.755	1	26	Feedback	MissedWin	False
260.176	2.926	Win2	0.6296	n/a	No	2.926	n/a	n/a	NoResponse	0	0.0	n/a	1	26	ISIslide	MissedWin	False
263.118	0.25	Lose2	0.6429	0.0	Yes	2.832	0.018	n/a	GoodResponse	0	n/a	n/a	1	27	Cue	AvoidedLoss	True
263.369	4.05	Lose2	0.6429	0.0	Yes	2.832	0.001	n/a	GoodResponse	0	n/a	n/a	1	27	Fixation	AvoidedLoss	True
267.414	0.43	Lose2	0.6429	0.004	Yes	2.832	-0.004	3.0	GoodResponse	0	0.261	266.675	1	27	Target	AvoidedLoss	True
267.675	0.3	Lose2	0.6429	0.004	Yes	2.832	-0.004	3.0	GoodResponse	0	0.261	n/a	1	27	ButtonPress	AvoidedLoss	True
267.849	0.27	Lose2	0.6429	n/a	Yes	2.832	n/a	n/a	GoodResponse	0	n/a	n/a	1	27	Blank	AvoidedLoss	True
268.116	1.45	Lose2	0.6429	n/a	Yes	2.832	n/a	5.0	GoodResponse	0	0.006	267.122	1	27	Feedback	AvoidedLoss	True
269.571	2.832	Lose2	0.6429	n/a	Yes	2.832	n/a	n/a	GoodResponse	0	0.0	n/a	1	27	ISIslide	AvoidedLoss	True
272.429	0.25	Control	0.6552	0.0	Yes	2.821	0.029	n/a	GoodResponse	0	n/a	n/a	1	28	Cue	Neutral	True
272.68	4.05	Control	0.6552	0.0	Yes	2.821	0.001	n/a	GoodResponse	0	n/a	n/a	1	28	Fixation	Neutral	True
276.725	0.44	Control	0.6552	0.004	Yes	2.821	-0.004	3.0	GoodResponse	0	0.235	275.96	1	28	Target	Neutral	True
276.96	0.3	Control	0.6552	0.004	Yes	2.821	-0.004	3.0	GoodResponse	0	0.235	n/a	1	28	ButtonPress	Neutral	True
277.177	0.26	Control	0.6552	n/a	Yes	2.821	n/a	n/a	GoodResponse	0	n/a	n/a	1	28	Blank	Neutral	True
277.427	1.45	Control	0.6552	n/a	Yes	2.821	n/a	5.0	GoodResponse	0	0.011	276.438	1	28	Feedback	Neutral	True
278.882	2.821	Control	0.6552	n/a	Yes	2.821	n/a	n/a	GoodResponse	0	0.0	n/a	1	28	ISIslide	Neutral	True
281.724	0.25	Lose2	0.6667000000000001	0.0	Yes	2.826	0.024	n/a	GoodResponse	0	n/a	n/a	1	29	Cue	AvoidedLoss	True
281.974	3.95	Lose2	0.6667000000000001	0.0	Yes	2.826	0.0	n/a	GoodResponse	0	n/a	n/a	1	29	Fixation	AvoidedLoss	True
285.936	0.44	Lose2	0.6667000000000001	0.0	Yes	2.826	0.012	3.0	GoodResponse	0	0.25	285.186	1	29	Target	AvoidedLoss	True
286.186	0.3	Lose2	0.6667000000000001	0.0	Yes	2.826	0.012	3.0	GoodResponse	0	0.25	n/a	1	29	ButtonPress	AvoidedLoss	True
286.371	0.26	Lose2	0.6667000000000001	n/a	Yes	2.826	n/a	n/a	GoodResponse	0	n/a	n/a	1	29	Blank	AvoidedLoss	True
286.621	1.45	Lose2	0.6667000000000001	n/a	Yes	2.826	n/a	5.0	GoodResponse	0	0.035	285.656	1	29	Feedback	AvoidedLoss	True
288.076	2.826	Lose2	0.6667000000000001	n/a	Yes	2.826	n/a	n/a	GoodResponse	0	0.0	n/a	1	29	ISIslide	AvoidedLoss	True
290.918	0.25	Win2	0.6774	0.0	Yes	2.782	0.018	n/a	GoodResponse	1	n/a	n/a	2	30	Cue	Win	True
291.168	3.9	Win2	0.6774	0.0	Yes	2.782	0.0	n/a	GoodResponse	1	n/a	n/a	2	30	Fixation	Win	True
295.08	0.43	Win2	0.6774	0.0	Yes	2.782	0.012	3.0	GoodResponse	1	0.249	294.329	2	30	Target	Win	True
295.329	0.3	Win2	0.6774	0.0	Yes	2.782	0.012	3.0	GoodResponse	1	0.249	n/a	2	30	ButtonPress	Win	True
295.498	0.27	Win2	0.6774	n/a	Yes	2.782	n/a	n/a	GoodResponse	1	n/a	n/a	2	30	Blank	Win	True
295.765	1.45	Win2	0.6774	n/a	Yes	2.782	n/a	5.0	GoodResponse	1	0.013	294.778	2	30	Feedback	Win	True
297.22	2.782	Win2	0.6774	n/a	Yes	2.782	n/a	n/a	GoodResponse	1	0.0	n/a	2	30	ISIslide	Win	True
300.028	0.25	Lose2	0.6562	0.0	No	2.822	0.028	n/a	NoResponse	-1	n/a	n/a	1	31	Cue	Loss	False
300.279	4.05	Lose2	0.6562	0.0	No	2.822	0.001	n/a	NoResponse	-1	n/a	n/a	1	31	Fixation	Loss	False
304.324	0.42	Lose2	0.6562	0.004	No	2.822	-0.004	n/a	NoResponse	-1	n/a	n/a	1	31	Target	Loss	False
304.759	0.28	Lose2	0.6562	n/a	No	2.822	n/a	n/a	NoResponse	-1	n/a	n/a	1	31	Blank	Loss	False
305.026	1.45	Lose2	0.6562	n/a	No	2.822	n/a	5.0	NoResponse	-1	0.021	304.047	1	31	Feedback	Loss	False
306.481	2.822	Lose2	0.6562	n/a	No	2.822	n/a	n/a	NoResponse	-1	0.0	n/a	1	31	ISIslide	Loss	False
309.323	0.25	Lose2	0.6667000000000001	0.0	Yes	2.627	0.023	n/a	GoodResponse	0	n/a	n/a	1	32	Cue	AvoidedLoss	True
309.573	4.15	Lose2	0.6667000000000001	0.0	Yes	2.627	0.0	n/a	GoodResponse	0	n/a	n/a	1	32	Fixation	AvoidedLoss	True
313.719	0.42	Lose2	0.6667000000000001	0.004	Yes	2.627	-0.004	3.0	GoodResponse	0	0.337	313.056	1	32	Target	AvoidedLoss	True
314.056	0.3	Lose2	0.6667000000000001	0.004	Yes	2.627	-0.004	3.0	GoodResponse	0	0.337	n/a	1	32	ButtonPress	AvoidedLoss	True
314.154	0.28	Lose2	0.6667000000000001	n/a	Yes	2.627	n/a	n/a	GoodResponse	0	n/a	n/a	1	32	Blank	AvoidedLoss	True
314.421	1.45	Lose2	0.6667000000000001	n/a	Yes	2.627	n/a	5.0	GoodResponse	0	0.041	313.462	1	32	Feedback	AvoidedLoss	True
315.875	2.627	Lose2	0.6667000000000001	n/a	Yes	2.627	n/a	n/a	GoodResponse	0	0.0	n/a	1	32	ISIslide	AvoidedLoss	True
318.517	0.25	Win2	0.6765000000000001	0.0	Yes	2.683	0.017	n/a	GoodResponse	1	n/a	n/a	2	33	Cue	Win	True
318.767	4.0	Win2	0.6765000000000001	0.001	Yes	2.683	0.0	n/a	GoodResponse	1	n/a	n/a	2	33	Fixation	Win	True
322.763	0.41	Win2	0.6765000000000001	0.004	Yes	2.683	-0.004	3.0	GoodResponse	1	0.255	322.018	2	33	Target	Win	True
323.018	0.3	Win2	0.6765000000000001	0.004	Yes	2.683	-0.004	3.0	GoodResponse	1	0.255	n/a	2	33	ButtonPress	Win	True
323.181	0.29	Win2	0.6765000000000001	n/a	Yes	2.683	n/a	n/a	GoodResponse	1	n/a	n/a	2	33	Blank	Win	True
323.465	1.45	Win2	0.6765000000000001	n/a	Yes	2.683	n/a	5.0	GoodResponse	1	0.02	322.485	2	33	Feedback	Win	True
324.919	2.683	Win2	0.6765000000000001	n/a	Yes	2.683	n/a	n/a	GoodResponse	1	0.0	n/a	2	33	ISIslide	Win	True
327.627	0.25	Lose2	0.6857	0.0	Yes	2.623	0.027	n/a	GoodResponse	0	n/a	n/a	2	34	Cue	AvoidedLoss	True
327.878	4.05	Lose2	0.6857	0.0	Yes	2.623	0.001	n/a	GoodResponse	0	n/a	n/a	2	34	Fixation	AvoidedLoss	True
331.923	0.4	Lose2	0.6857	0.004	Yes	2.623	-0.004	3.0	GoodResponse	0	0.231	331.154	2	34	Target	AvoidedLoss	True
332.154	0.3	Lose2	0.6857	0.004	Yes	2.623	-0.004	3.0	GoodResponse	0	0.231	n/a	2	34	ButtonPress	AvoidedLoss	True
332.325	0.3	Lose2	0.6857	n/a	Yes	2.623	n/a	n/a	GoodResponse	0	n/a	n/a	2	34	Blank	AvoidedLoss	True
332.626	1.45	Lose2	0.6857	n/a	Yes	2.623	n/a	5.0	GoodResponse	0	0.03	331.656	2	34	Feedback	AvoidedLoss	True
334.08	2.623	Lose2	0.6857	n/a	Yes	2.623	n/a	n/a	GoodResponse	0	0.0	n/a	2	34	ISIslide	AvoidedLoss	True
336.721	0.25	Lose2	0.6944	0.0	Yes	2.679	0.021	n/a	GoodResponse	0	n/a	n/a	2	35	Cue	AvoidedLoss	True
336.972	4.0	Lose2	0.6944	0.0	Yes	2.679	0.001	n/a	GoodResponse	0	n/a	n/a	2	35	Fixation	AvoidedLoss	True
340.967	0.39	Lose2	0.6944	0.004	Yes	2.679	-0.004	3.0	GoodResponse	0	0.262	340.229	2	35	Target	AvoidedLoss	True
341.229	0.3	Lose2	0.6944	0.004	Yes	2.679	-0.004	3.0	GoodResponse	0	0.262	n/a	2	35	ButtonPress	AvoidedLoss	True
341.368	0.31	Lose2	0.6944	n/a	Yes	2.679	n/a	n/a	GoodResponse	0	n/a	n/a	2	35	Blank	AvoidedLoss	True
341.669	1.45	Lose2	0.6944	n/a	Yes	2.679	n/a	5.0	GoodResponse	0	0.011	340.68	2	35	Feedback	AvoidedLoss	True
343.124	2.679	Lose2	0.6944	n/a	Yes	2.679	n/a	n/a	GoodResponse	0	0.0	n/a	2	35	ISIslide	AvoidedLoss	True
345.815	0.25	Control	0.7027	0.0	Yes	2.685	0.015	n/a	GoodResponse	0	n/a	n/a	2	36	Cue	Neutral	True
346.066	4.0	Control	0.7027	0.0	Yes	2.685	0.001	n/a	GoodResponse	0	n/a	n/a	2	36	Fixation	Neutral	True
350.061	0.38	Control	0.7027	0.004	Yes	2.685	-0.004	3.0	GoodResponse	0	0.259	349.32	2	36	Target	Neutral	True
350.32	0.3	Control	0.7027	0.004	Yes	2.685	-0.004	3.0	GoodResponse	0	0.259	n/a	2	36	ButtonPress	Neutral	True
350.445	0.32	Control	0.7027	n/a	Yes	2.685	n/a	n/a	GoodResponse	0	n/a	n/a	2	36	Blank	Neutral	True
350.763	1.45	Control	0.7027	n/a	Yes	2.685	n/a	5.0	GoodResponse	0	0.039	349.802	2	36	Feedback	Neutral	True
352.217	2.685	Control	0.7027	n/a	Yes	2.685	n/a	n/a	GoodResponse	0	0.0	n/a	2	36	ISIslide	Neutral	True
354.925	0.25	Win2	0.7105	0.001	Yes	2.875	0.025	n/a	GoodResponse	1	n/a	n/a	3	37	Cue	Win	True
355.176	4.0	Win2	0.7105	0.0	Yes	2.875	0.001	n/a	GoodResponse	1	n/a	n/a	3	37	Fixation	Win	True
359.171	0.37	Win2	0.7105	0.004	Yes	2.875	-0.004	3.0	GoodResponse	1	0.316	358.487	3	37	Target	Win	True
359.487	0.3	Win2	0.7105	0.004	Yes	2.875	-0.004	3.0	GoodResponse	1	0.316	n/a	3	37	ButtonPress	Win	True
359.556	0.33	Win2	0.7105	n/a	Yes	2.875	n/a	n/a	GoodResponse	1	n/a	n/a	3	37	Blank	Win	True
359.874	1.45	Win2	0.7105	n/a	Yes	2.875	n/a	5.0	GoodResponse	1	0.003	358.877	3	37	Feedback	Win	True
361.328	2.875	Win2	0.7105	n/a	Yes	2.875	n/a	n/a	GoodResponse	1	0.0	n/a	3	37	ISIslide	Win	True
364.22	0.25	Lose2	0.7179000000000001	0.0	Yes	2.83	0.02	n/a	GoodResponse	0	n/a	n/a	3	38	Cue	AvoidedLoss	True
364.471	3.95	Lose2	0.7179000000000001	0.0	Yes	2.83	0.001	n/a	GoodResponse	0	n/a	n/a	3	38	Fixation	AvoidedLoss	True
368.416	0.36	Lose2	0.7179000000000001	0.004	Yes	2.83	-0.004	3.0	GoodResponse	0	0.209	367.625	3	38	Target	AvoidedLoss	True
368.625	0.3	Lose2	0.7179000000000001	0.004	Yes	2.83	-0.004	3.0	GoodResponse	0	0.209	n/a	3	38	ButtonPress	AvoidedLoss	True
368.784	0.34	Lose2	0.7179000000000001	n/a	Yes	2.83	n/a	n/a	GoodResponse	0	n/a	n/a	3	38	Blank	AvoidedLoss	True
369.118	1.45	Lose2	0.7179000000000001	n/a	Yes	2.83	n/a	5.0	GoodResponse	0	0.025	368.143	3	38	Feedback	AvoidedLoss	True
370.572	2.83	Lose2	0.7179000000000001	n/a	Yes	2.83	n/a	n/a	GoodResponse	0	0.0	n/a	3	38	ISIslide	AvoidedLoss	True
373.414	0.25	Win2	0.7	0.0	No	2.986	0.014	n/a	NoResponse	0	n/a	n/a	3	39	Cue	MissedWin	False
373.665	4.1	Win2	0.7	0.0	No	2.986	0.001	n/a	NoResponse	0	n/a	n/a	3	39	Fixation	MissedWin	False
377.76	0.35	Win2	0.7	0.004	No	2.986	-0.004	n/a	NoResponse	0	n/a	n/a	3	39	Target	MissedWin	False
378.111	0.35	Win2	0.7	n/a	No	2.986	n/a	n/a	NoResponse	0	n/a	n/a	3	39	Blank	MissedWin	False
378.462	1.45	Win2	0.7	n/a	No	2.986	n/a	5.0	NoResponse	0	0.047	377.509	3	39	Feedback	MissedWin	False
379.917	2.986	Win2	0.7	n/a	No	2.986	n/a	n/a	NoResponse	0	0.0	n/a	3	39	ISIslide	MissedWin	False
382.926	0.25	Win2	0.7073	0.0	Yes	2.724	0.026	n/a	GoodResponse	1	n/a	n/a	4	40	Cue	Win	True
383.176	3.95	Win2	0.7073	0.001	Yes	2.724	0.0	n/a	GoodResponse	1	n/a	n/a	4	40	Fixation	Win	True
387.122	0.34	Win2	0.7073	0.004	Yes	2.724	-0.004	3.0	GoodResponse	1	0.258	386.38	4	40	Target	Win	True
387.38	0.3	Win2	0.7073	0.004	Yes	2.724	-0.004	3.0	GoodResponse	1	0.258	n/a	4	40	ButtonPress	Win	True
387.473	0.36	Win2	0.7073	n/a	Yes	2.724	n/a	n/a	GoodResponse	1	n/a	n/a	4	40	Blank	Win	True
387.824	1.45	Win2	0.7073	n/a	Yes	2.724	n/a	5.0	GoodResponse	1	0.002	386.826	4	40	Feedback	Win	True
389.278	2.724	Win2	0.7073	n/a	Yes	2.724	n/a	n/a	GoodResponse	1	0.0	n/a	4	40	ISIslide	Win	True
392.02	0.25	Win2	0.6905	0.0	No	2.78	0.02	n/a	NoResponse	0	n/a	n/a	4	41	Cue	MissedWin	True
392.27	3.9	Win2	0.6905	0.0	No	2.78	0.0	n/a	NoResponse	0	n/a	n/a	4	41	Fixation	MissedWin	True
396.182	0.33	Win2	0.6905	0.0	No	2.78	0.012	3.0	NoResponse	0	0.34	395.522	4	41	Target	MissedWin	True
396.5	0.37	Win2	0.6905	n/a	No	2.78	n/a	n/a	NoResponse	0	n/a	n/a	4	41	Blank	MissedWin	True
396.522	0.3	Win2	0.6905	0.0	No	2.78	0.012	3.0	NoResponse	0	0.34	n/a	4	41	ButtonPress	MissedWin	True
396.867	1.45	Win2	0.6905	n/a	No	2.78	n/a	5.0	NoResponse	0	0.032	395.899	4	41	Feedback	MissedWin	True
398.322	2.78	Win2	0.6905	n/a	No	2.78	n/a	n/a	NoResponse	0	0.0	n/a	4	41	ISIslide	MissedWin	True
401.113	0.25	Control	0.6977	0.0	Yes	2.937	0.013	n/a	GoodResponse	0	n/a	n/a	4	42	Cue	Neutral	True
401.364	3.85	Control	0.6977	0.0	Yes	2.937	0.001	n/a	GoodResponse	0	n/a	n/a	4	42	Fixation	Neutral	True
405.209	0.32	Control	0.6977	0.004	Yes	2.937	-0.004	3.0	GoodResponse	0	0.259	404.468	4	42	Target	Neutral	True
405.468	0.3	Control	0.6977	0.004	Yes	2.937	-0.004	3.0	GoodResponse	0	0.259	n/a	4	42	ButtonPress	Neutral	True
405.543	0.38	Control	0.6977	n/a	Yes	2.937	n/a	n/a	GoodResponse	0	n/a	n/a	4	42	Blank	Neutral	True
405.911	1.45	Control	0.6977	n/a	Yes	2.937	n/a	5.0	GoodResponse	0	0.012	404.923	4	42	Feedback	Neutral	True
407.365	2.937	Control	0.6977	n/a	Yes	2.937	n/a	n/a	GoodResponse	0	0.0	n/a	4	42	ISIslide	Neutral	True
410.324	0.25	Win2	0.6818000000000001	0.0	No	3.176	0.024	n/a	NoResponse	0	n/a	n/a	4	43	Cue	MissedWin	False
410.575	4.0	Win2	0.6818000000000001	0.0	No	3.176	0.001	n/a	NoResponse	0	n/a	n/a	4	43	Fixation	MissedWin	False
414.57	0.31	Win2	0.6818000000000001	0.004	No	3.176	-0.004	n/a	NoResponse	0	n/a	n/a	4	43	Target	MissedWin	False
414.888	0.39	Win2	0.6818000000000001	n/a	No	3.176	n/a	n/a	NoResponse	0	n/a	n/a	4	43	Blank	MissedWin	False
415.272	1.45	Win2	0.6818000000000001	n/a	No	3.176	n/a	5.0	NoResponse	0	0.017	414.289	4	43	Feedback	MissedWin	False
416.727	3.176	Win2	0.6818000000000001	n/a	No	3.176	n/a	n/a	NoResponse	0	0.0	n/a	4	43	ISIslide	MissedWin	False
419.92	0.25	Win2	0.6667000000000001	0.0	No	2.98	0.02	n/a	NoResponse	0	n/a	n/a	4	44	Cue	MissedWin	False
420.17	4.0	Win2	0.6667000000000001	0.0	No	2.98	0.0	n/a	NoResponse	0	n/a	n/a	4	44	Fixation	MissedWin	False
424.166	0.3	Win2	0.6667000000000001	0.004	No	2.98	-0.004	n/a	NoResponse	0	n/a	n/a	4	44	Target	MissedWin	False
424.466	0.4	Win2	0.6667000000000001	n/a	No	2.98	n/a	n/a	NoResponse	0	n/a	n/a	4	44	Blank	MissedWin	False
424.868	1.45	Win2	0.6667000000000001	n/a	No	2.98	n/a	5.0	NoResponse	0	0.031	423.899	4	44	Feedback	MissedWin	False
426.322	2.98	Win2	0.6667000000000001	n/a	No	2.98	n/a	n/a	NoResponse	0	0.0	n/a	4	44	ISIslide	MissedWin	False
429.314	0.25	Control	0.6522	0.0	No	2.886	0.014	n/a	NoResponse	0	n/a	n/a	4	45	Cue	Neutral	True
429.565	4.1	Control	0.6522	0.0	No	2.886	0.001	n/a	NoResponse	0	n/a	n/a	4	45	Fixation	Neutral	True
433.661	0.29	Control	0.6522	0.003	No	2.886	-0.003	n/a	NoResponse	0	n/a	n/a	4	45	Target	Neutral	True
433.961	0.41	Control	0.6522	n/a	No	2.886	n/a	n/a	NoResponse	0	n/a	n/a	4	45	Blank	Neutral	True
434.363	1.45	Control	0.6522	n/a	No	2.886	n/a	3.0	NoResponse	0	0.021	433.384	4	45	Feedback	Neutral	True
434.384	0.3	Control	0.6522	n/a	No	2.886	n/a	3.0	NoResponse	0	0.021	n/a	4	45	ButtonPress	Neutral	True
435.817	2.886	Control	0.6522	n/a	No	2.886	n/a	n/a	NoResponse	0	0.0	n/a	4	45	ISIslide	Neutral	True
438.726	0.25	Lose2	0.6596	0.0	Yes	3.374	0.026	n/a	GoodResponse	0	n/a	n/a	4	46	Cue	AvoidedLoss	True
438.976	4.0	Lose2	0.6596	0.001	Yes	3.374	0.0	n/a	GoodResponse	0	n/a	n/a	4	46	Fixation	AvoidedLoss	True
442.972	0.3	Lose2	0.6596	0.004	Yes	3.374	-0.004	3.0	GoodResponse	0	0.234	442.206	4	46	Target	AvoidedLoss	True
443.206	0.3	Lose2	0.6596	0.004	Yes	3.374	-0.004	3.0	GoodResponse	0	0.234	n/a	4	46	ButtonPress	AvoidedLoss	True
443.273	0.4	Lose2	0.6596	n/a	Yes	3.374	n/a	n/a	GoodResponse	0	n/a	n/a	4	46	Blank	AvoidedLoss	True
443.674	1.45	Lose2	0.6596	n/a	Yes	3.374	n/a	5.0	GoodResponse	0	0.006	442.68	4	46	Feedback	AvoidedLoss	True
445.128	3.374	Lose2	0.6596	n/a	Yes	3.374	n/a	n/a	GoodResponse	0	0.0	n/a	4	46	ISIslide	AvoidedLoss	True
448.522	0.25	Lose2	0.6667000000000001	0.0	Yes	2.678	0.022	n/a	GoodResponse	0	n/a	n/a	4	47	Cue	AvoidedLoss	True
448.772	4.0	Lose2	0.6667000000000001	0.0	Yes	2.678	0.0	n/a	GoodResponse	0	n/a	n/a	4	47	Fixation	AvoidedLoss	True
452.768	0.3	Lose2	0.6667000000000001	0.004	Yes	2.678	-0.004	3.0	GoodResponse	0	0.221	451.989	4	47	Target	AvoidedLoss	True
452.989	0.3	Lose2	0.6667000000000001	0.004	Yes	2.678	-0.004	3.0	GoodResponse	0	0.221	n/a	4	47	ButtonPress	AvoidedLoss	True
453.069	0.4	Lose2	0.6667000000000001	n/a	Yes	2.678	n/a	n/a	GoodResponse	0	n/a	n/a	4	47	Blank	AvoidedLoss	True
453.47	1.45	Lose2	0.6667000000000001	n/a	Yes	2.678	n/a	5.0	GoodResponse	0	0.014	452.484	4	47	Feedback	AvoidedLoss	True
454.924	2.678	Lose2	0.6667000000000001	n/a	Yes	2.678	n/a	n/a	GoodResponse	0	0.0	n/a	4	47	ISIslide	AvoidedLoss	True
457.615	0.25	Lose2	0.6735	0.001	Yes	3.035	0.015	n/a	GoodResponse	0	n/a	n/a	4	48	Cue	AvoidedLoss	True
457.866	3.95	Lose2	0.6735	0.0	Yes	3.035	0.001	n/a	GoodResponse	0	n/a	n/a	4	48	Fixation	AvoidedLoss	True
461.811	0.29	Lose2	0.6735	0.004	Yes	3.035	-0.004	3.0	GoodResponse	0	0.22	461.031	4	48	Target	AvoidedLoss	True
462.031	0.3	Lose2	0.6735	0.004	Yes	3.035	-0.004	3.0	GoodResponse	0	0.22	n/a	4	48	ButtonPress	AvoidedLoss	True
462.112	0.41	Lose2	0.6735	n/a	Yes	3.035	n/a	n/a	GoodResponse	0	n/a	n/a	4	48	Blank	AvoidedLoss	True
462.513	1.45	Lose2	0.6735	n/a	Yes	3.035	n/a	5.0	GoodResponse	0	0.044	461.557	4	48	Feedback	AvoidedLoss	True
463.968	3.035	Lose2	0.6735	n/a	Yes	3.035	n/a	n/a	GoodResponse	0	0.0	n/a	4	48	ISIslide	AvoidedLoss	True
467.027	0.25	Control	0.68	0.0	Yes	2.873	0.027	n/a	GoodResponse	0	n/a	n/a	4	49	Cue	Neutral	True
467.278	4.0	Control	0.68	0.0	Yes	2.873	0.001	n/a	GoodResponse	0	n/a	n/a	4	49	Fixation	Neutral	True
471.273	0.28	Control	0.68	0.004	Yes	2.873	-0.004	3.0	GoodResponse	0	0.233	470.506	4	49	Target	Neutral	True
471.506	0.3	Control	0.68	0.004	Yes	2.873	-0.004	3.0	GoodResponse	0	0.233	n/a	4	49	ButtonPress	Neutral	True
471.557	0.42	Control	0.68	n/a	Yes	2.873	n/a	n/a	GoodResponse	0	n/a	n/a	4	49	Blank	Neutral	True
471.975	1.45	Control	0.68	n/a	Yes	2.873	n/a	5.0	GoodResponse	0	0.045	471.02	4	49	Feedback	Neutral	True
473.429	2.873	Control	0.68	n/a	Yes	2.873	n/a	n/a	GoodResponse	0	0.0	n/a	4	49	ISIslide	Neutral	True
476.321	0.25	Control	0.6667000000000001	0.0	No	2.779	0.021	n/a	NoResponse	0	n/a	n/a	4	50	Cue	Neutral	False
476.572	4.0	Control	0.6667000000000001	0.0	No	2.779	0.001	n/a	NoResponse	0	n/a	n/a	4	50	Fixation	Neutral	False
480.567	0.27	Control	0.6667000000000001	0.004	No	2.779	-0.004	n/a	NoResponse	0	n/a	n/a	4	50	Target	Neutral	False
480.852	0.43	Control	0.6667000000000001	n/a	No	2.779	n/a	n/a	NoResponse	0	n/a	n/a	4	50	Blank	Neutral	False
481.269	1.45	Control	0.6667000000000001	n/a	No	2.779	n/a	5.0	NoResponse	0	0.019	480.288	4	50	Feedback	Neutral	False
482.724	2.779	Control	0.6667000000000001	n/a	No	2.779	n/a	n/a	NoResponse	0	0.0	n/a	4	50	ISIslide	Neutral	False
485.515	0.25	Control	0.6537999999999999	0.001	No	2.735	0.015	n/a	LatePress	0	n/a	n/a	4	51	Cue	Neutral	True
485.766	3.95	Control	0.6537999999999999	0.0	No	2.735	0.001	n/a	LatePress	0	n/a	n/a	4	51	Fixation	Neutral	True
489.711	0.26	Control	0.6537999999999999	0.004	No	2.735	-0.004	3.0	LatePress	0	0.267	488.978	4	51	Target	Neutral	True
489.978	0.3	Control	0.6537999999999999	0.004	No	2.735	-0.004	3.0	LatePress	0	0.267	n/a	4	51	ButtonPress	Neutral	True
489.979	0.44	Control	0.6537999999999999	n/a	No	2.735	n/a	n/a	LatePress	0	n/a	n/a	4	51	Blank	Neutral	True
490.413	1.45	Control	0.6537999999999999	n/a	No	2.735	n/a	5.0	LatePress	0	0.046	489.459	4	51	Feedback	Neutral	True
491.868	2.735	Control	0.6537999999999999	n/a	No	2.735	n/a	n/a	LatePress	0	0.0	n/a	4	51	ISIslide	Neutral	True
494.626	0.25	Control	0.6604000000000001	0.0	Yes	2.624	0.026	n/a	GoodResponse	0	n/a	n/a	4	52	Cue	Neutral	True
494.877	4.05	Control	0.6604000000000001	0.0	Yes	2.624	0.001	n/a	GoodResponse	0	n/a	n/a	4	52	Fixation	Neutral	True
498.922	0.27	Control	0.6604000000000001	0.004	Yes	2.624	-0.004	3.0	GoodResponse	0	0.245	498.167	4	52	Target	Neutral	True
499.167	0.3	Control	0.6604000000000001	0.004	Yes	2.624	-0.004	3.0	GoodResponse	0	0.245	n/a	4	52	ButtonPress	Neutral	True
499.206	0.43	Control	0.6604000000000001	n/a	Yes	2.624	n/a	n/a	GoodResponse	0	n/a	n/a	4	52	Blank	Neutral	True
499.624	1.45	Control	0.6604000000000001	n/a	Yes	2.624	n/a	5.0	GoodResponse	0	0.006	498.63	4	52	Feedback	Neutral	True
501.079	2.624	Control	0.6604000000000001	n/a	Yes	2.624	n/a	n/a	GoodResponse	0	0.0	n/a	4	52	ISIslide	Neutral	True
503.72	0.25	Win2	0.6481	0.0	No	2.93	0.02	n/a	NoResponse	0	n/a	n/a	4	53	Cue	MissedWin	True
503.971	4.05	Win2	0.6481	0.0	No	2.93	0.001	n/a	NoResponse	0	n/a	n/a	4	53	Fixation	MissedWin	True
508.016	0.27	Win2	0.6481	0.004	No	2.93	-0.004	3.0	NoResponse	0	0.368	507.384	4	53	Target	MissedWin	True
508.3	0.43	Win2	0.6481	n/a	No	2.93	n/a	n/a	NoResponse	0	n/a	n/a	4	53	Blank	MissedWin	True
508.384	0.3	Win2	0.6481	0.004	No	2.93	-0.004	3.0	NoResponse	0	0.368	n/a	4	53	ButtonPress	MissedWin	True
508.718	1.45	Win2	0.6481	n/a	No	2.93	n/a	5.0	NoResponse	0	0.033	507.751	4	53	Feedback	MissedWin	True
510.172	2.93	Win2	0.6481	n/a	No	2.93	n/a	n/a	NoResponse	0	0.0	n/a	4	53	ISIslide	MissedWin	True
513.131	0.25	Win2	0.6364	0.0	No	2.719	0.031	n/a	NoResponse	0	n/a	n/a	4	54	Cue	MissedWin	False
513.382	3.95	Win2	0.6364	0.0	No	2.719	0.001	n/a	NoResponse	0	n/a	n/a	4	54	Fixation	MissedWin	False
517.327	0.28	Win2	0.6364	0.004	No	2.719	-0.004	n/a	NoResponse	0	n/a	n/a	4	54	Target	MissedWin	False
517.611	0.42	Win2	0.6364	n/a	No	2.719	n/a	n/a	NoResponse	0	n/a	n/a	4	54	Blank	MissedWin	False
518.029	1.45	Win2	0.6364	n/a	No	2.719	n/a	5.0	NoResponse	0	0.039	517.068	4	54	Feedback	MissedWin	False
519.484	2.719	Win2	0.6364	n/a	No	2.719	n/a	n/a	NoResponse	0	0.0	n/a	4	54	ISIslide	MissedWin	False
522.225	0.25	Control	0.6429	0.0	Yes	3.025	0.025	n/a	GoodResponse	0	n/a	n/a	4	55	Cue	Neutral	True
522.476	3.95	Control	0.6429	0.0	Yes	3.025	0.001	n/a	GoodResponse	0	n/a	n/a	4	55	Fixation	Neutral	True
526.421	0.29	Control	0.6429	0.004	Yes	3.025	-0.004	3.0	GoodResponse	0	0.227	525.648	4	55	Target	Neutral	True
526.648	0.3	Control	0.6429	0.004	Yes	3.025	-0.004	3.0	GoodResponse	0	0.227	n/a	4	55	ButtonPress	Neutral	True
526.722	0.41	Control	0.6429	n/a	Yes	3.025	n/a	n/a	GoodResponse	0	n/a	n/a	4	55	Blank	Neutral	True
527.123	1.45	Control	0.6429	n/a	Yes	3.025	n/a	5.0	GoodResponse	0	0.018	526.141	4	55	Feedback	Neutral	True
528.577	3.025	Control	0.6429	n/a	Yes	3.025	n/a	n/a	GoodResponse	0	0.0	n/a	4	55	ISIslide	Neutral	True
531.62	0.25	Control	0.6315999999999999	0.0	No	2.83	0.02	n/a	NoResponse	0	n/a	n/a	4	56	Cue	Neutral	False
531.871	3.95	Control	0.6315999999999999	0.0	No	2.83	0.001	n/a	NoResponse	0	n/a	n/a	4	56	Fixation	Neutral	False
535.816	0.3	Control	0.6315999999999999	0.004	No	2.83	-0.004	n/a	NoResponse	0	n/a	n/a	4	56	Target	Neutral	False
536.117	0.4	Control	0.6315999999999999	n/a	No	2.83	n/a	n/a	NoResponse	0	n/a	n/a	4	56	Blank	Neutral	False
536.518	1.45	Control	0.6315999999999999	n/a	No	2.83	n/a	5.0	NoResponse	0	0.038	535.556	4	56	Feedback	Neutral	False
537.972	2.83	Control	0.6315999999999999	n/a	No	2.83	n/a	n/a	NoResponse	0	0.0	n/a	4	56	ISIslide	Neutral	False
540.814	0.25	Control	0.6379	0.0	Yes	3.486	0.014	n/a	GoodResponse	0	n/a	n/a	4	57	Cue	Neutral	True
541.065	4.0	Control	0.6379	0.0	Yes	3.486	0.001	n/a	GoodResponse	0	n/a	n/a	4	57	Fixation	Neutral	True
545.06	0.31	Control	0.6379	0.004	Yes	3.486	-0.004	3.0	GoodResponse	0	0.237	544.297	4	57	Target	Neutral	True
545.297	0.3	Control	0.6379	0.004	Yes	3.486	-0.004	3.0	GoodResponse	0	0.237	n/a	4	57	ButtonPress	Neutral	True
545.378	0.39	Control	0.6379	n/a	Yes	3.486	n/a	n/a	GoodResponse	0	n/a	n/a	4	57	Blank	Neutral	True
545.762	1.45	Control	0.6379	n/a	Yes	3.486	n/a	5.0	GoodResponse	0	0.013	544.775	4	57	Feedback	Neutral	True
547.216	3.486	Control	0.6379	n/a	Yes	3.486	n/a	n/a	GoodResponse	0	0.0	n/a	4	57	ISIslide	Neutral	True
550.727	0.25	Win2	0.6441	0.0	Yes	2.723	0.027	n/a	GoodResponse	1	n/a	n/a	5	58	Cue	Win	True
550.978	4.05	Win2	0.6441	0.0	Yes	2.723	0.001	n/a	GoodResponse	1	n/a	n/a	5	58	Fixation	Win	True
555.023	0.32	Win2	0.6441	0.004	Yes	2.723	-0.004	3.0	GoodResponse	1	0.3	554.323	5	58	Target	Win	True
555.323	0.3	Win2	0.6441	0.004	Yes	2.723	-0.004	3.0	GoodResponse	1	0.3	n/a	5	58	ButtonPress	Win	True
555.357	0.38	Win2	0.6441	n/a	Yes	2.723	n/a	n/a	GoodResponse	1	n/a	n/a	5	58	Blank	Win	True
555.725	1.45	Win2	0.6441	n/a	Yes	2.723	n/a	5.0	GoodResponse	1	0.001	554.726	5	58	Feedback	Win	True
557.179	2.723	Win2	0.6441	n/a	Yes	2.723	n/a	n/a	GoodResponse	1	0.0	n/a	5	58	ISIslide	Win	True
559.921	0.25	Lose2	0.65	0.0	Yes	2.679	0.021	n/a	GoodResponse	0	n/a	n/a	5	59	Cue	AvoidedLoss	True
560.172	4.0	Lose2	0.65	0.0	Yes	2.679	0.001	n/a	GoodResponse	0	n/a	n/a	5	59	Fixation	AvoidedLoss	True
564.167	0.33	Lose2	0.65	0.004	Yes	2.679	-0.004	3.0	GoodResponse	0	0.249	563.416	5	59	Target	AvoidedLoss	True
564.416	0.3	Lose2	0.65	0.004	Yes	2.679	-0.004	3.0	GoodResponse	0	0.249	n/a	5	59	ButtonPress	AvoidedLoss	True
564.501	0.37	Lose2	0.65	n/a	Yes	2.679	n/a	n/a	GoodResponse	0	n/a	n/a	5	59	Blank	AvoidedLoss	True
564.869	1.45	Lose2	0.65	n/a	Yes	2.679	n/a	5.0	GoodResponse	0	0.028	563.897	5	59	Feedback	AvoidedLoss	True
566.323	2.679	Lose2	0.65	n/a	Yes	2.679	n/a	n/a	GoodResponse	0	0.0	n/a	5	59	ISIslide	AvoidedLoss	True
569.015	0.25	Control	0.6393	0.0	No	2.685	0.015	n/a	NoResponse	0	n/a	n/a	5	60	Cue	Neutral	False
569.266	4.0	Control	0.6393	0.0	No	2.685	0.001	n/a	NoResponse	0	n/a	n/a	5	60	Fixation	Neutral	False
573.261	0.34	Control	0.6393	0.004	No	2.685	-0.004	n/a	NoResponse	0	n/a	n/a	5	60	Target	Neutral	False
573.612	0.36	Control	0.6393	n/a	No	2.685	n/a	n/a	NoResponse	0	n/a	n/a	5	60	Blank	Neutral	False
573.963	1.45	Control	0.6393	n/a	No	2.685	n/a	5.0	NoResponse	0	0.007	572.97	5	60	Feedback	Neutral	False
575.417	2.685	Control	0.6393	n/a	No	2.685	n/a	n/a	NoResponse	0	0.0	n/a	5	60	ISIslide	Neutral	False
578.125	0.25	Lose2	0.6452	0.0	Yes	2.975	0.025	n/a	GoodResponse	0	n/a	n/a	5	61	Cue	AvoidedLoss	True
578.376	4.0	Lose2	0.6452	0.0	Yes	2.975	0.001	n/a	GoodResponse	0	n/a	n/a	5	61	Fixation	AvoidedLoss	True
582.371	0.35	Lose2	0.6452	0.004	Yes	2.975	-0.004	3.0	GoodResponse	0	0.282	581.653	5	61	Target	AvoidedLoss	True
582.653	0.3	Lose2	0.6452	0.004	Yes	2.975	-0.004	3.0	GoodResponse	0	0.282	n/a	5	61	ButtonPress	AvoidedLoss	True
582.722	0.35	Lose2	0.6452	n/a	Yes	2.975	n/a	n/a	GoodResponse	0	n/a	n/a	5	61	Blank	AvoidedLoss	True
583.073	1.45	Lose2	0.6452	n/a	Yes	2.975	n/a	5.0	GoodResponse	0	0.018	582.091	5	61	Feedback	AvoidedLoss	True
584.528	2.975	Lose2	0.6452	n/a	Yes	2.975	n/a	n/a	GoodResponse	0	0.0	n/a	5	61	ISIslide	AvoidedLoss	True
587.52	0.25	Lose2	0.6349	0.0	No	2.88	0.02	n/a	NoResponse	-1	n/a	n/a	4	62	Cue	Loss	True
587.771	3.9	Lose2	0.6349	0.0	No	2.88	0.001	n/a	NoResponse	-1	n/a	n/a	4	62	Fixation	Loss	True
591.666	0.36	Lose2	0.6349	0.004	No	2.88	-0.004	3.0	NoResponse	-1	0.54	591.206	4	62	Target	Loss	True
592.034	0.34	Lose2	0.6349	n/a	No	2.88	n/a	n/a	NoResponse	-1	n/a	n/a	4	62	Blank	Loss	True
592.206	0.3	Lose2	0.6349	0.004	No	2.88	-0.004	3.0	NoResponse	-1	0.54	n/a	4	62	ButtonPress	Loss	True
592.368	1.45	Lose2	0.6349	n/a	No	2.88	n/a	5.0	NoResponse	-1	0.04	591.408	4	62	Feedback	Loss	True
593.822	2.88	Lose2	0.6349	n/a	No	2.88	n/a	n/a	NoResponse	-1	0.0	n/a	4	62	ISIslide	Loss	True
596.731	0.25	Lose2	0.625	0.0	No	2.619	0.031	n/a	NoResponse	-1	n/a	n/a	3	63	Cue	Loss	False
596.982	4.05	Lose2	0.625	0.0	No	2.619	0.001	n/a	NoResponse	-1	n/a	n/a	3	63	Fixation	Loss	False
601.027	0.37	Lose2	0.625	0.004	No	2.619	-0.004	n/a	NoResponse	-1	n/a	n/a	3	63	Target	Loss	False
601.412	0.33	Lose2	0.625	n/a	No	2.619	n/a	n/a	NoResponse	-1	n/a	n/a	3	63	Blank	Loss	False
601.729	1.45	Lose2	0.625	n/a	No	2.619	n/a	5.0	NoResponse	-1	0.045	600.774	3	63	Feedback	Loss	False
603.184	2.619	Lose2	0.625	n/a	No	2.619	n/a	n/a	NoResponse	-1	0.0	n/a	3	63	ISIslide	Loss	False
605.825	0.25	Win2	0.6308	0.0	Yes	3.125	0.025	n/a	GoodResponse	1	n/a	n/a	4	64	Cue	Win	True
606.076	4.15	Win2	0.6308	0.0	Yes	3.125	0.001	n/a	GoodResponse	1	n/a	n/a	4	64	Fixation	Win	True
610.221	0.38	Win2	0.6308	0.004	Yes	3.125	-0.004	3.0	GoodResponse	1	0.224	609.445	4	64	Target	Win	True
610.445	0.3	Win2	0.6308	0.004	Yes	3.125	-0.004	3.0	GoodResponse	1	0.224	n/a	4	64	ButtonPress	Win	True
610.606	0.32	Win2	0.6308	n/a	Yes	3.125	n/a	n/a	GoodResponse	1	n/a	n/a	4	64	Blank	Win	True
610.923	1.45	Win2	0.6308	n/a	Yes	3.125	n/a	5.0	GoodResponse	1	0.022	609.945	4	64	Feedback	Win	True
612.378	3.125	Win2	0.6308	n/a	Yes	3.125	n/a	n/a	GoodResponse	1	0.0	n/a	4	64	ISIslide	Win	True
615.52	0.25	Control	0.6364	0.0	Yes	2.78	0.02	n/a	GoodResponse	0	n/a	n/a	4	65	Cue	Neutral	True
615.771	4.0	Control	0.6364	0.0	Yes	2.78	0.001	n/a	GoodResponse	0	n/a	n/a	4	65	Fixation	Neutral	True
619.766	0.39	Control	0.6364	0.004	Yes	2.78	-0.004	3.0	GoodResponse	0	0.204	618.97	4	65	Target	Neutral	True
619.97	0.3	Control	0.6364	0.004	Yes	2.78	-0.004	3.0	GoodResponse	0	0.204	n/a	4	65	ButtonPress	Neutral	True
620.168	0.31	Control	0.6364	n/a	Yes	2.78	n/a	n/a	GoodResponse	0	n/a	n/a	4	65	Blank	Neutral	True
620.469	1.45	Control	0.6364	n/a	Yes	2.78	n/a	5.0	GoodResponse	0	0.036	619.505	4	65	Feedback	Neutral	True
621.923	2.78	Control	0.6364	n/a	Yes	2.78	n/a	n/a	GoodResponse	0	0.0	n/a	4	65	ISIslide	Neutral	True
624.715	0.25	Win2	0.6269	0.0	No	2.785	0.015	n/a	NoResponse	0	n/a	n/a	4	66	Cue	MissedWin	False
624.965	3.9	Win2	0.6269	0.0	No	2.785	0.0	n/a	NoResponse	0	n/a	n/a	4	66	Fixation	MissedWin	False
628.877	0.4	Win2	0.6269	0.0	No	2.785	0.012	n/a	NoResponse	0	n/a	n/a	4	66	Target	MissedWin	False
629.261	0.3	Win2	0.6269	n/a	No	2.785	n/a	n/a	NoResponse	0	n/a	n/a	4	66	Blank	MissedWin	False
629.562	1.45	Win2	0.6269	n/a	No	2.785	n/a	5.0	NoResponse	0	0.017	628.579	4	66	Feedback	MissedWin	False
631.017	2.785	Win2	0.6269	n/a	No	2.785	n/a	n/a	NoResponse	0	0.0	n/a	4	66	ISIslide	MissedWin	False
633.825	0.25	Control	0.6324000000000001	0.0	Yes	2.725	0.025	n/a	GoodResponse	0	n/a	n/a	4	67	Cue	Neutral	True
634.076	3.95	Control	0.6324000000000001	0.0	Yes	2.725	0.001	n/a	GoodResponse	0	n/a	n/a	4	67	Fixation	Neutral	True
638.021	0.41	Control	0.6324000000000001	0.004	Yes	2.725	-0.004	3.0	GoodResponse	0	0.294	637.315	4	67	Target	Neutral	True
638.315	0.3	Control	0.6324000000000001	0.004	Yes	2.725	-0.004	3.0	GoodResponse	0	0.294	n/a	4	67	ButtonPress	Neutral	True
638.439	0.29	Control	0.6324000000000001	n/a	Yes	2.725	n/a	n/a	GoodResponse	0	n/a	n/a	4	67	Blank	Neutral	True
638.723	1.45	Control	0.6324000000000001	n/a	Yes	2.725	n/a	5.0	GoodResponse	0	0.026	637.749	4	67	Feedback	Neutral	True
640.177	2.725	Control	0.6324000000000001	n/a	Yes	2.725	n/a	n/a	GoodResponse	0	0.0	n/a	4	67	ISIslide	Neutral	True
642.919	0.25	Win2	0.6377	0.0	Yes	3.081	0.019	n/a	GoodResponse	1	n/a	n/a	5	68	Cue	Win	True
643.17	4.0	Win2	0.6377	0.0	Yes	3.081	0.001	n/a	GoodResponse	1	n/a	n/a	5	68	Fixation	Win	True
647.165	0.42	Win2	0.6377	0.004	Yes	3.081	-0.004	3.0	GoodResponse	1	0.205	646.37	5	68	Target	Win	True
647.37	0.3	Win2	0.6377	0.004	Yes	3.081	-0.004	3.0	GoodResponse	1	0.205	n/a	5	68	ButtonPress	Win	True
647.6	0.28	Win2	0.6377	n/a	Yes	3.081	n/a	n/a	GoodResponse	1	n/a	n/a	5	68	Blank	Win	True
647.867	1.45	Win2	0.6377	n/a	Yes	3.081	n/a	5.0	GoodResponse	1	0.005	646.872	5	68	Feedback	Win	True
649.321	3.081	Win2	0.6377	n/a	Yes	3.081	n/a	n/a	GoodResponse	1	0.0	n/a	5	68	ISIslide	Win	True
652.431	0.25	Win2	0.6286	0.0	No	3.219	0.031	n/a	NoResponse	0	n/a	n/a	5	69	Cue	MissedWin	True
652.681	3.95	Win2	0.6286	0.0	No	3.219	0.0	n/a	NoResponse	0	n/a	n/a	5	69	Fixation	MissedWin	True
656.626	0.43	Win2	0.6286	0.005	No	3.219	-0.005	3.0	NoResponse	0	0.442	656.068	5	69	Target	MissedWin	True
657.061	0.27	Win2	0.6286	n/a	No	3.219	n/a	n/a	NoResponse	0	n/a	n/a	5	69	Blank	MissedWin	True
657.068	0.3	Win2	0.6286	0.005	No	3.219	-0.005	3.0	NoResponse	0	0.442	n/a	5	69	ButtonPress	MissedWin	True
657.329	1.45	Win2	0.6286	n/a	No	3.219	n/a	5.0	NoResponse	0	0.006	656.335	5	69	Feedback	MissedWin	True
658.783	3.219	Win2	0.6286	n/a	No	3.219	n/a	n/a	NoResponse	0	0.0	n/a	5	69	ISIslide	MissedWin	True
662.026	0.25	Lose2	0.6338	0.0	Yes	3.024	0.026	n/a	GoodResponse	0	n/a	n/a	5	70	Cue	AvoidedLoss	True
662.277	4.05	Lose2	0.6338	0.0	Yes	3.024	0.001	n/a	GoodResponse	0	n/a	n/a	5	70	Fixation	AvoidedLoss	True
666.322	0.44	Lose2	0.6338	0.004	Yes	3.024	-0.004	3.0	GoodResponse	0	0.301	665.623	5	70	Target	AvoidedLoss	True
666.623	0.3	Lose2	0.6338	0.004	Yes	3.024	-0.004	3.0	GoodResponse	0	0.301	n/a	5	70	ButtonPress	AvoidedLoss	True
666.773	0.26	Lose2	0.6338	n/a	Yes	3.024	n/a	n/a	GoodResponse	0	n/a	n/a	5	70	Blank	AvoidedLoss	True
667.024	1.45	Lose2	0.6338	n/a	Yes	3.024	n/a	5.0	GoodResponse	0	0.017	666.041	5	70	Feedback	AvoidedLoss	True
668.479	3.024	Lose2	0.6338	n/a	Yes	3.024	n/a	n/a	GoodResponse	0	0.0	n/a	5	70	ISIslide	AvoidedLoss	True
671.521	0.25	Win2	0.6389	0.0	Yes	2.729	0.021	n/a	GoodResponse	1	n/a	n/a	6	71	Cue	Win	True
671.772	4.05	Win2	0.6389	0.0	Yes	2.729	0.001	n/a	GoodResponse	1	n/a	n/a	6	71	Fixation	Win	True
675.817	0.45	Win2	0.6389	0.004	Yes	2.729	-0.004	3.0	GoodResponse	1	0.235	675.052	6	71	Target	Win	True
676.052	0.3	Win2	0.6389	0.004	Yes	2.729	-0.004	3.0	GoodResponse	1	0.235	n/a	6	71	ButtonPress	Win	True
676.268	0.25	Win2	0.6389	n/a	Yes	2.729	n/a	n/a	GoodResponse	1	n/a	n/a	6	71	Blank	Win	True
676.519	1.45	Win2	0.6389	n/a	Yes	2.729	n/a	5.0	GoodResponse	1	0.035	675.554	6	71	Feedback	Win	True
677.974	2.729	Win2	0.6389	n/a	Yes	2.729	n/a	n/a	GoodResponse	1	0.0	n/a	6	71	ISIslide	Win	True
680.715	0.25	Win2	0.6437999999999999	0.0	Yes	2.785	0.015	n/a	GoodResponse	1	n/a	n/a	7	72	Cue	Win	True
680.966	4.1	Win2	0.6437999999999999	0.0	Yes	2.785	0.001	n/a	GoodResponse	1	n/a	n/a	7	72	Fixation	Win	True
685.061	0.46	Win2	0.6437999999999999	0.004	Yes	2.785	-0.004	3.0	GoodResponse	1	0.23	684.291	7	72	Target	Win	True
685.291	0.3	Win2	0.6437999999999999	0.004	Yes	2.785	-0.004	3.0	GoodResponse	1	0.23	n/a	7	72	ButtonPress	Win	True
685.529	0.24	Win2	0.6437999999999999	n/a	Yes	2.785	n/a	n/a	GoodResponse	1	n/a	n/a	7	72	Blank	Win	True
685.764	1.45	Win2	0.6437999999999999	n/a	Yes	2.785	n/a	5.0	GoodResponse	1	0.009	684.773	7	72	Feedback	Win	True
687.218	2.785	Win2	0.6437999999999999	n/a	Yes	2.785	n/a	n/a	GoodResponse	1	0.0	n/a	7	72	ISIslide	Win	True
690.026	0.25	Win2	0.6486	0.0	Yes	2.674	0.026	n/a	GoodResponse	1	n/a	n/a	8	73	Cue	Win	True
690.277	4.0	Win2	0.6486	0.0	Yes	2.674	0.001	n/a	GoodResponse	1	n/a	n/a	8	73	Fixation	Win	True
694.272	0.47	Win2	0.6486	0.004	Yes	2.674	-0.004	3.0	GoodResponse	1	0.221	693.493	8	73	Target	Win	True
694.493	0.3	Win2	0.6486	0.004	Yes	2.674	-0.004	3.0	GoodResponse	1	0.221	n/a	8	73	ButtonPress	Win	True
694.757	0.23	Win2	0.6486	n/a	Yes	2.674	n/a	n/a	GoodResponse	1	n/a	n/a	8	73	Blank	Win	True
694.974	1.45	Win2	0.6486	n/a	Yes	2.674	n/a	5.0	GoodResponse	1	0.018	693.992	8	73	Feedback	Win	True
696.429	2.674	Win2	0.6486	n/a	Yes	2.674	n/a	n/a	GoodResponse	1	0.0	n/a	8	73	ISIslide	Win	True
699.12	0.25	Lose2	0.6533	0.0	Yes	2.63	0.02	n/a	GoodResponse	0	n/a	n/a	8	74	Cue	AvoidedLoss	True
699.371	4.05	Lose2	0.6533	0.0	Yes	2.63	0.001	n/a	GoodResponse	0	n/a	n/a	8	74	Fixation	AvoidedLoss	True
703.416	0.48	Lose2	0.6533	0.004	Yes	2.63	-0.004	3.0	GoodResponse	0	0.241	702.657	8	74	Target	AvoidedLoss	True
703.657	0.3	Lose2	0.6533	0.004	Yes	2.63	-0.004	3.0	GoodResponse	0	0.241	n/a	8	74	ButtonPress	AvoidedLoss	True
703.901	0.22	Lose2	0.6533	n/a	Yes	2.63	n/a	n/a	GoodResponse	0	n/a	n/a	8	74	Blank	AvoidedLoss	True
704.118	1.45	Lose2	0.6533	n/a	Yes	2.63	n/a	5.0	GoodResponse	0	0.045	703.163	8	74	Feedback	AvoidedLoss	True
705.573	2.63	Lose2	0.6533	n/a	Yes	2.63	n/a	n/a	GoodResponse	0	0.0	n/a	8	74	ISIslide	AvoidedLoss	True
708.214	0.25	Lose2	0.6579	0.0	Yes	2.936	0.014	n/a	GoodResponse	0	n/a	n/a	8	75	Cue	AvoidedLoss	True
708.465	3.95	Lose2	0.6579	0.0	Yes	2.936	0.001	n/a	GoodResponse	0	n/a	n/a	8	75	Fixation	AvoidedLoss	True
712.41	0.49	Lose2	0.6579	0.004	Yes	2.936	-0.004	3.0	GoodResponse	0	0.253	711.663	8	75	Target	AvoidedLoss	True
712.663	0.3	Lose2	0.6579	0.004	Yes	2.936	-0.004	3.0	GoodResponse	0	0.253	n/a	8	75	ButtonPress	AvoidedLoss	True
712.911	0.21	Lose2	0.6579	n/a	Yes	2.936	n/a	n/a	GoodResponse	0	n/a	n/a	8	75	Blank	AvoidedLoss	True
713.112	1.45	Lose2	0.6579	n/a	Yes	2.936	n/a	5.0	GoodResponse	0	0.027	712.139	8	75	Feedback	AvoidedLoss	True
714.566	2.936	Lose2	0.6579	n/a	Yes	2.936	n/a	n/a	GoodResponse	0	0.0	n/a	8	75	ISIslide	AvoidedLoss	True
717.525	0.25	Control	0.6623	0.0	Yes	3.225	0.025	n/a	GoodResponse	0	n/a	n/a	8	76	Cue	Neutral	True
717.776	4.05	Control	0.6623	0.0	Yes	3.225	0.001	n/a	GoodResponse	0	n/a	n/a	8	76	Fixation	Neutral	True
721.821	0.49	Control	0.6623	0.004	Yes	3.225	-0.004	3.0	GoodResponse	0	0.238	721.059	8	76	Target	Neutral	True
722.059	0.3	Control	0.6623	0.004	Yes	3.225	-0.004	3.0	GoodResponse	0	0.238	n/a	8	76	ButtonPress	Neutral	True
722.323	0.21	Control	0.6623	n/a	Yes	3.225	n/a	n/a	GoodResponse	0	n/a	n/a	8	76	Blank	Neutral	True
722.523	1.45	Control	0.6623	n/a	Yes	3.225	n/a	5.0	GoodResponse	0	0.03	721.553	8	76	Feedback	Neutral	True
723.978	3.225	Control	0.6623	n/a	Yes	3.225	n/a	n/a	GoodResponse	0	0.0	n/a	8	76	ISIslide	Neutral	True
727.221	0.25	Lose2	0.6667000000000001	0.0	Yes	2.579	0.021	n/a	GoodResponse	0	n/a	n/a	8	77	Cue	AvoidedLoss	True
727.471	3.95	Lose2	0.6667000000000001	0.0	Yes	2.579	0.0	n/a	GoodResponse	0	n/a	n/a	8	77	Fixation	AvoidedLoss	True
731.417	0.49	Lose2	0.6667000000000001	0.004	Yes	2.579	-0.004	3.0	GoodResponse	0	0.188	730.605	8	77	Target	AvoidedLoss	True
731.605	0.3	Lose2	0.6667000000000001	0.004	Yes	2.579	-0.004	3.0	GoodResponse	0	0.188	n/a	8	77	ButtonPress	AvoidedLoss	True
731.918	0.21	Lose2	0.6667000000000001	n/a	Yes	2.579	n/a	n/a	GoodResponse	0	n/a	n/a	8	77	Blank	AvoidedLoss	True
732.119	1.45	Lose2	0.6667000000000001	n/a	Yes	2.579	n/a	5.0	GoodResponse	0	0.043	731.162	8	77	Feedback	AvoidedLoss	True
733.573	2.579	Lose2	0.6667000000000001	n/a	Yes	2.579	n/a	n/a	GoodResponse	0	0.0	n/a	8	77	ISIslide	AvoidedLoss	True
