onset	duration	cue_type	current_mean_accuracy	duration_error	is_hit	isi_adjusted	onset_delay	response	response_type	reward	rt	rt_time	total_reward	trial_number	trial_phase	trial_type	one_press
11.103	0.25	Control	1.0	0.0	Yes	2.947	0.003	n/a	GoodResponse	0	n/a	n/a	0	0	Cue	Neutral	True
11.354	3.85	Control	1.0	0.0	Yes	2.947	0.001	n/a	GoodResponse	0	n/a	n/a	0	0	Fixation	Neutral	True
15.199	0.4	Control	1.0	0.004	Yes	2.947	-0.004	2.0	GoodResponse	0	0.238	14.437	0	0	Target	Neutral	True
15.437	0.3	Control	1.0	0.004	Yes	2.947	-0.004	2.0	GoodResponse	0	0.238	n/a	0	0	ButtonPress	Neutral	True
15.6	0.3	Control	1.0	n/a	Yes	2.947	n/a	n/a	GoodResponse	0	n/a	n/a	0	0	Blank	Neutral	True
15.901	1.45	Control	1.0	n/a	Yes	2.947	n/a	5.0	GoodResponse	0	0.026	14.927	0	0	Feedback	Neutral	True
17.355	2.947	Control	1.0	n/a	Yes	2.947	n/a	n/a	GoodResponse	0	0.0	n/a	0	0	ISIslide	Neutral	True
20.314	0.25	Lose2	1.0	0.0	Yes	2.786	0.014	n/a	GoodResponse	0	n/a	n/a	0	1	Cue	AvoidedLoss	True
20.565	4.0	Lose2	1.0	0.0	Yes	2.786	0.001	n/a	GoodResponse	0	n/a	n/a	0	1	Fixation	AvoidedLoss	True
24.56	0.39	Lose2	1.0	0.004	Yes	2.786	-0.004	2.0	GoodResponse	0	0.246	23.806	0	1	Target	AvoidedLoss	True
24.806	0.3	Lose2	1.0	0.004	Yes	2.786	-0.004	2.0	GoodResponse	0	0.246	n/a	0	1	ButtonPress	AvoidedLoss	True
24.961	0.31	Lose2	1.0	n/a	Yes	2.786	n/a	n/a	GoodResponse	0	n/a	n/a	0	1	Blank	AvoidedLoss	True
25.262	1.45	Lose2	1.0	n/a	Yes	2.786	n/a	5.0	GoodResponse	0	0.03	24.292	0	1	Feedback	AvoidedLoss	True
26.717	2.786	Lose2	1.0	n/a	Yes	2.786	n/a	n/a	GoodResponse	0	0.0	n/a	0	1	ISIslide	AvoidedLoss	True
29.525	0.25	Control	1.0	0.0	Yes	2.575	0.025	n/a	GoodResponse	0	n/a	n/a	0	2	Cue	Neutral	True
29.776	4.1	Control	1.0	0.0	Yes	2.575	0.001	n/a	GoodResponse	0	n/a	n/a	0	2	Fixation	Neutral	True
33.871	0.38	Control	1.0	0.004	Yes	2.575	-0.004	2.0	GoodResponse	0	0.243	33.114	0	2	Target	Neutral	True
34.114	0.3	Control	1.0	0.004	Yes	2.575	-0.004	2.0	GoodResponse	0	0.243	n/a	0	2	ButtonPress	Neutral	True
34.256	0.32	Control	1.0	n/a	Yes	2.575	n/a	n/a	GoodResponse	0	n/a	n/a	0	2	Blank	Neutral	True
34.573	1.45	Control	1.0	n/a	Yes	2.575	n/a	5.0	GoodResponse	0	0.036	33.609	0	2	Feedback	Neutral	True
36.028	2.575	Control	1.0	n/a	Yes	2.575	n/a	n/a	GoodResponse	0	0.0	n/a	0	2	ISIslide	Neutral	True
38.619	0.25	Win2	1.0	0.0	Yes	2.831	0.019	n/a	GoodResponse	1	n/a	n/a	1	3	Cue	Win	True
38.869	3.95	Win2	1.0	0.001	Yes	2.831	0.0	n/a	GoodResponse	1	n/a	n/a	1	3	Fixation	Win	True
42.815	0.37	Win2	1.0	0.004	Yes	2.831	-0.004	2.0	GoodResponse	1	0.198	42.013	1	3	Target	Win	True
43.013	0.3	Win2	1.0	0.004	Yes	2.831	-0.004	2.0	GoodResponse	1	0.198	n/a	1	3	ButtonPress	Win	True
43.199	0.33	Win2	1.0	n/a	Yes	2.831	n/a	n/a	GoodResponse	1	n/a	n/a	1	3	Blank	Win	True
43.517	1.45	Win2	1.0	n/a	Yes	2.831	n/a	5.0	GoodResponse	1	0.019	42.536	1	3	Feedback	Win	True
44.971	2.831	Win2	1.0	n/a	Yes	2.831	n/a	n/a	GoodResponse	1	0.0	n/a	1	3	ISIslide	Win	True
47.83	0.25	Win2	1.0	0.0	Yes	3.27	0.03	n/a	GoodResponse	1	n/a	n/a	2	4	Cue	Win	True
48.08	4.0	Win2	1.0	0.0	Yes	3.27	0.0	n/a	GoodResponse	1	n/a	n/a	2	4	Fixation	Win	True
52.076	0.36	Win2	1.0	0.004	Yes	3.27	-0.004	2.0	GoodResponse	1	0.227	51.303	2	4	Target	Win	True
52.303	0.3	Win2	1.0	0.004	Yes	3.27	-0.004	2.0	GoodResponse	1	0.227	n/a	2	4	ButtonPress	Win	True
52.443	0.34	Win2	1.0	n/a	Yes	3.27	n/a	n/a	GoodResponse	1	n/a	n/a	2	4	Blank	Win	True
52.778	1.45	Win2	1.0	n/a	Yes	3.27	n/a	5.0	GoodResponse	1	0.025	51.803	2	4	Feedback	Win	True
54.232	3.27	Win2	1.0	n/a	Yes	3.27	n/a	n/a	GoodResponse	1	0.0	n/a	2	4	ISIslide	Win	True
57.525	0.25	Win2	1.0	0.0	Yes	2.775	0.025	n/a	GoodResponse	1	n/a	n/a	3	5	Cue	Win	True
57.776	4.0	Win2	1.0	0.0	Yes	2.775	0.001	n/a	GoodResponse	1	n/a	n/a	3	5	Fixation	Win	True
61.771	0.35	Win2	1.0	0.004	Yes	2.775	-0.004	2.0	GoodResponse	1	0.219	60.99	3	5	Target	Win	True
61.99	0.3	Win2	1.0	0.004	Yes	2.775	-0.004	2.0	GoodResponse	1	0.219	n/a	3	5	ButtonPress	Win	True
62.122	0.35	Win2	1.0	n/a	Yes	2.775	n/a	n/a	GoodResponse	1	n/a	n/a	3	5	Blank	Win	True
62.473	1.45	Win2	1.0	n/a	Yes	2.775	n/a	5.0	GoodResponse	1	0.038	61.511	3	5	Feedback	Win	True
63.928	2.775	Win2	1.0	n/a	Yes	2.775	n/a	n/a	GoodResponse	1	0.0	n/a	3	5	ISIslide	Win	True
66.719	0.25	Lose2	1.0	0.0	Yes	2.731	0.019	n/a	GoodResponse	0	n/a	n/a	3	6	Cue	AvoidedLoss	True
66.97	3.95	Lose2	1.0	0.0	Yes	2.731	0.001	n/a	GoodResponse	0	n/a	n/a	3	6	Fixation	AvoidedLoss	True
70.915	0.34	Lose2	1.0	0.004	Yes	2.731	-0.004	2.0	GoodResponse	0	0.23	70.145	3	6	Target	AvoidedLoss	True
71.145	0.3	Lose2	1.0	0.004	Yes	2.731	-0.004	2.0	GoodResponse	0	0.23	n/a	3	6	ButtonPress	AvoidedLoss	True
71.266	0.36	Lose2	1.0	n/a	Yes	2.731	n/a	n/a	GoodResponse	0	n/a	n/a	3	6	Blank	AvoidedLoss	True
71.617	1.45	Lose2	1.0	n/a	Yes	2.731	n/a	5.0	GoodResponse	0	0.016	70.633	3	6	Feedback	AvoidedLoss	True
73.072	2.731	Lose2	1.0	n/a	Yes	2.731	n/a	n/a	GoodResponse	0	0.0	n/a	3	6	ISIslide	AvoidedLoss	True
75.83	0.25	Lose2	1.0	0.0	Yes	4.02	0.03	n/a	GoodResponse	0	n/a	n/a	3	7	Cue	AvoidedLoss	True
76.08	4.05	Lose2	1.0	0.001	Yes	4.02	0.0	n/a	GoodResponse	0	n/a	n/a	3	7	Fixation	AvoidedLoss	True
80.126	0.33	Lose2	1.0	0.004	Yes	4.02	-0.004	2.0	GoodResponse	0	0.197	79.323	3	7	Target	AvoidedLoss	True
80.323	0.3	Lose2	1.0	0.004	Yes	4.02	-0.004	2.0	GoodResponse	0	0.197	n/a	3	7	ButtonPress	AvoidedLoss	True
80.46	0.37	Lose2	1.0	n/a	Yes	4.02	n/a	n/a	GoodResponse	0	n/a	n/a	3	7	Blank	AvoidedLoss	True
80.828	1.45	Lose2	1.0	n/a	Yes	4.02	n/a	5.0	GoodResponse	0	0.024	79.852	3	7	Feedback	AvoidedLoss	True
82.282	4.02	Lose2	1.0	n/a	Yes	4.02	n/a	n/a	GoodResponse	0	0.0	n/a	3	7	ISIslide	AvoidedLoss	True
86.328	0.25	Lose2	1.0	0.0	Yes	3.022	0.028	n/a	GoodResponse	0	n/a	n/a	3	8	Cue	AvoidedLoss	True
86.578	3.95	Lose2	1.0	0.001	Yes	3.022	0.0	n/a	GoodResponse	0	n/a	n/a	3	8	Fixation	AvoidedLoss	True
90.524	0.32	Lose2	1.0	0.004	Yes	3.022	-0.004	2.0	GoodResponse	0	0.251	89.775	3	8	Target	AvoidedLoss	True
90.775	0.3	Lose2	1.0	0.004	Yes	3.022	-0.004	2.0	GoodResponse	0	0.251	n/a	3	8	ButtonPress	AvoidedLoss	True
90.858	0.38	Lose2	1.0	n/a	Yes	3.022	n/a	n/a	GoodResponse	0	n/a	n/a	3	8	Blank	AvoidedLoss	True
91.226	1.45	Lose2	1.0	n/a	Yes	3.022	n/a	5.0	GoodResponse	0	0.016	90.242	3	8	Feedback	AvoidedLoss	True
92.68	3.022	Lose2	1.0	n/a	Yes	3.022	n/a	n/a	GoodResponse	0	0.0	n/a	3	8	ISIslide	AvoidedLoss	True
95.722	0.25	Lose2	1.0	0.0	Yes	3.128	0.022	n/a	GoodResponse	0	n/a	n/a	3	9	Cue	AvoidedLoss	True
95.973	3.95	Lose2	1.0	0.0	Yes	3.128	0.001	n/a	GoodResponse	0	n/a	n/a	3	9	Fixation	AvoidedLoss	True
99.918	0.31	Lose2	1.0	0.004	Yes	3.128	-0.004	2.0	GoodResponse	0	0.226	99.144	3	9	Target	AvoidedLoss	True
100.144	0.3	Lose2	1.0	0.004	Yes	3.128	-0.004	2.0	GoodResponse	0	0.226	n/a	3	9	ButtonPress	AvoidedLoss	True
100.236	0.39	Lose2	1.0	n/a	Yes	3.128	n/a	n/a	GoodResponse	0	n/a	n/a	3	9	Blank	AvoidedLoss	True
100.62	1.45	Lose2	1.0	n/a	Yes	3.128	n/a	5.0	GoodResponse	0	0.036	99.656	3	9	Feedback	AvoidedLoss	True
102.075	3.128	Lose2	1.0	n/a	Yes	3.128	n/a	n/a	GoodResponse	0	0.0	n/a	3	9	ISIslide	AvoidedLoss	True
105.217	0.25	Control	1.0	0.001	Yes	3.283	0.017	n/a	GoodResponse	0	n/a	n/a	3	10	Cue	Neutral	True
105.468	4.0	Control	1.0	0.0	Yes	3.283	0.001	n/a	GoodResponse	0	n/a	n/a	3	10	Fixation	Neutral	True
109.463	0.3	Control	1.0	0.004	Yes	3.283	-0.004	2.0	GoodResponse	0	0.247	108.71	3	10	Target	Neutral	True
109.71	0.3	Control	1.0	0.004	Yes	3.283	-0.004	2.0	GoodResponse	0	0.247	n/a	3	10	ButtonPress	Neutral	True
109.764	0.4	Control	1.0	n/a	Yes	3.283	n/a	n/a	GoodResponse	0	n/a	n/a	3	10	Blank	Neutral	True
110.165	1.45	Control	1.0	n/a	Yes	3.283	n/a	5.0	GoodResponse	0	0.006	109.171	3	10	Feedback	Neutral	True
111.62	3.283	Control	1.0	n/a	Yes	3.283	n/a	n/a	GoodResponse	0	0.0	n/a	3	10	ISIslide	Neutral	True
114.93	0.25	Lose2	1.0	0.0	Yes	2.72	0.03	n/a	GoodResponse	0	n/a	n/a	3	11	Cue	AvoidedLoss	True
115.18	4.05	Lose2	1.0	0.001	Yes	2.72	0.0	n/a	GoodResponse	0	n/a	n/a	3	11	Fixation	AvoidedLoss	True
119.226	0.29	Lose2	1.0	0.004	Yes	2.72	-0.004	2.0	GoodResponse	0	0.245	118.471	3	11	Target	AvoidedLoss	True
119.471	0.3	Lose2	1.0	0.004	Yes	2.72	-0.004	2.0	GoodResponse	0	0.245	n/a	3	11	ButtonPress	AvoidedLoss	True
119.527	0.41	Lose2	1.0	n/a	Yes	2.72	n/a	n/a	GoodResponse	0	n/a	n/a	3	11	Blank	AvoidedLoss	True
119.928	1.45	Lose2	1.0	n/a	Yes	2.72	n/a	5.0	GoodResponse	0	0.045	118.973	3	11	Feedback	AvoidedLoss	True
121.382	2.72	Lose2	1.0	n/a	Yes	2.72	n/a	n/a	GoodResponse	0	0.0	n/a	3	11	ISIslide	AvoidedLoss	True
124.124	0.25	Control	1.0	0.0	Yes	2.976	0.024	n/a	GoodResponse	0	n/a	n/a	3	12	Cue	Neutral	True
124.375	3.9	Control	1.0	0.0	Yes	2.976	0.001	n/a	GoodResponse	0	n/a	n/a	3	12	Fixation	Neutral	True
128.27	0.28	Control	1.0	0.004	Yes	2.976	-0.004	2.0	GoodResponse	0	0.22	127.49	3	12	Target	Neutral	True
128.49	0.3	Control	1.0	0.004	Yes	2.976	-0.004	2.0	GoodResponse	0	0.22	n/a	3	12	ButtonPress	Neutral	True
128.554	0.42	Control	1.0	n/a	Yes	2.976	n/a	n/a	GoodResponse	0	n/a	n/a	3	12	Blank	Neutral	True
128.972	1.45	Control	1.0	n/a	Yes	2.976	n/a	5.0	GoodResponse	0	0.025	127.997	3	12	Feedback	Neutral	True
130.426	2.976	Control	1.0	n/a	Yes	2.976	n/a	n/a	GoodResponse	0	0.0	n/a	3	12	ISIslide	Neutral	True
133.418	0.25	Control	1.0	0.0	Yes	2.782	0.018	n/a	GoodResponse	0	n/a	n/a	3	13	Cue	Neutral	True
133.669	4.0	Control	1.0	0.0	Yes	2.782	0.001	n/a	GoodResponse	0	n/a	n/a	3	13	Fixation	Neutral	True
137.664	0.27	Control	1.0	0.004	Yes	2.782	-0.004	2.0	GoodResponse	0	0.219	136.883	3	13	Target	Neutral	True
137.883	0.3	Control	1.0	0.004	Yes	2.782	-0.004	2.0	GoodResponse	0	0.219	n/a	3	13	ButtonPress	Neutral	True
137.948	0.43	Control	1.0	n/a	Yes	2.782	n/a	n/a	GoodResponse	0	n/a	n/a	3	13	Blank	Neutral	True
138.366	1.45	Control	1.0	n/a	Yes	2.782	n/a	5.0	GoodResponse	0	0.046	137.412	3	13	Feedback	Neutral	True
139.821	2.782	Control	1.0	n/a	Yes	2.782	n/a	n/a	GoodResponse	0	0.0	n/a	3	13	ISIslide	Neutral	True
142.629	0.25	Win2	1.0	0.0	Yes	2.671	0.029	n/a	GoodResponse	1	n/a	n/a	4	14	Cue	Win	True
142.88	4.1	Win2	1.0	0.0	Yes	2.671	0.001	n/a	GoodResponse	1	n/a	n/a	4	14	Fixation	Win	True
146.975	0.26	Win2	1.0	0.004	Yes	2.671	-0.004	2.0	GoodResponse	1	0.254	146.229	4	14	Target	Win	True
147.229	0.3	Win2	1.0	0.004	Yes	2.671	-0.004	2.0	GoodResponse	1	0.254	n/a	4	14	ButtonPress	Win	True
147.243	0.44	Win2	1.0	n/a	Yes	2.671	n/a	n/a	GoodResponse	1	n/a	n/a	4	14	Blank	Win	True
147.677	1.45	Win2	1.0	n/a	Yes	2.671	n/a	5.0	GoodResponse	1	0.006	146.683	4	14	Feedback	Win	True
149.132	2.671	Win2	1.0	n/a	Yes	2.671	n/a	n/a	GoodResponse	1	0.0	n/a	4	14	ISIslide	Win	True
151.823	0.25	Control	1.0	0.0	Yes	2.977	0.023	n/a	GoodResponse	0	n/a	n/a	4	15	Cue	Neutral	True
152.074	4.0	Control	1.0	0.0	Yes	2.977	0.001	n/a	GoodResponse	0	n/a	n/a	4	15	Fixation	Neutral	True
156.069	0.25	Control	1.0	0.004	Yes	2.977	-0.004	2.0	GoodResponse	0	0.234	155.303	4	15	Target	Neutral	True
156.303	0.3	Control	1.0	0.004	Yes	2.977	-0.004	2.0	GoodResponse	0	0.234	n/a	4	15	ButtonPress	Neutral	True
156.32	0.45	Control	1.0	n/a	Yes	2.977	n/a	n/a	GoodResponse	0	n/a	n/a	4	15	Blank	Neutral	True
156.771	1.45	Control	1.0	n/a	Yes	2.977	n/a	5.0	GoodResponse	0	0.03	155.801	4	15	Feedback	Neutral	True
158.226	2.977	Control	1.0	n/a	Yes	2.977	n/a	n/a	GoodResponse	0	0.0	n/a	4	15	ISIslide	Neutral	True
161.218	0.25	Win2	1.0	0.0	Yes	2.882	0.018	n/a	GoodResponse	1	n/a	n/a	5	16	Cue	Win	True
161.469	4.0	Win2	1.0	0.0	Yes	2.882	0.001	n/a	GoodResponse	1	n/a	n/a	5	16	Fixation	Win	True
165.464	0.24	Win2	1.0	0.004	Yes	2.882	-0.004	2.0	GoodResponse	1	0.22	164.684	5	16	Target	Win	True
165.684	0.3	Win2	1.0	0.004	Yes	2.882	-0.004	2.0	GoodResponse	1	0.22	n/a	5	16	ButtonPress	Win	True
165.715	0.46	Win2	1.0	n/a	Yes	2.882	n/a	n/a	GoodResponse	1	n/a	n/a	5	16	Blank	Win	True
166.166	1.45	Win2	1.0	n/a	Yes	2.882	n/a	5.0	GoodResponse	1	0.001	165.167	5	16	Feedback	Win	True
167.62	2.882	Win2	1.0	n/a	Yes	2.882	n/a	n/a	GoodResponse	1	0.0	n/a	5	16	ISIslide	Win	True
170.529	0.25	Lose2	1.0	0.0	Yes	2.721	0.029	n/a	GoodResponse	0	n/a	n/a	5	17	Cue	AvoidedLoss	True
170.78	3.95	Lose2	1.0	0.0	Yes	2.721	0.001	n/a	GoodResponse	0	n/a	n/a	5	17	Fixation	AvoidedLoss	True
174.725	0.23	Lose2	1.0	0.004	Yes	2.721	-0.004	2.0	GoodResponse	0	0.218	173.943	5	17	Target	AvoidedLoss	True
174.943	0.3	Lose2	1.0	0.004	Yes	2.721	-0.004	2.0	GoodResponse	0	0.218	n/a	5	17	ButtonPress	AvoidedLoss	True
174.959	0.47	Lose2	1.0	n/a	Yes	2.721	n/a	n/a	GoodResponse	0	n/a	n/a	5	17	Blank	AvoidedLoss	True
175.427	1.45	Lose2	1.0	n/a	Yes	2.721	n/a	5.0	GoodResponse	0	0.009	174.436	5	17	Feedback	AvoidedLoss	True
176.881	2.721	Lose2	1.0	n/a	Yes	2.721	n/a	n/a	GoodResponse	0	0.0	n/a	5	17	ISIslide	AvoidedLoss	True
179.623	0.25	Lose2	1.0	0.0	Yes	2.727	0.023	n/a	GoodResponse	0	n/a	n/a	5	18	Cue	AvoidedLoss	True
179.873	4.05	Lose2	1.0	0.001	Yes	2.727	0.0	n/a	GoodResponse	0	n/a	n/a	5	18	Fixation	AvoidedLoss	True
183.919	0.22	Lose2	1.0	0.004	Yes	2.727	-0.004	2.0	GoodResponse	0	0.211	183.13	5	18	Target	AvoidedLoss	True
184.13	0.3	Lose2	1.0	0.004	Yes	2.727	-0.004	2.0	GoodResponse	0	0.211	n/a	5	18	ButtonPress	AvoidedLoss	True
184.153	0.48	Lose2	1.0	n/a	Yes	2.727	n/a	n/a	GoodResponse	0	n/a	n/a	5	18	Blank	AvoidedLoss	True
184.621	1.45	Lose2	1.0	n/a	Yes	2.727	n/a	5.0	GoodResponse	0	0.033	183.654	5	18	Feedback	AvoidedLoss	True
186.075	2.727	Lose2	1.0	n/a	Yes	2.727	n/a	n/a	GoodResponse	0	0.0	n/a	5	18	ISIslide	AvoidedLoss	True
188.817	0.25	Control	0.95	0.0	No	2.933	0.017	n/a	NoResponse	0	n/a	n/a	5	19	Cue	Neutral	True
189.068	3.95	Control	0.95	0.0	No	2.933	0.001	n/a	NoResponse	0	n/a	n/a	5	19	Fixation	Neutral	True
193.013	0.21	Control	0.95	0.004	No	2.933	-0.004	2.0	NoResponse	0	0.287	192.3	5	19	Target	Neutral	True
193.23	0.49	Control	0.95	n/a	No	2.933	n/a	n/a	NoResponse	0	n/a	n/a	5	19	Blank	Neutral	True
193.3	0.3	Control	0.95	0.004	No	2.933	-0.004	2.0	NoResponse	0	0.287	n/a	5	19	ButtonPress	Neutral	True
193.715	1.45	Control	0.95	n/a	No	2.933	n/a	5.0	NoResponse	0	0.013	192.728	5	19	Feedback	Neutral	True
195.169	2.933	Control	0.95	n/a	No	2.933	n/a	n/a	NoResponse	0	0.0	n/a	5	19	ISIslide	Neutral	True
198.128	0.25	Control	0.9048	0.0	No	2.622	0.028	n/a	NoResponse	0	n/a	n/a	5	20	Cue	Neutral	True
198.379	4.05	Control	0.9048	0.0	No	2.622	0.001	n/a	NoResponse	0	n/a	n/a	5	20	Fixation	Neutral	True
202.424	0.2	Control	0.9048	0.004	No	2.622	-0.004	2.0	NoResponse	0	0.221	201.645	5	20	Target	Neutral	True
202.625	0.5	Control	0.9048	n/a	No	2.622	n/a	n/a	NoResponse	0	n/a	n/a	5	20	Blank	Neutral	True
202.645	0.3	Control	0.9048	0.004	No	2.622	-0.004	2.0	NoResponse	0	0.221	n/a	5	20	ButtonPress	Neutral	True
203.126	1.45	Control	0.9048	n/a	No	2.622	n/a	5.0	NoResponse	0	0.016	202.142	5	20	Feedback	Neutral	True
204.58	2.622	Control	0.9048	n/a	No	2.622	n/a	n/a	NoResponse	0	0.0	n/a	5	20	ISIslide	Neutral	True
207.222	0.25	Control	0.8636	0.0	No	2.778	0.022	n/a	LatePress	0	n/a	n/a	5	21	Cue	Neutral	True
207.472	4.1	Control	0.8636	0.001	No	2.778	0.0	n/a	LatePress	0	n/a	n/a	5	21	Fixation	Neutral	True
211.568	0.19	Control	0.8636	0.004	No	2.778	-0.004	2.0	LatePress	0	0.197	210.765	5	21	Target	Neutral	True
211.765	0.3	Control	0.8636	0.004	No	2.778	-0.004	2.0	LatePress	0	0.197	n/a	5	21	ButtonPress	Neutral	True
211.769	0.51	Control	0.8636	n/a	No	2.778	n/a	n/a	LatePress	0	n/a	n/a	5	21	Blank	Neutral	True
212.27	1.45	Control	0.8636	n/a	No	2.778	n/a	5.0	LatePress	0	0.043	211.313	5	21	Feedback	Neutral	True
213.724	2.778	Control	0.8636	n/a	No	2.778	n/a	n/a	LatePress	0	0.0	n/a	5	21	ISIslide	Neutral	True
216.516	0.25	Control	0.8261	0.0	No	2.784	0.016	n/a	NoResponse	0	n/a	n/a	5	22	Cue	Neutral	True
216.767	4.0	Control	0.8261	0.0	No	2.784	0.001	n/a	NoResponse	0	n/a	n/a	5	22	Fixation	Neutral	True
220.762	0.18	Control	0.8261	0.004	No	2.784	-0.004	2.0	NoResponse	0	0.222	219.984	5	22	Target	Neutral	True
220.946	0.52	Control	0.8261	n/a	No	2.784	n/a	n/a	NoResponse	0	n/a	n/a	5	22	Blank	Neutral	True
220.984	0.3	Control	0.8261	0.004	No	2.784	-0.004	2.0	NoResponse	0	0.222	n/a	5	22	ButtonPress	Neutral	True
221.464	1.45	Control	0.8261	n/a	No	2.784	n/a	5.0	NoResponse	0	0.019	220.483	5	22	Feedback	Neutral	True
222.919	2.784	Control	0.8261	n/a	No	2.784	n/a	n/a	NoResponse	0	0.0	n/a	5	22	ISIslide	Neutral	True
225.727	0.25	Control	0.7917000000000001	0.0	No	2.773	0.027	n/a	NoResponse	0	n/a	n/a	5	23	Cue	Neutral	True
225.978	3.9	Control	0.7917000000000001	0.0	No	2.773	0.001	n/a	NoResponse	0	n/a	n/a	5	23	Fixation	Neutral	True
229.873	0.17	Control	0.7917000000000001	0.004	No	2.773	-0.004	2.0	NoResponse	0	0.243	229.116	5	23	Target	Neutral	True
230.056	0.53	Control	0.7917000000000001	n/a	No	2.773	n/a	n/a	NoResponse	0	n/a	n/a	5	23	Blank	Neutral	True
230.116	0.3	Control	0.7917000000000001	0.004	No	2.773	-0.004	2.0	NoResponse	0	0.243	n/a	5	23	ButtonPress	Neutral	True
230.575	1.45	Control	0.7917000000000001	n/a	No	2.773	n/a	5.0	NoResponse	0	0.03	229.605	5	23	Feedback	Neutral	True
232.029	2.773	Control	0.7917000000000001	n/a	No	2.773	n/a	n/a	NoResponse	0	0.0	n/a	5	23	ISIslide	Neutral	True
234.821	0.25	Win2	0.76	0.0	No	3.129	0.021	n/a	NoResponse	0	n/a	n/a	5	24	Cue	MissedWin	True
235.071	3.95	Win2	0.76	0.001	No	3.129	0.0	n/a	NoResponse	0	n/a	n/a	5	24	Fixation	MissedWin	True
239.017	0.16	Win2	0.76	0.004	No	3.129	-0.004	2.0	NoResponse	0	0.191	238.208	5	24	Target	MissedWin	True
239.184	0.54	Win2	0.76	n/a	No	3.129	n/a	n/a	NoResponse	0	n/a	n/a	5	24	Blank	MissedWin	True
239.208	0.3	Win2	0.76	0.004	No	3.129	-0.004	2.0	NoResponse	0	0.191	n/a	5	24	ButtonPress	MissedWin	True
239.719	1.45	Win2	0.76	n/a	No	3.129	n/a	5.0	NoResponse	0	0.008	238.727	5	24	Feedback	MissedWin	True
241.173	3.129	Win2	0.76	n/a	No	3.129	n/a	n/a	NoResponse	0	0.0	n/a	5	24	ISIslide	MissedWin	True
244.316	0.25	Win2	0.7308	0.0	No	3.084	0.016	n/a	NoResponse	0	n/a	n/a	5	25	Cue	MissedWin	True
244.566	4.0	Win2	0.7308	0.0	No	3.084	0.0	n/a	NoResponse	0	n/a	n/a	5	25	Fixation	MissedWin	True
248.562	0.15	Win2	0.7308	0.004	No	3.084	-0.004	2.0	NoResponse	0	0.224	247.786	5	25	Target	MissedWin	True
248.712	0.55	Win2	0.7308	n/a	No	3.084	n/a	n/a	NoResponse	0	n/a	n/a	5	25	Blank	MissedWin	True
248.786	0.3	Win2	0.7308	0.004	No	3.084	-0.004	2.0	NoResponse	0	0.224	n/a	5	25	ButtonPress	MissedWin	True
249.264	1.45	Win2	0.7308	n/a	No	3.084	n/a	5.0	NoResponse	0	0.023	248.287	5	25	Feedback	MissedWin	True
250.718	3.084	Win2	0.7308	n/a	No	3.084	n/a	n/a	NoResponse	0	0.0	n/a	5	25	ISIslide	MissedWin	True
253.827	0.25	Win2	0.7037	0.0	No	2.923	0.027	n/a	NoResponse	0	n/a	n/a	5	26	Cue	MissedWin	True
254.078	3.95	Win2	0.7037	0.0	No	2.923	0.001	n/a	NoResponse	0	n/a	n/a	5	26	Fixation	MissedWin	True
258.023	0.15	Win2	0.7037	0.004	No	2.923	-0.004	2.0	NoResponse	0	0.216	257.239	5	26	Target	MissedWin	True
258.174	0.55	Win2	0.7037	n/a	No	2.923	n/a	n/a	NoResponse	0	n/a	n/a	5	26	Blank	MissedWin	True
258.239	0.3	Win2	0.7037	0.004	No	2.923	-0.004	2.0	NoResponse	0	0.216	n/a	5	26	ButtonPress	MissedWin	True
258.725	1.45	Win2	0.7037	n/a	No	2.923	n/a	5.0	NoResponse	0	0.026	257.751	5	26	Feedback	MissedWin	True
260.18	2.923	Win2	0.7037	n/a	No	2.923	n/a	n/a	NoResponse	0	0.0	n/a	5	26	ISIslide	MissedWin	True
263.122	0.25	Lose2	0.6786	0.0	No	2.828	0.022	n/a	NoResponse	-1	n/a	n/a	4	27	Cue	Loss	True
263.373	4.05	Lose2	0.6786	0.0	No	2.828	0.001	n/a	NoResponse	-1	n/a	n/a	4	27	Fixation	Loss	True
267.418	0.15	Lose2	0.6786	0.004	No	2.828	-0.004	2.0	NoResponse	-1	0.218	266.636	4	27	Target	Loss	True
267.568	0.55	Lose2	0.6786	n/a	No	2.828	n/a	n/a	NoResponse	-1	n/a	n/a	4	27	Blank	Loss	True
267.636	0.3	Lose2	0.6786	0.004	No	2.828	-0.004	2.0	NoResponse	-1	0.218	n/a	4	27	ButtonPress	Loss	True
268.12	1.45	Lose2	0.6786	n/a	No	2.828	n/a	5.0	NoResponse	-1	0.046	267.166	4	27	Feedback	Loss	True
269.574	2.828	Lose2	0.6786	n/a	No	2.828	n/a	n/a	NoResponse	-1	0.0	n/a	4	27	ISIslide	Loss	True
272.416	0.25	Control	0.6552	0.0	No	2.834	0.016	n/a	PrematurePress	0	n/a	n/a	4	28	Cue	Neutral	True
272.667	4.05	Control	0.6552	0.0	No	2.834	0.001	n/a	PrematurePress	0	n/a	n/a	4	28	Fixation	Neutral	True
276.712	0.15	Control	0.6552	0.004	No	2.834	-0.004	2.0	PrematurePress	0	0.013	275.725	4	28	Target	Neutral	True
276.725	0.3	Control	0.6552	0.004	No	2.834	-0.004	2.0	PrematurePress	0	0.013	n/a	4	28	ButtonPress	Neutral	True
276.863	0.55	Control	0.6552	n/a	No	2.834	n/a	n/a	PrematurePress	0	n/a	n/a	4	28	Blank	Neutral	True
277.414	1.45	Control	0.6552	n/a	No	2.834	n/a	5.0	PrematurePress	0	0.02	276.434	4	28	Feedback	Neutral	True
278.869	2.834	Control	0.6552	n/a	No	2.834	n/a	n/a	PrematurePress	0	0.0	n/a	4	28	ISIslide	Neutral	True
281.727	0.25	Lose2	0.6333	0.0	No	2.823	0.027	n/a	NoResponse	-1	n/a	n/a	3	29	Cue	Loss	True
281.978	3.95	Lose2	0.6333	0.0	No	2.823	0.001	n/a	NoResponse	-1	n/a	n/a	3	29	Fixation	Loss	True
285.923	0.15	Lose2	0.6333	0.004	No	2.823	-0.004	2.0	NoResponse	-1	0.167	285.09	3	29	Target	Loss	True
286.074	0.55	Lose2	0.6333	n/a	No	2.823	n/a	n/a	NoResponse	-1	n/a	n/a	3	29	Blank	Loss	True
286.09	0.3	Lose2	0.6333	0.004	No	2.823	-0.004	2.0	NoResponse	-1	0.167	n/a	3	29	ButtonPress	Loss	True
286.625	1.45	Lose2	0.6333	n/a	No	2.823	n/a	5.0	NoResponse	-1	0.028	285.653	3	29	Feedback	Loss	True
288.08	2.823	Lose2	0.6333	n/a	No	2.823	n/a	n/a	NoResponse	-1	0.0	n/a	3	29	ISIslide	Loss	True
290.921	0.25	Win2	0.6129	0.0	No	2.779	0.021	n/a	NoResponse	0	n/a	n/a	3	30	Cue	MissedWin	True
291.172	3.9	Win2	0.6129	0.0	No	2.779	0.001	n/a	NoResponse	0	n/a	n/a	3	30	Fixation	MissedWin	True
295.067	0.16	Win2	0.6129	0.004	No	2.779	-0.004	2.0	NoResponse	0	0.226	294.293	3	30	Target	MissedWin	True
295.234	0.54	Win2	0.6129	n/a	No	2.779	n/a	n/a	NoResponse	0	n/a	n/a	3	30	Blank	MissedWin	True
295.293	0.3	Win2	0.6129	0.004	No	2.779	-0.004	2.0	NoResponse	0	0.226	n/a	3	30	ButtonPress	MissedWin	True
295.769	1.45	Win2	0.6129	n/a	No	2.779	n/a	5.0	NoResponse	0	0.006	294.775	3	30	Feedback	MissedWin	True
297.224	2.779	Win2	0.6129	n/a	No	2.779	n/a	n/a	NoResponse	0	0.0	n/a	3	30	ISIslide	MissedWin	True
300.015	0.25	Lose2	0.5938	0.0	No	2.835	0.015	n/a	NoResponse	-1	n/a	n/a	2	31	Cue	Loss	False
300.266	4.05	Lose2	0.5938	0.0	No	2.835	0.001	2.0	NoResponse	-1	3.142	302.408	2	31	Fixation	Loss	False
303.408	0.3	Lose2	0.5938	0.0	No	2.835	0.001	2.0	NoResponse	-1	3.142	n/a	2	31	ButtonPress	Loss	False
304.311	0.17	Lose2	0.5938	0.004	No	2.835	-0.004	2.0	NoResponse	-1	0.306	303.617	2	31	Target	Loss	False
304.495	0.53	Lose2	0.5938	n/a	No	2.835	n/a	n/a	NoResponse	-1	n/a	n/a	2	31	Blank	Loss	False
304.617	0.3	Lose2	0.5938	0.004	No	2.835	-0.004	2.0	NoResponse	-1	0.306	n/a	2	31	ButtonPress	Loss	False
305.013	1.45	Lose2	0.5938	n/a	No	2.835	n/a	5.0	NoResponse	-1	0.03	304.043	2	31	Feedback	Loss	False
306.468	2.835	Lose2	0.5938	n/a	No	2.835	n/a	n/a	NoResponse	-1	0.0	n/a	2	31	ISIslide	Loss	False
309.326	0.25	Lose2	0.5758	0.0	No	2.624	0.026	n/a	NoResponse	-1	n/a	n/a	1	32	Cue	Loss	True
309.577	4.15	Lose2	0.5758	0.0	No	2.624	0.001	n/a	NoResponse	-1	n/a	n/a	1	32	Fixation	Loss	True
313.723	0.18	Lose2	0.5758	0.003	No	2.624	-0.003	2.0	NoResponse	-1	0.24	312.963	1	32	Target	Loss	True
313.907	0.52	Lose2	0.5758	n/a	No	2.624	n/a	n/a	NoResponse	-1	n/a	n/a	1	32	Blank	Loss	True
313.963	0.3	Lose2	0.5758	0.003	No	2.624	-0.003	2.0	NoResponse	-1	0.24	n/a	1	32	ButtonPress	Loss	True
314.425	1.45	Lose2	0.5758	n/a	No	2.624	n/a	5.0	NoResponse	-1	0.033	313.458	1	32	Feedback	Loss	True
315.879	2.624	Lose2	0.5758	n/a	No	2.624	n/a	n/a	NoResponse	-1	0.0	n/a	1	32	ISIslide	Loss	True
318.52	0.25	Win2	0.5588000000000001	0.0	No	2.68	0.02	n/a	NoResponse	0	n/a	n/a	1	33	Cue	MissedWin	True
318.771	4.0	Win2	0.5588000000000001	0.0	No	2.68	0.001	n/a	NoResponse	0	n/a	n/a	1	33	Fixation	MissedWin	True
322.766	0.19	Win2	0.5588000000000001	0.004	No	2.68	-0.004	2.0	NoResponse	0	0.213	321.979	1	33	Target	MissedWin	True
322.967	0.51	Win2	0.5588000000000001	n/a	No	2.68	n/a	n/a	NoResponse	0	n/a	n/a	1	33	Blank	MissedWin	True
322.979	0.3	Win2	0.5588000000000001	0.004	No	2.68	-0.004	2.0	NoResponse	0	0.213	n/a	1	33	ButtonPress	MissedWin	True
323.468	1.45	Win2	0.5588000000000001	n/a	No	2.68	n/a	5.0	NoResponse	0	0.013	322.481	1	33	Feedback	MissedWin	True
324.923	2.68	Win2	0.5588000000000001	n/a	No	2.68	n/a	n/a	NoResponse	0	0.0	n/a	1	33	ISIslide	MissedWin	True
327.614	0.25	Lose2	0.5428999999999999	0.0	No	2.636	0.014	n/a	NoResponse	-1	n/a	n/a	0	34	Cue	Loss	True
327.865	4.05	Lose2	0.5428999999999999	0.0	No	2.636	0.001	n/a	NoResponse	-1	n/a	n/a	0	34	Fixation	Loss	True
331.91	0.2	Lose2	0.5428999999999999	0.004	No	2.636	-0.004	2.0	NoResponse	-1	0.216	331.126	0	34	Target	Loss	True
332.111	0.5	Lose2	0.5428999999999999	n/a	No	2.636	n/a	n/a	NoResponse	-1	n/a	n/a	0	34	Blank	Loss	True
332.126	0.3	Lose2	0.5428999999999999	0.004	No	2.636	-0.004	2.0	NoResponse	-1	0.216	n/a	0	34	ButtonPress	Loss	True
332.612	1.45	Lose2	0.5428999999999999	n/a	No	2.636	n/a	5.0	NoResponse	-1	0.04	331.652	0	34	Feedback	Loss	True
334.067	2.636	Lose2	0.5428999999999999	n/a	No	2.636	n/a	n/a	NoResponse	-1	0.0	n/a	0	34	ISIslide	Loss	True
336.725	0.25	Lose2	0.5278	0.0	No	2.675	0.025	n/a	NoResponse	-1	n/a	n/a	-1	35	Cue	Loss	False
336.975	4.0	Lose2	0.5278	0.0	No	2.675	0.0	2.0	NoResponse	-1	0.121	336.096	-1	35	Fixation	Loss	False
337.096	0.3	Lose2	0.5278	0.0	No	2.675	0.0	2.0	NoResponse	-1	0.121	n/a	-1	35	ButtonPress	Loss	False
340.971	0.21	Lose2	0.5278	0.004	No	2.675	-0.004	2.0	NoResponse	-1	0.264	340.235	-1	35	Target	Loss	False
341.188	0.49	Lose2	0.5278	n/a	No	2.675	n/a	n/a	NoResponse	-1	n/a	n/a	-1	35	Blank	Loss	False
341.235	0.3	Lose2	0.5278	0.004	No	2.675	-0.004	2.0	NoResponse	-1	0.264	n/a	-1	35	ButtonPress	Loss	False
341.673	1.45	Lose2	0.5278	n/a	No	2.675	n/a	5.0	NoResponse	-1	0.006	340.679	-1	35	Feedback	Loss	False
343.127	2.675	Lose2	0.5278	n/a	No	2.675	n/a	n/a	NoResponse	-1	0.0	n/a	-1	35	ISIslide	Loss	False
345.818	0.25	Control	0.5135000000000001	0.001	No	2.682	0.018	n/a	LatePress	0	n/a	n/a	-1	36	Cue	Neutral	True
346.069	4.0	Control	0.5135000000000001	0.0	No	2.682	0.001	n/a	LatePress	0	n/a	n/a	-1	36	Fixation	Neutral	True
350.064	0.22	Control	0.5135000000000001	0.004	No	2.682	-0.004	2.0	LatePress	0	0.221	349.285	-1	36	Target	Neutral	True
350.285	0.3	Control	0.5135000000000001	0.004	No	2.682	-0.004	2.0	LatePress	0	0.221	n/a	-1	36	ButtonPress	Neutral	True
350.299	0.48	Control	0.5135000000000001	n/a	No	2.682	n/a	n/a	LatePress	0	n/a	n/a	-1	36	Blank	Neutral	True
350.767	1.45	Control	0.5135000000000001	n/a	No	2.682	n/a	5.0	LatePress	0	0.031	349.798	-1	36	Feedback	Neutral	True
352.221	2.682	Control	0.5135000000000001	n/a	No	2.682	n/a	n/a	LatePress	0	0.0	n/a	-1	36	ISIslide	Neutral	True
354.929	0.25	Win2	0.5263	0.0	Yes	2.871	0.029	n/a	GoodResponse	1	n/a	n/a	0	37	Cue	Win	True
355.18	4.0	Win2	0.5263	0.0	Yes	2.871	0.001	n/a	GoodResponse	1	n/a	n/a	0	37	Fixation	Win	True
359.175	0.23	Win2	0.5263	0.004	Yes	2.871	-0.004	2.0	GoodResponse	1	0.159	358.334	0	37	Target	Win	True
359.334	0.3	Win2	0.5263	0.004	Yes	2.871	-0.004	2.0	GoodResponse	1	0.159	n/a	0	37	ButtonPress	Win	True
359.409	0.47	Win2	0.5263	n/a	Yes	2.871	n/a	n/a	GoodResponse	1	n/a	n/a	0	37	Blank	Win	True
359.877	1.45	Win2	0.5263	n/a	Yes	2.871	n/a	5.0	GoodResponse	1	0.043	358.92	0	37	Feedback	Win	True
361.331	2.871	Win2	0.5263	n/a	Yes	2.871	n/a	n/a	GoodResponse	1	0.0	n/a	0	37	ISIslide	Win	True
364.223	0.25	Lose2	0.5128	0.0	No	2.827	0.023	n/a	NoResponse	-1	n/a	n/a	-1	38	Cue	Loss	True
364.474	3.95	Lose2	0.5128	0.0	No	2.827	0.001	n/a	NoResponse	-1	n/a	n/a	-1	38	Fixation	Loss	True
368.419	0.24	Lose2	0.5128	0.004	No	2.827	-0.004	2.0	NoResponse	-1	0.265	367.684	-1	38	Target	Loss	True
368.67	0.46	Lose2	0.5128	n/a	No	2.827	n/a	n/a	NoResponse	-1	n/a	n/a	-1	38	Blank	Loss	True
368.684	0.3	Lose2	0.5128	0.004	No	2.827	-0.004	2.0	NoResponse	-1	0.265	n/a	-1	38	ButtonPress	Loss	True
369.121	1.45	Lose2	0.5128	n/a	No	2.827	n/a	5.0	NoResponse	-1	0.018	368.139	-1	38	Feedback	Loss	True
370.576	2.827	Lose2	0.5128	n/a	No	2.827	n/a	n/a	NoResponse	-1	0.0	n/a	-1	38	ISIslide	Loss	True
373.417	0.25	Win2	0.525	0.001	Yes	2.983	0.017	n/a	GoodResponse	1	n/a	n/a	0	39	Cue	Win	True
373.668	4.1	Win2	0.525	0.0	Yes	2.983	0.001	n/a	GoodResponse	1	n/a	n/a	0	39	Fixation	Win	True
377.764	0.25	Win2	0.525	0.003	Yes	2.983	-0.003	2.0	GoodResponse	1	0.211	376.975	0	39	Target	Win	True
377.975	0.3	Win2	0.525	0.003	Yes	2.983	-0.003	2.0	GoodResponse	1	0.211	n/a	0	39	ButtonPress	Win	True
378.015	0.45	Win2	0.525	n/a	Yes	2.983	n/a	n/a	GoodResponse	1	n/a	n/a	0	39	Blank	Win	True
378.466	1.45	Win2	0.525	n/a	Yes	2.983	n/a	5.0	GoodResponse	1	0.039	377.505	0	39	Feedback	Win	True
379.92	2.983	Win2	0.525	n/a	Yes	2.983	n/a	n/a	GoodResponse	1	0.0	n/a	0	39	ISIslide	Win	True
382.929	0.25	Win2	0.5366	0.0	Yes	2.721	0.029	n/a	GoodResponse	1	n/a	n/a	1	40	Cue	Win	True
383.18	3.95	Win2	0.5366	0.0	Yes	2.721	0.001	n/a	GoodResponse	1	n/a	n/a	1	40	Fixation	Win	True
387.125	0.26	Win2	0.5366	0.004	Yes	2.721	-0.004	2.0	GoodResponse	1	0.241	386.366	1	40	Target	Win	True
387.366	0.3	Win2	0.5366	0.004	Yes	2.721	-0.004	2.0	GoodResponse	1	0.241	n/a	1	40	ButtonPress	Win	True
387.392	0.44	Win2	0.5366	n/a	Yes	2.721	n/a	n/a	GoodResponse	1	n/a	n/a	1	40	Blank	Win	True
387.827	1.45	Win2	0.5366	n/a	Yes	2.721	n/a	5.0	GoodResponse	1	0.043	386.87	1	40	Feedback	Win	True
389.281	2.721	Win2	0.5366	n/a	Yes	2.721	n/a	n/a	GoodResponse	1	0.0	n/a	1	40	ISIslide	Win	True
392.023	0.25	Win2	0.5476	0.0	Yes	2.777	0.023	n/a	GoodResponse	1	n/a	n/a	2	41	Cue	Win	True
392.274	3.9	Win2	0.5476	0.0	Yes	2.777	0.001	n/a	GoodResponse	1	n/a	n/a	2	41	Fixation	Win	True
396.169	0.27	Win2	0.5476	0.004	Yes	2.777	-0.004	2.0	GoodResponse	1	0.23	395.399	2	41	Target	Win	True
396.399	0.3	Win2	0.5476	0.004	Yes	2.777	-0.004	2.0	GoodResponse	1	0.23	n/a	2	41	ButtonPress	Win	True
396.453	0.43	Win2	0.5476	n/a	Yes	2.777	n/a	n/a	GoodResponse	1	n/a	n/a	2	41	Blank	Win	True
396.871	1.45	Win2	0.5476	n/a	Yes	2.777	n/a	5.0	GoodResponse	1	0.024	395.895	2	41	Feedback	Win	True
398.325	2.777	Win2	0.5476	n/a	Yes	2.777	n/a	n/a	GoodResponse	1	0.0	n/a	2	41	ISIslide	Win	True
401.117	0.25	Control	0.5581	0.0	Yes	2.933	0.017	n/a	GoodResponse	0	n/a	n/a	2	42	Cue	Neutral	True
401.368	3.85	Control	0.5581	0.0	Yes	2.933	0.001	n/a	GoodResponse	0	n/a	n/a	2	42	Fixation	Neutral	True
405.229	0.28	Control	0.5581	0.0	Yes	2.933	0.012	2.0	GoodResponse	0	0.228	404.457	2	42	Target	Neutral	True
405.457	0.3	Control	0.5581	0.0	Yes	2.933	0.012	2.0	GoodResponse	0	0.228	n/a	2	42	ButtonPress	Neutral	True
405.496	0.42	Control	0.5581	n/a	Yes	2.933	n/a	n/a	GoodResponse	0	n/a	n/a	2	42	Blank	Neutral	True
405.914	1.45	Control	0.5581	n/a	Yes	2.933	n/a	5.0	GoodResponse	0	0.006	404.92	2	42	Feedback	Neutral	True
407.369	2.933	Control	0.5581	n/a	Yes	2.933	n/a	n/a	GoodResponse	0	0.0	n/a	2	42	ISIslide	Neutral	True
410.328	0.25	Win2	0.5682	0.0	Yes	3.172	0.028	n/a	GoodResponse	1	n/a	n/a	3	43	Cue	Win	True
410.578	4.0	Win2	0.5682	0.0	Yes	3.172	0.0	n/a	GoodResponse	1	n/a	n/a	3	43	Fixation	Win	True
414.574	0.29	Win2	0.5682	0.004	Yes	3.172	-0.004	2.0	GoodResponse	1	0.265	413.839	3	43	Target	Win	True
414.839	0.3	Win2	0.5682	0.004	Yes	3.172	-0.004	2.0	GoodResponse	1	0.265	n/a	3	43	ButtonPress	Win	True
414.874	0.41	Win2	0.5682	n/a	Yes	3.172	n/a	n/a	GoodResponse	1	n/a	n/a	3	43	Blank	Win	True
415.276	1.45	Win2	0.5682	n/a	Yes	3.172	n/a	5.0	GoodResponse	1	0.009	414.285	3	43	Feedback	Win	True
416.73	3.172	Win2	0.5682	n/a	Yes	3.172	n/a	n/a	GoodResponse	1	0.0	n/a	3	43	ISIslide	Win	True
419.923	0.25	Win2	0.5778	0.0	Yes	2.977	0.023	n/a	GoodResponse	1	n/a	n/a	4	44	Cue	Win	True
420.174	4.0	Win2	0.5778	0.0	Yes	2.977	0.001	n/a	GoodResponse	1	n/a	n/a	4	44	Fixation	Win	True
424.169	0.3	Win2	0.5778	0.004	Yes	2.977	-0.004	2.0	GoodResponse	1	0.262	423.431	4	44	Target	Win	True
424.431	0.3	Win2	0.5778	0.004	Yes	2.977	-0.004	2.0	GoodResponse	1	0.262	n/a	4	44	ButtonPress	Win	True
424.47	0.4	Win2	0.5778	n/a	Yes	2.977	n/a	n/a	GoodResponse	1	n/a	n/a	4	44	Blank	Win	True
424.871	1.45	Win2	0.5778	n/a	Yes	2.977	n/a	5.0	GoodResponse	1	0.023	423.894	4	44	Feedback	Win	True
426.325	2.977	Win2	0.5778	n/a	Yes	2.977	n/a	n/a	GoodResponse	1	0.0	n/a	4	44	ISIslide	Win	True
429.318	0.25	Control	0.5870000000000001	0.0	Yes	2.882	0.018	n/a	GoodResponse	0	n/a	n/a	4	45	Cue	Neutral	True
429.568	4.1	Control	0.5870000000000001	0.0	Yes	2.882	0.0	n/a	GoodResponse	0	n/a	n/a	4	45	Fixation	Neutral	True
433.664	0.31	Control	0.5870000000000001	0.004	Yes	2.882	-0.004	2.0	GoodResponse	0	0.215	432.879	4	45	Target	Neutral	True
433.879	0.3	Control	0.5870000000000001	0.004	Yes	2.882	-0.004	2.0	GoodResponse	0	0.215	n/a	4	45	ButtonPress	Neutral	True
433.981	0.39	Control	0.5870000000000001	n/a	Yes	2.882	n/a	n/a	GoodResponse	0	n/a	n/a	4	45	Blank	Neutral	True
434.366	1.45	Control	0.5870000000000001	n/a	Yes	2.882	n/a	5.0	GoodResponse	0	0.04	433.406	4	45	Feedback	Neutral	True
435.82	2.882	Control	0.5870000000000001	n/a	Yes	2.882	n/a	n/a	GoodResponse	0	0.0	n/a	4	45	ISIslide	Neutral	True
438.729	0.25	Lose2	0.5957	0.0	Yes	3.371	0.029	n/a	GoodResponse	0	n/a	n/a	4	46	Cue	AvoidedLoss	True
438.98	4.0	Lose2	0.5957	0.0	Yes	3.371	0.001	n/a	GoodResponse	0	n/a	n/a	4	46	Fixation	AvoidedLoss	True
442.975	0.32	Lose2	0.5957	0.004	Yes	3.371	-0.004	2.0	GoodResponse	0	0.253	442.228	4	46	Target	AvoidedLoss	True
443.228	0.3	Lose2	0.5957	0.004	Yes	3.371	-0.004	2.0	GoodResponse	0	0.253	n/a	4	46	ButtonPress	AvoidedLoss	True
443.309	0.38	Lose2	0.5957	n/a	Yes	3.371	n/a	n/a	GoodResponse	0	n/a	n/a	4	46	Blank	AvoidedLoss	True
443.677	1.45	Lose2	0.5957	n/a	Yes	3.371	n/a	5.0	GoodResponse	0	0.046	442.723	4	46	Feedback	AvoidedLoss	True
445.131	3.371	Lose2	0.5957	n/a	Yes	3.371	n/a	n/a	GoodResponse	0	0.0	n/a	4	46	ISIslide	AvoidedLoss	True
448.525	0.25	Lose2	0.6042000000000001	0.0	Yes	2.675	0.025	n/a	GoodResponse	0	n/a	n/a	4	47	Cue	AvoidedLoss	True
448.776	4.0	Lose2	0.6042000000000001	0.0	Yes	2.675	0.001	n/a	GoodResponse	0	n/a	n/a	4	47	Fixation	AvoidedLoss	True
452.771	0.33	Lose2	0.6042000000000001	0.004	Yes	2.675	-0.004	2.0	GoodResponse	0	0.277	452.048	4	47	Target	AvoidedLoss	True
453.048	0.3	Lose2	0.6042000000000001	0.004	Yes	2.675	-0.004	2.0	GoodResponse	0	0.277	n/a	4	47	ButtonPress	AvoidedLoss	True
453.105	0.37	Lose2	0.6042000000000001	n/a	Yes	2.675	n/a	n/a	GoodResponse	0	n/a	n/a	4	47	Blank	AvoidedLoss	True
453.473	1.45	Lose2	0.6042000000000001	n/a	Yes	2.675	n/a	5.0	GoodResponse	0	0.006	452.479	4	47	Feedback	AvoidedLoss	True
454.927	2.675	Lose2	0.6042000000000001	n/a	Yes	2.675	n/a	n/a	GoodResponse	0	0.0	n/a	4	47	ISIslide	AvoidedLoss	True
457.619	0.25	Lose2	0.6122	0.0	Yes	3.031	0.019	n/a	GoodResponse	0	n/a	n/a	4	48	Cue	AvoidedLoss	True
457.869	3.95	Lose2	0.6122	0.0	Yes	3.031	0.0	n/a	GoodResponse	0	n/a	n/a	4	48	Fixation	AvoidedLoss	True
461.814	0.34	Lose2	0.6122	0.005	Yes	3.031	-0.005	2.0	GoodResponse	0	0.253	461.067	4	48	Target	AvoidedLoss	True
462.067	0.3	Lose2	0.6122	0.005	Yes	3.031	-0.005	2.0	GoodResponse	0	0.253	n/a	4	48	ButtonPress	AvoidedLoss	True
462.166	0.36	Lose2	0.6122	n/a	Yes	3.031	n/a	n/a	GoodResponse	0	n/a	n/a	4	48	Blank	AvoidedLoss	True
462.517	1.45	Lose2	0.6122	n/a	Yes	3.031	n/a	5.0	GoodResponse	0	0.035	461.552	4	48	Feedback	AvoidedLoss	True
463.971	3.031	Lose2	0.6122	n/a	Yes	3.031	n/a	n/a	GoodResponse	0	0.0	n/a	4	48	ISIslide	AvoidedLoss	True
467.03	0.25	Control	0.62	0.0	Yes	2.87	0.03	n/a	GoodResponse	0	n/a	n/a	4	49	Cue	Neutral	True
467.281	4.0	Control	0.62	0.0	Yes	2.87	0.001	n/a	GoodResponse	0	n/a	n/a	4	49	Fixation	Neutral	True
471.276	0.35	Control	0.62	0.004	Yes	2.87	-0.004	2.0	GoodResponse	0	0.251	470.527	4	49	Target	Neutral	True
471.527	0.3	Control	0.62	0.004	Yes	2.87	-0.004	2.0	GoodResponse	0	0.251	n/a	4	49	ButtonPress	Neutral	True
471.627	0.35	Control	0.62	n/a	Yes	2.87	n/a	n/a	GoodResponse	0	n/a	n/a	4	49	Blank	Neutral	True
471.978	1.45	Control	0.62	n/a	Yes	2.87	n/a	5.0	GoodResponse	0	0.037	471.015	4	49	Feedback	Neutral	True
473.432	2.87	Control	0.62	n/a	Yes	2.87	n/a	n/a	GoodResponse	0	0.0	n/a	4	49	ISIslide	Neutral	True
476.324	0.25	Control	0.6078	0.001	No	2.776	0.024	n/a	NoResponse	0	n/a	n/a	4	50	Cue	Neutral	False
476.575	4.0	Control	0.6078	0.0	No	2.776	0.001	n/a	NoResponse	0	n/a	n/a	4	50	Fixation	Neutral	False
480.57	0.36	Control	0.6078	0.004	No	2.776	-0.004	n/a	NoResponse	0	n/a	n/a	4	50	Target	Neutral	False
480.938	0.34	Control	0.6078	n/a	No	2.776	n/a	n/a	NoResponse	0	n/a	n/a	4	50	Blank	Neutral	False
481.273	1.45	Control	0.6078	n/a	No	2.776	n/a	5.0	NoResponse	0	0.011	480.284	4	50	Feedback	Neutral	False
482.727	2.776	Control	0.6078	n/a	No	2.776	n/a	n/a	NoResponse	0	0.0	n/a	4	50	ISIslide	Neutral	False
485.519	0.25	Control	0.6154	0.0	Yes	2.731	0.019	n/a	GoodResponse	0	n/a	n/a	4	51	Cue	Neutral	True
485.769	3.95	Control	0.6154	0.0	Yes	2.731	0.0	n/a	GoodResponse	0	n/a	n/a	4	51	Fixation	Neutral	True
489.731	0.37	Control	0.6154	0.0	Yes	2.731	0.012	2.0	GoodResponse	0	0.259	488.99	4	51	Target	Neutral	True
489.99	0.3	Control	0.6154	0.0	Yes	2.731	0.012	2.0	GoodResponse	0	0.259	n/a	4	51	ButtonPress	Neutral	True
490.099	0.33	Control	0.6154	n/a	Yes	2.731	n/a	n/a	GoodResponse	0	n/a	n/a	4	51	Blank	Neutral	True
490.416	1.45	Control	0.6154	n/a	Yes	2.731	n/a	5.0	GoodResponse	0	0.038	489.454	4	51	Feedback	Neutral	True
491.871	2.731	Control	0.6154	n/a	Yes	2.731	n/a	n/a	GoodResponse	0	0.0	n/a	4	51	ISIslide	Neutral	True
494.629	0.25	Control	0.6225999999999999	0.0	Yes	2.621	0.029	n/a	GoodResponse	0	n/a	n/a	4	52	Cue	Neutral	True
494.88	4.05	Control	0.6225999999999999	0.0	Yes	2.621	0.001	n/a	GoodResponse	0	n/a	n/a	4	52	Fixation	Neutral	True
498.925	0.38	Control	0.6225999999999999	0.004	Yes	2.621	-0.004	2.0	GoodResponse	0	0.222	498.147	4	52	Target	Neutral	True
499.147	0.3	Control	0.6225999999999999	0.004	Yes	2.621	-0.004	2.0	GoodResponse	0	0.222	n/a	4	52	ButtonPress	Neutral	True
499.31	0.32	Control	0.6225999999999999	n/a	Yes	2.621	n/a	n/a	GoodResponse	0	n/a	n/a	4	52	Blank	Neutral	True
499.627	1.45	Control	0.6225999999999999	n/a	Yes	2.621	n/a	5.0	GoodResponse	0	0.046	498.673	4	52	Feedback	Neutral	True
501.082	2.621	Control	0.6225999999999999	n/a	Yes	2.621	n/a	n/a	GoodResponse	0	0.0	n/a	4	52	ISIslide	Neutral	True
503.723	0.25	Win2	0.6296	0.0	Yes	2.927	0.023	n/a	GoodResponse	1	n/a	n/a	5	53	Cue	Win	True
503.974	4.05	Win2	0.6296	0.0	Yes	2.927	0.001	n/a	GoodResponse	1	n/a	n/a	5	53	Fixation	Win	True
508.019	0.39	Win2	0.6296	0.004	Yes	2.927	-0.004	2.0	GoodResponse	1	0.224	507.243	5	53	Target	Win	True
508.243	0.3	Win2	0.6296	0.004	Yes	2.927	-0.004	2.0	GoodResponse	1	0.224	n/a	5	53	ButtonPress	Win	True
508.42	0.31	Win2	0.6296	n/a	Yes	2.927	n/a	n/a	GoodResponse	1	n/a	n/a	5	53	Blank	Win	True
508.721	1.45	Win2	0.6296	n/a	Yes	2.927	n/a	5.0	GoodResponse	1	0.026	507.747	5	53	Feedback	Win	True
510.175	2.927	Win2	0.6296	n/a	Yes	2.927	n/a	n/a	GoodResponse	1	0.0	n/a	5	53	ISIslide	Win	True
513.118	0.25	Win2	0.6364	0.0	Yes	2.732	0.018	n/a	GoodResponse	1	n/a	n/a	6	54	Cue	Win	True
513.368	3.95	Win2	0.6364	0.0	Yes	2.732	0.0	n/a	GoodResponse	1	n/a	n/a	6	54	Fixation	Win	True
517.33	0.4	Win2	0.6364	0.0	Yes	2.732	0.012	2.0	GoodResponse	1	0.185	516.515	6	54	Target	Win	True
517.515	0.3	Win2	0.6364	0.0	Yes	2.732	0.012	2.0	GoodResponse	1	0.185	n/a	6	54	ButtonPress	Win	True
517.715	0.3	Win2	0.6364	n/a	Yes	2.732	n/a	n/a	GoodResponse	1	n/a	n/a	6	54	Blank	Win	True
518.015	1.45	Win2	0.6364	n/a	Yes	2.732	n/a	5.0	GoodResponse	1	0.048	517.063	6	54	Feedback	Win	True
519.47	2.732	Win2	0.6364	n/a	Yes	2.732	n/a	n/a	GoodResponse	1	0.0	n/a	6	54	ISIslide	Win	True
522.228	0.25	Control	0.6429	0.0	Yes	3.022	0.028	n/a	GoodResponse	0	n/a	n/a	6	55	Cue	Neutral	True
522.479	3.95	Control	0.6429	0.0	Yes	3.022	0.001	n/a	GoodResponse	0	n/a	n/a	6	55	Fixation	Neutral	True
526.424	0.41	Control	0.6429	0.004	Yes	3.022	-0.004	2.0	GoodResponse	0	0.249	525.673	6	55	Target	Neutral	True
526.673	0.3	Control	0.6429	0.004	Yes	3.022	-0.004	2.0	GoodResponse	0	0.249	n/a	6	55	ButtonPress	Neutral	True
526.842	0.29	Control	0.6429	n/a	Yes	3.022	n/a	n/a	GoodResponse	0	n/a	n/a	6	55	Blank	Neutral	True
527.126	1.45	Control	0.6429	n/a	Yes	3.022	n/a	5.0	GoodResponse	0	0.01	526.136	6	55	Feedback	Neutral	True
528.58	3.022	Control	0.6429	n/a	Yes	3.022	n/a	n/a	GoodResponse	0	0.0	n/a	6	55	ISIslide	Neutral	True
531.623	0.25	Control	0.6491	0.0	Yes	2.827	0.023	n/a	GoodResponse	0	n/a	n/a	6	56	Cue	Neutral	True
531.873	3.95	Control	0.6491	0.001	Yes	2.827	0.0	n/a	GoodResponse	0	n/a	n/a	6	56	Fixation	Neutral	True
535.819	0.42	Control	0.6491	0.004	Yes	2.827	-0.004	2.0	GoodResponse	0	0.228	535.047	6	56	Target	Neutral	True
536.047	0.3	Control	0.6491	0.004	Yes	2.827	-0.004	2.0	GoodResponse	0	0.228	n/a	6	56	ButtonPress	Neutral	True
536.253	0.28	Control	0.6491	n/a	Yes	2.827	n/a	n/a	GoodResponse	0	n/a	n/a	6	56	Blank	Neutral	True
536.521	1.45	Control	0.6491	n/a	Yes	2.827	n/a	5.0	GoodResponse	0	0.03	535.551	6	56	Feedback	Neutral	True
537.975	2.827	Control	0.6491	n/a	Yes	2.827	n/a	n/a	GoodResponse	0	0.0	n/a	6	56	ISIslide	Neutral	True
540.817	0.25	Control	0.6552	0.0	Yes	3.483	0.017	n/a	GoodResponse	0	n/a	n/a	6	57	Cue	Neutral	True
541.068	4.0	Control	0.6552	0.0	Yes	3.483	0.001	n/a	GoodResponse	0	n/a	n/a	6	57	Fixation	Neutral	True
545.063	0.43	Control	0.6552	0.004	Yes	3.483	-0.004	2.0	GoodResponse	0	0.258	544.321	6	57	Target	Neutral	True
545.321	0.3	Control	0.6552	0.004	Yes	3.483	-0.004	2.0	GoodResponse	0	0.258	n/a	6	57	ButtonPress	Neutral	True
545.497	0.27	Control	0.6552	n/a	Yes	3.483	n/a	n/a	GoodResponse	0	n/a	n/a	6	57	Blank	Neutral	True
545.765	1.45	Control	0.6552	n/a	Yes	3.483	n/a	5.0	GoodResponse	0	0.006	544.771	6	57	Feedback	Neutral	True
547.219	3.483	Control	0.6552	n/a	Yes	3.483	n/a	n/a	GoodResponse	0	0.0	n/a	6	57	ISIslide	Neutral	True
550.73	0.25	Win2	0.6609999999999999	0.0	Yes	2.72	0.03	n/a	GoodResponse	1	n/a	n/a	7	58	Cue	Win	True
550.98	4.05	Win2	0.6609999999999999	0.001	Yes	2.72	0.0	n/a	GoodResponse	1	n/a	n/a	7	58	Fixation	Win	True
555.026	0.43	Win2	0.6609999999999999	0.004	Yes	2.72	-0.004	2.0	GoodResponse	1	0.244	554.27	7	58	Target	Win	True
555.27	0.3	Win2	0.6609999999999999	0.004	Yes	2.72	-0.004	2.0	GoodResponse	1	0.244	n/a	7	58	ButtonPress	Win	True
555.461	0.27	Win2	0.6609999999999999	n/a	Yes	2.72	n/a	n/a	GoodResponse	1	n/a	n/a	7	58	Blank	Win	True
555.728	1.45	Win2	0.6609999999999999	n/a	Yes	2.72	n/a	5.0	GoodResponse	1	0.041	554.769	7	58	Feedback	Win	True
557.182	2.72	Win2	0.6609999999999999	n/a	Yes	2.72	n/a	n/a	GoodResponse	1	0.0	n/a	7	58	ISIslide	Win	True
559.924	0.25	Lose2	0.65	0.0	No	2.676	0.024	n/a	NoResponse	-1	n/a	n/a	6	59	Cue	Loss	True
560.175	4.0	Lose2	0.65	0.0	No	2.676	0.001	n/a	NoResponse	-1	n/a	n/a	6	59	Fixation	Loss	True
564.17	0.43	Lose2	0.65	0.004	No	2.676	-0.004	2.0	NoResponse	-1	0.45	563.62	6	59	Target	Loss	True
564.604	0.27	Lose2	0.65	n/a	No	2.676	n/a	n/a	NoResponse	-1	n/a	n/a	6	59	Blank	Loss	True
564.62	0.3	Lose2	0.65	0.004	No	2.676	-0.004	2.0	NoResponse	-1	0.45	n/a	6	59	ButtonPress	Loss	True
564.872	1.45	Lose2	0.65	n/a	No	2.676	n/a	5.0	NoResponse	-1	0.019	563.891	6	59	Feedback	Loss	True
566.326	2.676	Lose2	0.65	n/a	No	2.676	n/a	n/a	NoResponse	-1	0.0	n/a	6	59	ISIslide	Loss	True
569.018	0.25	Control	0.6557	0.0	Yes	2.682	0.018	n/a	GoodResponse	0	n/a	n/a	6	60	Cue	Neutral	True
569.268	4.0	Control	0.6557	0.0	Yes	2.682	0.0	n/a	GoodResponse	0	n/a	n/a	6	60	Fixation	Neutral	True
573.264	0.44	Control	0.6557	0.004	Yes	2.682	-0.004	2.0	GoodResponse	0	0.285	572.549	6	60	Target	Neutral	True
573.549	0.3	Control	0.6557	0.004	Yes	2.682	-0.004	2.0	GoodResponse	0	0.285	n/a	6	60	ButtonPress	Neutral	True
573.715	0.26	Control	0.6557	n/a	Yes	2.682	n/a	n/a	GoodResponse	0	n/a	n/a	6	60	Blank	Neutral	True
573.966	1.45	Control	0.6557	n/a	Yes	2.682	n/a	5.0	GoodResponse	0	0.048	573.014	6	60	Feedback	Neutral	True
575.42	2.682	Control	0.6557	n/a	Yes	2.682	n/a	n/a	GoodResponse	0	0.0	n/a	6	60	ISIslide	Neutral	True
578.128	0.25	Lose2	0.6613	0.0	Yes	2.972	0.028	n/a	GoodResponse	0	n/a	n/a	6	61	Cue	AvoidedLoss	True
578.379	4.0	Lose2	0.6613	0.0	Yes	2.972	0.001	n/a	GoodResponse	0	n/a	n/a	6	61	Fixation	AvoidedLoss	True
582.374	0.44	Lose2	0.6613	0.004	Yes	2.972	-0.004	2.0	GoodResponse	0	0.301	581.675	6	61	Target	AvoidedLoss	True
582.675	0.3	Lose2	0.6613	0.004	Yes	2.972	-0.004	2.0	GoodResponse	0	0.301	n/a	6	61	ButtonPress	AvoidedLoss	True
582.825	0.26	Lose2	0.6613	n/a	Yes	2.972	n/a	n/a	GoodResponse	0	n/a	n/a	6	61	Blank	AvoidedLoss	True
583.076	1.45	Lose2	0.6613	n/a	Yes	2.972	n/a	5.0	GoodResponse	0	0.01	582.086	6	61	Feedback	AvoidedLoss	True
584.531	2.972	Lose2	0.6613	n/a	Yes	2.972	n/a	n/a	GoodResponse	0	0.0	n/a	6	61	ISIslide	AvoidedLoss	True
587.523	0.25	Lose2	0.6667000000000001	0.0	Yes	2.877	0.023	n/a	GoodResponse	0	n/a	n/a	6	62	Cue	AvoidedLoss	True
587.774	3.9	Lose2	0.6667000000000001	0.0	Yes	2.877	0.001	n/a	GoodResponse	0	n/a	n/a	6	62	Fixation	AvoidedLoss	True
591.669	0.44	Lose2	0.6667000000000001	0.004	Yes	2.877	-0.004	2.0	GoodResponse	0	0.26	590.929	6	62	Target	AvoidedLoss	True
591.929	0.3	Lose2	0.6667000000000001	0.004	Yes	2.877	-0.004	2.0	GoodResponse	0	0.26	n/a	6	62	ButtonPress	AvoidedLoss	True
592.12	0.26	Lose2	0.6667000000000001	n/a	Yes	2.877	n/a	n/a	GoodResponse	0	n/a	n/a	6	62	Blank	AvoidedLoss	True
592.371	1.45	Lose2	0.6667000000000001	n/a	Yes	2.877	n/a	5.0	GoodResponse	0	0.032	591.403	6	62	Feedback	AvoidedLoss	True
593.825	2.877	Lose2	0.6667000000000001	n/a	Yes	2.877	n/a	n/a	GoodResponse	0	0.0	n/a	6	62	ISIslide	AvoidedLoss	True
596.717	0.25	Lose2	0.6718999999999999	0.0	Yes	2.633	0.017	n/a	GoodResponse	0	n/a	n/a	6	63	Cue	AvoidedLoss	True
596.968	4.05	Lose2	0.6718999999999999	0.0	Yes	2.633	0.001	n/a	GoodResponse	0	n/a	n/a	6	63	Fixation	AvoidedLoss	True
601.013	0.43	Lose2	0.6718999999999999	0.004	Yes	2.633	-0.004	2.0	GoodResponse	0	0.156	600.169	6	63	Target	AvoidedLoss	True
601.169	0.3	Lose2	0.6718999999999999	0.004	Yes	2.633	-0.004	2.0	GoodResponse	0	0.156	n/a	6	63	ButtonPress	AvoidedLoss	True
601.448	0.27	Lose2	0.6718999999999999	n/a	Yes	2.633	n/a	n/a	GoodResponse	0	n/a	n/a	6	63	Blank	AvoidedLoss	True
601.715	1.45	Lose2	0.6718999999999999	n/a	Yes	2.633	n/a	5.0	GoodResponse	0	0.006	600.721	6	63	Feedback	AvoidedLoss	True
603.17	2.633	Lose2	0.6718999999999999	n/a	Yes	2.633	n/a	n/a	GoodResponse	0	0.0	n/a	6	63	ISIslide	AvoidedLoss	True
605.827	0.25	Win2	0.6769	0.001	Yes	3.123	0.027	n/a	GoodResponse	1	n/a	n/a	7	64	Cue	Win	True
606.078	4.15	Win2	0.6769	0.0	Yes	3.123	0.001	n/a	GoodResponse	1	n/a	n/a	7	64	Fixation	Win	True
610.224	0.42	Win2	0.6769	0.003	Yes	3.123	-0.003	2.0	GoodResponse	1	0.262	609.486	7	64	Target	Win	True
610.486	0.3	Win2	0.6769	0.003	Yes	3.123	-0.003	2.0	GoodResponse	1	0.262	n/a	7	64	ButtonPress	Win	True
610.659	0.28	Win2	0.6769	n/a	Yes	3.123	n/a	n/a	GoodResponse	1	n/a	n/a	7	64	Blank	Win	True
610.926	1.45	Win2	0.6769	n/a	Yes	3.123	n/a	5.0	GoodResponse	1	0.014	609.94	7	64	Feedback	Win	True
612.38	3.123	Win2	0.6769	n/a	Yes	3.123	n/a	n/a	GoodResponse	1	0.0	n/a	7	64	ISIslide	Win	True
615.523	0.25	Control	0.6818000000000001	0.0	Yes	2.777	0.023	n/a	GoodResponse	0	n/a	n/a	7	65	Cue	Neutral	True
615.774	4.0	Control	0.6818000000000001	0.0	Yes	2.777	0.001	n/a	GoodResponse	0	n/a	n/a	7	65	Fixation	Neutral	True
619.769	0.41	Control	0.6818000000000001	0.004	Yes	2.777	-0.004	2.0	GoodResponse	0	0.239	619.008	7	65	Target	Neutral	True
620.008	0.3	Control	0.6818000000000001	0.004	Yes	2.777	-0.004	2.0	GoodResponse	0	0.239	n/a	7	65	ButtonPress	Neutral	True
620.187	0.29	Control	0.6818000000000001	n/a	Yes	2.777	n/a	n/a	GoodResponse	0	n/a	n/a	7	65	Blank	Neutral	True
620.471	1.45	Control	0.6818000000000001	n/a	Yes	2.777	n/a	5.0	GoodResponse	0	0.029	619.5	7	65	Feedback	Neutral	True
621.925	2.777	Control	0.6818000000000001	n/a	Yes	2.777	n/a	n/a	GoodResponse	0	0.0	n/a	7	65	ISIslide	Neutral	True
624.717	0.25	Win2	0.6866	0.0	Yes	2.783	0.017	n/a	GoodResponse	1	n/a	n/a	8	66	Cue	Win	True
624.968	3.9	Win2	0.6866	0.0	Yes	2.783	0.001	n/a	GoodResponse	1	n/a	n/a	8	66	Fixation	Win	True
628.863	0.4	Win2	0.6866	0.004	Yes	2.783	-0.004	2.0	GoodResponse	1	0.245	628.108	8	66	Target	Win	True
629.108	0.3	Win2	0.6866	0.004	Yes	2.783	-0.004	2.0	GoodResponse	1	0.245	n/a	8	66	ButtonPress	Win	True
629.264	0.3	Win2	0.6866	n/a	Yes	2.783	n/a	n/a	GoodResponse	1	n/a	n/a	8	66	Blank	Win	True
629.565	1.45	Win2	0.6866	n/a	Yes	2.783	n/a	5.0	GoodResponse	1	0.008	628.573	8	66	Feedback	Win	True
631.019	2.783	Win2	0.6866	n/a	Yes	2.783	n/a	n/a	GoodResponse	1	0.0	n/a	8	66	ISIslide	Win	True
633.828	0.25	Control	0.6912	0.0	Yes	2.722	0.028	n/a	GoodResponse	0	n/a	n/a	8	67	Cue	Neutral	True
634.078	3.95	Control	0.6912	0.0	Yes	2.722	0.0	n/a	GoodResponse	0	n/a	n/a	8	67	Fixation	Neutral	True
638.023	0.39	Control	0.6912	0.005	Yes	2.722	-0.005	2.0	GoodResponse	0	0.243	637.266	8	67	Target	Neutral	True
638.266	0.3	Control	0.6912	0.005	Yes	2.722	-0.005	2.0	GoodResponse	0	0.243	n/a	8	67	ButtonPress	Neutral	True
638.425	0.31	Control	0.6912	n/a	Yes	2.722	n/a	n/a	GoodResponse	0	n/a	n/a	8	67	Blank	Neutral	True
638.726	1.45	Control	0.6912	n/a	Yes	2.722	n/a	5.0	GoodResponse	0	0.018	637.744	8	67	Feedback	Neutral	True
640.18	2.722	Control	0.6912	n/a	Yes	2.722	n/a	n/a	GoodResponse	0	0.0	n/a	8	67	ISIslide	Neutral	True
642.921	0.25	Win2	0.6957	0.0	Yes	3.079	0.021	n/a	GoodResponse	1	n/a	n/a	9	68	Cue	Win	True
643.172	4.0	Win2	0.6957	0.0	Yes	3.079	0.001	n/a	GoodResponse	1	n/a	n/a	9	68	Fixation	Win	True
647.167	0.38	Win2	0.6957	0.004	Yes	3.079	-0.004	2.0	GoodResponse	1	0.339	646.506	9	68	Target	Win	True
647.506	0.3	Win2	0.6957	0.004	Yes	3.079	-0.004	2.0	GoodResponse	1	0.339	n/a	9	68	ButtonPress	Win	True
647.552	0.32	Win2	0.6957	n/a	Yes	3.079	n/a	n/a	GoodResponse	1	n/a	n/a	9	68	Blank	Win	True
647.87	1.45	Win2	0.6957	n/a	Yes	3.079	n/a	5.0	GoodResponse	1	0.044	646.914	9	68	Feedback	Win	True
649.324	3.079	Win2	0.6957	n/a	Yes	3.079	n/a	n/a	GoodResponse	1	0.0	n/a	9	68	ISIslide	Win	True
652.416	0.25	Win2	0.7	0.001	Yes	3.234	0.016	n/a	GoodResponse	1	n/a	n/a	10	69	Cue	Win	False
652.667	3.95	Win2	0.7	0.0	Yes	3.234	0.001	2.0	GoodResponse	1	0.185	651.852	10	69	Fixation	Win	False
652.852	0.3	Win2	0.7	0.0	Yes	3.234	0.001	2.0	GoodResponse	1	0.185	n/a	10	69	ButtonPress	Win	False
656.612	0.37	Win2	0.7	0.004	Yes	3.234	-0.004	2.0	GoodResponse	1	0.237	655.849	10	69	Target	Win	False
656.849	0.3	Win2	0.7	0.004	Yes	3.234	-0.004	2.0	GoodResponse	1	0.237	n/a	10	69	ButtonPress	Win	False
656.997	0.33	Win2	0.7	n/a	Yes	3.234	n/a	n/a	GoodResponse	1	n/a	n/a	10	69	Blank	Win	False
657.314	1.45	Win2	0.7	n/a	Yes	3.234	n/a	5.0	GoodResponse	1	0.015	656.329	10	69	Feedback	Win	False
658.769	3.234	Win2	0.7	n/a	Yes	3.234	n/a	n/a	GoodResponse	1	0.0	n/a	10	69	ISIslide	Win	False
662.028	0.25	Lose2	0.7042	0.001	Yes	3.022	0.028	n/a	GoodResponse	0	n/a	n/a	10	70	Cue	AvoidedLoss	True
662.279	4.05	Lose2	0.7042	0.0	Yes	3.022	0.001	n/a	GoodResponse	0	n/a	n/a	10	70	Fixation	AvoidedLoss	True
666.325	0.36	Lose2	0.7042	0.003	Yes	3.022	-0.003	2.0	GoodResponse	0	0.233	665.558	10	70	Target	AvoidedLoss	True
666.558	0.3	Lose2	0.7042	0.003	Yes	3.022	-0.003	2.0	GoodResponse	0	0.233	n/a	10	70	ButtonPress	AvoidedLoss	True
666.692	0.34	Lose2	0.7042	n/a	Yes	3.022	n/a	n/a	GoodResponse	0	n/a	n/a	10	70	Blank	AvoidedLoss	True
667.027	1.45	Lose2	0.7042	n/a	Yes	3.022	n/a	5.0	GoodResponse	0	0.009	666.036	10	70	Feedback	AvoidedLoss	True
668.481	3.022	Lose2	0.7042	n/a	Yes	3.022	n/a	n/a	GoodResponse	0	0.0	n/a	10	70	ISIslide	AvoidedLoss	True
671.523	0.25	Win2	0.7082999999999999	0.0	Yes	2.727	0.023	n/a	GoodResponse	1	n/a	n/a	11	71	Cue	Win	True
671.774	4.05	Win2	0.7082999999999999	0.0	Yes	2.727	0.001	n/a	GoodResponse	1	n/a	n/a	11	71	Fixation	Win	True
675.82	0.35	Win2	0.7082999999999999	0.003	Yes	2.727	-0.003	2.0	GoodResponse	1	0.224	675.044	11	71	Target	Win	True
676.044	0.3	Win2	0.7082999999999999	0.003	Yes	2.727	-0.003	2.0	GoodResponse	1	0.224	n/a	11	71	ButtonPress	Win	True
676.171	0.35	Win2	0.7082999999999999	n/a	Yes	2.727	n/a	n/a	GoodResponse	1	n/a	n/a	11	71	Blank	Win	True
676.522	1.45	Win2	0.7082999999999999	n/a	Yes	2.727	n/a	5.0	GoodResponse	1	0.026	675.548	11	71	Feedback	Win	True
677.976	2.727	Win2	0.7082999999999999	n/a	Yes	2.727	n/a	n/a	GoodResponse	1	0.0	n/a	11	71	ISIslide	Win	True
680.718	0.25	Win2	0.7123	0.0	Yes	2.782	0.018	n/a	GoodResponse	1	n/a	n/a	12	72	Cue	Win	True
680.968	4.1	Win2	0.7123	0.0	Yes	2.782	0.0	n/a	GoodResponse	1	n/a	n/a	12	72	Fixation	Win	True
685.064	0.34	Win2	0.7123	0.004	Yes	2.782	-0.004	2.0	GoodResponse	1	0.214	684.278	12	72	Target	Win	True
685.278	0.3	Win2	0.7123	0.004	Yes	2.782	-0.004	2.0	GoodResponse	1	0.214	n/a	12	72	ButtonPress	Win	True
685.415	0.36	Win2	0.7123	n/a	Yes	2.782	n/a	n/a	GoodResponse	1	n/a	n/a	12	72	Blank	Win	True
685.766	1.45	Win2	0.7123	n/a	Yes	2.782	n/a	5.0	GoodResponse	1	0.001	684.767	12	72	Feedback	Win	True
687.22	2.782	Win2	0.7123	n/a	Yes	2.782	n/a	n/a	GoodResponse	1	0.0	n/a	12	72	ISIslide	Win	True
690.029	0.25	Win2	0.7162000000000001	0.0	Yes	2.671	0.029	n/a	GoodResponse	1	n/a	n/a	13	73	Cue	Win	True
690.279	4.0	Win2	0.7162000000000001	0.0	Yes	2.671	0.0	n/a	GoodResponse	1	n/a	n/a	13	73	Fixation	Win	True
694.275	0.33	Win2	0.7162000000000001	0.004	Yes	2.671	-0.004	2.0	GoodResponse	1	0.249	693.524	13	73	Target	Win	True
694.524	0.3	Win2	0.7162000000000001	0.004	Yes	2.671	-0.004	2.0	GoodResponse	1	0.249	n/a	13	73	ButtonPress	Win	True
694.609	0.37	Win2	0.7162000000000001	n/a	Yes	2.671	n/a	n/a	GoodResponse	1	n/a	n/a	13	73	Blank	Win	True
694.977	1.45	Win2	0.7162000000000001	n/a	Yes	2.671	n/a	5.0	GoodResponse	1	0.009	693.986	13	73	Feedback	Win	True
696.431	2.671	Win2	0.7162000000000001	n/a	Yes	2.671	n/a	n/a	GoodResponse	1	0.0	n/a	13	73	ISIslide	Win	True
699.122	0.25	Lose2	0.72	0.0	Yes	2.628	0.022	n/a	GoodResponse	0	n/a	n/a	13	74	Cue	AvoidedLoss	True
699.373	4.05	Lose2	0.72	0.0	Yes	2.628	0.001	n/a	GoodResponse	0	n/a	n/a	13	74	Fixation	AvoidedLoss	True
703.419	0.32	Lose2	0.72	0.003	Yes	2.628	-0.003	2.0	GoodResponse	0	0.209	702.628	13	74	Target	AvoidedLoss	True
703.628	0.3	Lose2	0.72	0.003	Yes	2.628	-0.003	2.0	GoodResponse	0	0.209	n/a	13	74	ButtonPress	AvoidedLoss	True
703.753	0.38	Lose2	0.72	n/a	Yes	2.628	n/a	n/a	GoodResponse	0	n/a	n/a	13	74	Blank	AvoidedLoss	True
704.121	1.45	Lose2	0.72	n/a	Yes	2.628	n/a	5.0	GoodResponse	0	0.036	703.157	13	74	Feedback	AvoidedLoss	True
705.575	2.628	Lose2	0.72	n/a	Yes	2.628	n/a	n/a	GoodResponse	0	0.0	n/a	13	74	ISIslide	AvoidedLoss	True
708.216	0.25	Lose2	0.7237	0.0	Yes	2.934	0.016	n/a	GoodResponse	0	n/a	n/a	13	75	Cue	AvoidedLoss	True
708.467	3.95	Lose2	0.7237	0.0	Yes	2.934	0.001	n/a	GoodResponse	0	n/a	n/a	13	75	Fixation	AvoidedLoss	True
712.412	0.31	Lose2	0.7237	0.004	Yes	2.934	-0.004	2.0	GoodResponse	0	0.228	711.64	13	75	Target	AvoidedLoss	True
712.64	0.3	Lose2	0.7237	0.004	Yes	2.934	-0.004	2.0	GoodResponse	0	0.228	n/a	13	75	ButtonPress	AvoidedLoss	True
712.73	0.39	Lose2	0.7237	n/a	Yes	2.934	n/a	n/a	GoodResponse	0	n/a	n/a	13	75	Blank	AvoidedLoss	True
713.114	1.45	Lose2	0.7237	n/a	Yes	2.934	n/a	5.0	GoodResponse	0	0.019	712.133	13	75	Feedback	AvoidedLoss	True
714.568	2.934	Lose2	0.7237	n/a	Yes	2.934	n/a	n/a	GoodResponse	0	0.0	n/a	13	75	ISIslide	AvoidedLoss	True
717.527	0.25	Control	0.7273000000000001	0.0	Yes	3.223	0.027	n/a	GoodResponse	0	n/a	n/a	13	76	Cue	Neutral	True
717.778	4.05	Control	0.7273000000000001	0.0	Yes	3.223	0.001	n/a	GoodResponse	0	n/a	n/a	13	76	Fixation	Neutral	True
721.823	0.3	Control	0.7273000000000001	0.004	Yes	3.223	-0.004	2.0	GoodResponse	0	0.208	721.031	13	76	Target	Neutral	True
722.031	0.3	Control	0.7273000000000001	0.004	Yes	3.223	-0.004	2.0	GoodResponse	0	0.208	n/a	13	76	ButtonPress	Neutral	True
722.124	0.4	Control	0.7273000000000001	n/a	Yes	3.223	n/a	n/a	GoodResponse	0	n/a	n/a	13	76	Blank	Neutral	True
722.526	1.45	Control	0.7273000000000001	n/a	Yes	3.223	n/a	5.0	GoodResponse	0	0.021	721.547	13	76	Feedback	Neutral	True
723.98	3.223	Control	0.7273000000000001	n/a	Yes	3.223	n/a	n/a	GoodResponse	0	0.0	n/a	13	76	ISIslide	Neutral	True
727.223	0.25	Lose2	0.7308	0.0	Yes	2.577	0.023	n/a	GoodResponse	0	n/a	n/a	13	77	Cue	AvoidedLoss	True
727.474	3.95	Lose2	0.7308	0.0	Yes	2.577	0.001	n/a	GoodResponse	0	n/a	n/a	13	77	Fixation	AvoidedLoss	True
731.419	0.29	Lose2	0.7308	0.004	Yes	2.577	-0.004	2.0	GoodResponse	0	0.255	730.674	13	77	Target	AvoidedLoss	True
731.674	0.3	Lose2	0.7308	0.004	Yes	2.577	-0.004	2.0	GoodResponse	0	0.255	n/a	13	77	ButtonPress	AvoidedLoss	True
731.72	0.41	Lose2	0.7308	n/a	Yes	2.577	n/a	n/a	GoodResponse	0	n/a	n/a	13	77	Blank	AvoidedLoss	True
732.121	1.45	Lose2	0.7308	n/a	Yes	2.577	n/a	5.0	GoodResponse	0	0.036	731.157	13	77	Feedback	AvoidedLoss	True
733.575	2.577	Lose2	0.7308	n/a	Yes	2.577	n/a	n/a	GoodResponse	0	0.0	n/a	13	77	ISIslide	AvoidedLoss	True
