onset	duration	cue_type	current_mean_accuracy	duration_error	is_hit	isi_adjusted	onset_delay	response	response_type	reward	rt	rt_time	total_reward	trial_number	trial_phase	trial_type	one_press
11.1	0.25	Control	1.0	0.0	Yes	2.95	0.0	n/a	GoodResponse	0	n/a	n/a	0	0	Cue	Neutral	True
11.35	3.85	Control	1.0	0.0	Yes	2.95	0.0	n/a	GoodResponse	0	n/a	n/a	0	0	Fixation	Neutral	True
15.199	0.4	Control	1.0	0.001	Yes	2.95	-0.001	2.0	GoodResponse	0	0.244	14.443	0	0	Target	Neutral	True
15.443	0.3	Control	1.0	0.001	Yes	2.95	-0.001	2.0	GoodResponse	0	0.244	n/a	0	0	ButtonPress	Neutral	True
15.599	0.3	Control	1.0	n/a	Yes	2.95	n/a	n/a	GoodResponse	0	n/a	n/a	0	0	Blank	Neutral	True
15.898	1.45	Control	1.0	n/a	Yes	2.95	n/a	5.0	GoodResponse	0	0.029	14.927	0	0	Feedback	Neutral	True
17.348	2.95	Control	1.0	n/a	Yes	2.95	n/a	n/a	GoodResponse	0	0.0	n/a	0	0	ISIslide	Neutral	True
20.314	0.25	Lose2	1.0	0.0	Yes	2.786	0.014	n/a	GoodResponse	0	n/a	n/a	0	1	Cue	AvoidedLoss	True
20.564	4.0	Lose2	1.0	0.0	Yes	2.786	0.0	n/a	GoodResponse	0	n/a	n/a	0	1	Fixation	AvoidedLoss	True
24.562	0.39	Lose2	1.0	0.002	Yes	2.786	-0.002	2.0	GoodResponse	0	0.227	23.789	0	1	Target	AvoidedLoss	True
24.789	0.3	Lose2	1.0	0.002	Yes	2.786	-0.002	2.0	GoodResponse	0	0.227	n/a	0	1	ButtonPress	AvoidedLoss	True
24.962	0.31	Lose2	1.0	n/a	Yes	2.786	n/a	n/a	GoodResponse	0	n/a	n/a	0	1	Blank	AvoidedLoss	True
25.262	1.45	Lose2	1.0	n/a	Yes	2.786	n/a	5.0	GoodResponse	0	0.031	24.293	0	1	Feedback	AvoidedLoss	True
26.711	2.786	Lose2	1.0	n/a	Yes	2.786	n/a	n/a	GoodResponse	0	0.0	n/a	0	1	ISIslide	AvoidedLoss	True
29.527	0.25	Control	1.0	0.0	Yes	2.573	0.027	n/a	GoodResponse	0	n/a	n/a	0	2	Cue	Neutral	True
29.777	4.1	Control	1.0	0.0	Yes	2.573	0.0	n/a	GoodResponse	0	n/a	n/a	0	2	Fixation	Neutral	True
33.875	0.38	Control	1.0	0.002	Yes	2.573	-0.002	2.0	GoodResponse	0	0.206	33.081	0	2	Target	Neutral	True
34.081	0.3	Control	1.0	0.002	Yes	2.573	-0.002	2.0	GoodResponse	0	0.206	n/a	0	2	ButtonPress	Neutral	True
34.259	0.32	Control	1.0	n/a	Yes	2.573	n/a	n/a	GoodResponse	0	n/a	n/a	0	2	Blank	Neutral	True
34.575	1.45	Control	1.0	n/a	Yes	2.573	n/a	5.0	GoodResponse	0	0.035	33.61	0	2	Feedback	Neutral	True
36.025	2.573	Control	1.0	n/a	Yes	2.573	n/a	n/a	GoodResponse	0	0.0	n/a	0	2	ISIslide	Neutral	True
38.624	0.25	Win2	1.0	0.0	Yes	2.826	0.024	n/a	GoodResponse	1	n/a	n/a	1	3	Cue	Win	True
38.874	3.95	Win2	1.0	0.0	Yes	2.826	0.0	n/a	GoodResponse	1	n/a	n/a	1	3	Fixation	Win	True
42.822	0.37	Win2	1.0	0.002	Yes	2.826	-0.002	2.0	GoodResponse	1	0.214	42.036	1	3	Target	Win	True
43.036	0.3	Win2	1.0	0.002	Yes	2.826	-0.002	2.0	GoodResponse	1	0.214	n/a	1	3	ButtonPress	Win	True
43.206	0.33	Win2	1.0	n/a	Yes	2.826	n/a	n/a	GoodResponse	1	n/a	n/a	1	3	Blank	Win	True
43.522	1.45	Win2	1.0	n/a	Yes	2.826	n/a	5.0	GoodResponse	1	0.014	42.536	1	3	Feedback	Win	True
44.972	2.826	Win2	1.0	n/a	Yes	2.826	n/a	n/a	GoodResponse	1	0.0	n/a	1	3	ISIslide	Win	True
47.821	0.25	Win2	1.0	0.0	Yes	3.279	0.021	n/a	GoodResponse	1	n/a	n/a	2	4	Cue	Win	True
48.07	4.0	Win2	1.0	0.001	Yes	3.279	-0.001	n/a	GoodResponse	1	n/a	n/a	2	4	Fixation	Win	True
52.069	0.36	Win2	1.0	0.002	Yes	3.279	-0.002	2.0	GoodResponse	1	0.262	51.331	2	4	Target	Win	True
52.331	0.3	Win2	1.0	0.002	Yes	3.279	-0.002	2.0	GoodResponse	1	0.262	n/a	2	4	ButtonPress	Win	True
52.436	0.34	Win2	1.0	n/a	Yes	3.279	n/a	n/a	GoodResponse	1	n/a	n/a	2	4	Blank	Win	True
52.769	1.45	Win2	1.0	n/a	Yes	3.279	n/a	5.0	GoodResponse	1	0.035	51.804	2	4	Feedback	Win	True
54.218	3.279	Win2	1.0	n/a	Yes	3.279	n/a	n/a	GoodResponse	1	0.0	n/a	2	4	ISIslide	Win	True
57.517	0.25	Win2	1.0	0.0	Yes	2.783	0.017	n/a	GoodResponse	1	n/a	n/a	3	5	Cue	Win	True
57.767	4.0	Win2	1.0	0.0	Yes	2.783	0.0	n/a	GoodResponse	1	n/a	n/a	3	5	Fixation	Win	True
61.766	0.35	Win2	1.0	0.001	Yes	2.783	-0.001	2.0	GoodResponse	1	0.252	61.018	3	5	Target	Win	True
62.018	0.3	Win2	1.0	0.001	Yes	2.783	-0.001	2.0	GoodResponse	1	0.252	n/a	3	5	ButtonPress	Win	True
62.116	0.35	Win2	1.0	n/a	Yes	2.783	n/a	n/a	GoodResponse	1	n/a	n/a	3	5	Blank	Win	True
62.465	1.45	Win2	1.0	n/a	Yes	2.783	n/a	5.0	GoodResponse	1	0.047	61.512	3	5	Feedback	Win	True
63.915	2.783	Win2	1.0	n/a	Yes	2.783	n/a	n/a	GoodResponse	1	0.0	n/a	3	5	ISIslide	Win	True
66.714	0.25	Lose2	1.0	0.0	Yes	2.736	0.014	n/a	GoodResponse	0	n/a	n/a	3	6	Cue	AvoidedLoss	True
66.964	3.95	Lose2	1.0	0.0	Yes	2.736	0.0	n/a	GoodResponse	0	n/a	n/a	3	6	Fixation	AvoidedLoss	True
70.912	0.34	Lose2	1.0	0.002	Yes	2.736	-0.002	2.0	GoodResponse	0	0.232	70.144	3	6	Target	AvoidedLoss	True
71.144	0.3	Lose2	1.0	0.002	Yes	2.736	-0.002	2.0	GoodResponse	0	0.232	n/a	3	6	ButtonPress	AvoidedLoss	True
71.262	0.36	Lose2	1.0	n/a	Yes	2.736	n/a	n/a	GoodResponse	0	n/a	n/a	3	6	Blank	AvoidedLoss	True
71.612	1.45	Lose2	1.0	n/a	Yes	2.736	n/a	5.0	GoodResponse	0	0.022	70.634	3	6	Feedback	AvoidedLoss	True
73.062	2.736	Lose2	1.0	n/a	Yes	2.736	n/a	n/a	GoodResponse	0	0.0	n/a	3	6	ISIslide	AvoidedLoss	True
75.827	0.25	Lose2	1.0	0.0	Yes	4.023	0.027	n/a	GoodResponse	0	n/a	n/a	3	7	Cue	AvoidedLoss	True
76.077	4.05	Lose2	1.0	0.0	Yes	4.023	0.0	n/a	GoodResponse	0	n/a	n/a	3	7	Fixation	AvoidedLoss	True
80.126	0.33	Lose2	1.0	0.001	Yes	4.023	-0.001	2.0	GoodResponse	0	0.258	79.384	3	7	Target	AvoidedLoss	True
80.384	0.3	Lose2	1.0	0.001	Yes	4.023	-0.001	2.0	GoodResponse	0	0.258	n/a	3	7	ButtonPress	AvoidedLoss	True
80.459	0.37	Lose2	1.0	n/a	Yes	4.023	n/a	n/a	GoodResponse	0	n/a	n/a	3	7	Blank	AvoidedLoss	True
80.826	1.45	Lose2	1.0	n/a	Yes	4.023	n/a	5.0	GoodResponse	0	0.028	79.854	3	7	Feedback	AvoidedLoss	True
82.275	4.023	Lose2	1.0	n/a	Yes	4.023	n/a	n/a	GoodResponse	0	0.0	n/a	3	7	ISIslide	AvoidedLoss	True
86.324	0.25	Lose2	0.8889	0.0	No	3.026	0.024	n/a	NoResponse	-1	n/a	n/a	2	8	Cue	Loss	True
86.574	3.95	Lose2	0.8889	0.0	No	3.026	0.0	2.0	NoResponse	-1	3.561	89.135	2	8	Fixation	Loss	True
90.135	0.3	Lose2	0.8889	0.0	No	3.026	0.0	2.0	NoResponse	-1	3.561	n/a	2	8	ButtonPress	Loss	True
90.522	0.32	Lose2	0.8889	0.002	No	3.026	-0.002	n/a	NoResponse	-1	n/a	n/a	2	8	Target	Loss	True
90.855	0.38	Lose2	0.8889	n/a	No	3.026	n/a	n/a	NoResponse	-1	n/a	n/a	2	8	Blank	Loss	True
91.222	1.45	Lose2	0.8889	n/a	No	3.026	n/a	5.0	NoResponse	-1	0.021	90.243	2	8	Feedback	Loss	True
92.671	3.026	Lose2	0.8889	n/a	No	3.026	n/a	n/a	NoResponse	-1	0.0	n/a	2	8	ISIslide	Loss	True
95.72	0.25	Lose2	0.8	0.0	No	3.13	0.02	n/a	NoResponse	-1	n/a	n/a	1	9	Cue	Loss	True
95.97	3.95	Lose2	0.8	0.0	No	3.13	0.0	n/a	NoResponse	-1	n/a	n/a	1	9	Fixation	Loss	True
99.919	0.31	Lose2	0.8	0.001	No	3.13	-0.001	2.0	NoResponse	-1	0.317	99.236	1	9	Target	Loss	True
100.235	0.39	Lose2	0.8	n/a	No	3.13	n/a	n/a	NoResponse	-1	n/a	n/a	1	9	Blank	Loss	True
100.236	0.3	Lose2	0.8	0.001	No	3.13	-0.001	2.0	NoResponse	-1	0.317	n/a	1	9	ButtonPress	Loss	True
100.619	1.45	Lose2	0.8	n/a	No	3.13	n/a	5.0	NoResponse	-1	0.039	99.658	1	9	Feedback	Loss	True
102.068	3.13	Lose2	0.8	n/a	No	3.13	n/a	n/a	NoResponse	-1	0.0	n/a	1	9	ISIslide	Loss	True
105.217	0.25	Control	0.8181999999999999	0.0	Yes	3.283	0.017	n/a	GoodResponse	0	n/a	n/a	1	10	Cue	Neutral	True
105.467	4.0	Control	0.8181999999999999	0.0	Yes	3.283	0.0	n/a	GoodResponse	0	n/a	n/a	1	10	Fixation	Neutral	True
109.466	0.3	Control	0.8181999999999999	0.001	Yes	3.283	-0.001	2.0	GoodResponse	0	0.266	108.732	1	10	Target	Neutral	True
109.732	0.3	Control	0.8181999999999999	0.001	Yes	3.283	-0.001	2.0	GoodResponse	0	0.266	n/a	1	10	ButtonPress	Neutral	True
109.765	0.4	Control	0.8181999999999999	n/a	Yes	3.283	n/a	n/a	GoodResponse	0	n/a	n/a	1	10	Blank	Neutral	True
110.165	1.45	Control	0.8181999999999999	n/a	Yes	3.283	n/a	5.0	GoodResponse	0	0.007	109.172	1	10	Feedback	Neutral	True
111.615	3.283	Control	0.8181999999999999	n/a	Yes	3.283	n/a	n/a	GoodResponse	0	0.0	n/a	1	10	ISIslide	Neutral	True
114.914	0.25	Lose2	0.75	0.0	No	2.736	0.014	n/a	LatePress	-1	n/a	n/a	0	11	Cue	Loss	True
115.164	4.05	Lose2	0.75	0.0	No	2.736	0.0	n/a	LatePress	-1	n/a	n/a	0	11	Fixation	Loss	True
119.212	0.29	Lose2	0.75	0.002	No	2.736	-0.002	2.0	LatePress	-1	0.293	118.505	0	11	Target	Loss	True
119.505	0.3	Lose2	0.75	0.002	No	2.736	-0.002	2.0	LatePress	-1	0.293	n/a	0	11	ButtonPress	Loss	True
119.512	0.41	Lose2	0.75	n/a	No	2.736	n/a	n/a	LatePress	-1	n/a	n/a	0	11	Blank	Loss	True
119.912	1.45	Lose2	0.75	n/a	No	2.736	n/a	5.0	LatePress	-1	0.014	118.926	0	11	Feedback	Loss	True
121.361	2.736	Lose2	0.75	n/a	No	2.736	n/a	n/a	LatePress	-1	0.0	n/a	0	11	ISIslide	Loss	True
124.127	0.25	Control	0.7692	0.0	Yes	2.973	0.027	n/a	GoodResponse	0	n/a	n/a	0	12	Cue	Neutral	True
124.377	3.9	Control	0.7692	0.0	Yes	2.973	0.0	n/a	GoodResponse	0	n/a	n/a	0	12	Fixation	Neutral	True
128.276	0.28	Control	0.7692	0.001	Yes	2.973	-0.001	2.0	GoodResponse	0	0.23	127.506	0	12	Target	Neutral	True
128.506	0.3	Control	0.7692	0.001	Yes	2.973	-0.001	2.0	GoodResponse	0	0.23	n/a	0	12	ButtonPress	Neutral	True
128.559	0.42	Control	0.7692	n/a	Yes	2.973	n/a	n/a	GoodResponse	0	n/a	n/a	0	12	Blank	Neutral	True
128.975	1.45	Control	0.7692	n/a	Yes	2.973	n/a	5.0	GoodResponse	0	0.024	127.999	0	12	Feedback	Neutral	True
130.425	2.973	Control	0.7692	n/a	Yes	2.973	n/a	n/a	GoodResponse	0	0.0	n/a	0	12	ISIslide	Neutral	True
133.424	0.25	Control	0.7857	0.0	Yes	2.776	0.024	n/a	GoodResponse	0	n/a	n/a	0	13	Cue	Neutral	True
133.674	4.0	Control	0.7857	0.0	Yes	2.776	0.0	n/a	GoodResponse	0	n/a	n/a	0	13	Fixation	Neutral	True
137.672	0.27	Control	0.7857	0.002	Yes	2.776	-0.002	2.0	GoodResponse	0	0.235	136.907	0	13	Target	Neutral	True
137.907	0.3	Control	0.7857	0.002	Yes	2.776	-0.002	2.0	GoodResponse	0	0.235	n/a	0	13	ButtonPress	Neutral	True
137.955	0.43	Control	0.7857	n/a	Yes	2.776	n/a	n/a	GoodResponse	0	n/a	n/a	0	13	Blank	Neutral	True
138.372	1.45	Control	0.7857	n/a	Yes	2.776	n/a	5.0	GoodResponse	0	0.041	137.413	0	13	Feedback	Neutral	True
139.821	2.776	Control	0.7857	n/a	Yes	2.776	n/a	n/a	GoodResponse	0	0.0	n/a	0	13	ISIslide	Neutral	True
142.621	0.25	Win2	0.8	0.0	Yes	2.679	0.021	n/a	GoodResponse	1	n/a	n/a	1	14	Cue	Win	True
142.87	4.1	Win2	0.8	0.001	Yes	2.679	-0.001	n/a	GoodResponse	1	n/a	n/a	1	14	Fixation	Win	True
146.969	0.26	Win2	0.8	0.002	Yes	2.679	-0.002	2.0	GoodResponse	1	0.252	146.221	1	14	Target	Win	True
147.221	0.3	Win2	0.8	0.002	Yes	2.679	-0.002	2.0	GoodResponse	1	0.252	n/a	1	14	ButtonPress	Win	True
147.236	0.44	Win2	0.8	n/a	Yes	2.679	n/a	n/a	GoodResponse	1	n/a	n/a	1	14	Blank	Win	True
147.669	1.45	Win2	0.8	n/a	Yes	2.679	n/a	5.0	GoodResponse	1	0.013	146.682	1	14	Feedback	Win	True
149.118	2.679	Win2	0.8	n/a	Yes	2.679	n/a	n/a	GoodResponse	1	0.0	n/a	1	14	ISIslide	Win	True
151.817	0.25	Control	0.8125	0.0	Yes	2.983	0.017	n/a	GoodResponse	0	n/a	n/a	1	15	Cue	Neutral	True
152.067	4.0	Control	0.8125	0.0	Yes	2.983	0.0	n/a	GoodResponse	0	n/a	n/a	1	15	Fixation	Neutral	True
156.066	0.25	Control	0.8125	0.001	Yes	2.983	-0.001	2.0	GoodResponse	0	0.248	155.314	1	15	Target	Neutral	True
156.314	0.3	Control	0.8125	0.001	Yes	2.983	-0.001	2.0	GoodResponse	0	0.248	n/a	1	15	ButtonPress	Neutral	True
156.316	0.45	Control	0.8125	n/a	Yes	2.983	n/a	n/a	GoodResponse	0	n/a	n/a	1	15	Blank	Neutral	True
156.766	1.45	Control	0.8125	n/a	Yes	2.983	n/a	5.0	GoodResponse	0	0.038	155.804	1	15	Feedback	Neutral	True
158.215	2.983	Control	0.8125	n/a	Yes	2.983	n/a	n/a	GoodResponse	0	0.0	n/a	1	15	ISIslide	Neutral	True
161.214	0.25	Win2	0.7646999999999999	0.0	No	2.886	0.014	n/a	LatePress	0	n/a	n/a	1	16	Cue	MissedWin	True
161.464	4.0	Win2	0.7646999999999999	0.0	No	2.886	0.0	n/a	LatePress	0	n/a	n/a	1	16	Fixation	MissedWin	True
165.462	0.24	Win2	0.7646999999999999	0.002	No	2.886	-0.002	2.0	LatePress	0	0.241	164.703	1	16	Target	MissedWin	True
165.703	0.3	Win2	0.7646999999999999	0.002	No	2.886	-0.002	2.0	LatePress	0	0.241	n/a	1	16	ButtonPress	MissedWin	True
165.712	0.46	Win2	0.7646999999999999	n/a	No	2.886	n/a	n/a	LatePress	0	n/a	n/a	1	16	Blank	MissedWin	True
166.162	1.45	Win2	0.7646999999999999	n/a	No	2.886	n/a	5.0	LatePress	0	0.008	165.17	1	16	Feedback	MissedWin	True
167.612	2.886	Win2	0.7646999999999999	n/a	No	2.886	n/a	n/a	LatePress	0	0.0	n/a	1	16	ISIslide	MissedWin	True
170.527	0.25	Lose2	0.7222	0.0	No	2.723	0.027	n/a	LatePress	-1	n/a	n/a	0	17	Cue	Loss	True
170.777	3.95	Lose2	0.7222	0.0	No	2.723	0.0	n/a	LatePress	-1	n/a	n/a	0	17	Fixation	Loss	True
174.726	0.23	Lose2	0.7222	0.001	No	2.723	-0.001	2.0	LatePress	-1	0.233	173.959	0	17	Target	Loss	True
174.959	0.47	Lose2	0.7222	n/a	No	2.723	n/a	n/a	LatePress	-1	n/a	n/a	0	17	Blank	Loss	True
174.959	0.3	Lose2	0.7222	0.001	No	2.723	-0.001	2.0	LatePress	-1	0.233	n/a	0	17	ButtonPress	Loss	True
175.426	1.45	Lose2	0.7222	n/a	No	2.723	n/a	5.0	LatePress	-1	0.011	174.437	0	17	Feedback	Loss	True
176.875	2.723	Lose2	0.7222	n/a	No	2.723	n/a	n/a	LatePress	-1	0.0	n/a	0	17	ISIslide	Loss	True
179.624	0.25	Lose2	0.6842	0.0	No	2.726	0.024	n/a	NoResponse	-1	n/a	n/a	-1	18	Cue	Loss	True
179.874	4.05	Lose2	0.6842	0.0	No	2.726	0.0	n/a	NoResponse	-1	n/a	n/a	-1	18	Fixation	Loss	True
183.923	0.22	Lose2	0.6842	0.001	No	2.726	-0.001	2.0	NoResponse	-1	0.247	183.17	-1	18	Target	Loss	True
184.156	0.48	Lose2	0.6842	n/a	No	2.726	n/a	n/a	NoResponse	-1	n/a	n/a	-1	18	Blank	Loss	True
184.17	0.3	Lose2	0.6842	0.001	No	2.726	-0.001	2.0	NoResponse	-1	0.247	n/a	-1	18	ButtonPress	Loss	True
184.622	1.45	Lose2	0.6842	n/a	No	2.726	n/a	5.0	NoResponse	-1	0.035	183.657	-1	18	Feedback	Loss	True
186.072	2.726	Lose2	0.6842	n/a	No	2.726	n/a	n/a	NoResponse	-1	0.0	n/a	-1	18	ISIslide	Loss	True
188.821	0.25	Control	0.65	0.0	No	2.929	0.021	n/a	NoResponse	0	n/a	n/a	-1	19	Cue	Neutral	True
189.071	3.95	Control	0.65	0.0	No	2.929	0.0	n/a	NoResponse	0	n/a	n/a	-1	19	Fixation	Neutral	True
193.019	0.21	Control	0.65	0.002	No	2.929	-0.002	2.0	NoResponse	0	0.253	192.272	-1	19	Target	Neutral	True
193.236	0.49	Control	0.65	n/a	No	2.929	n/a	n/a	NoResponse	0	n/a	n/a	-1	19	Blank	Neutral	True
193.272	0.3	Control	0.65	0.002	No	2.929	-0.002	2.0	NoResponse	0	0.253	n/a	-1	19	ButtonPress	Neutral	True
193.719	1.45	Control	0.65	n/a	No	2.929	n/a	5.0	NoResponse	0	0.011	192.73	-1	19	Feedback	Neutral	True
195.169	2.929	Control	0.65	n/a	No	2.929	n/a	n/a	NoResponse	0	0.0	n/a	-1	19	ISIslide	Neutral	True
198.118	0.25	Control	0.619	0.0	No	2.632	0.018	n/a	NoResponse	0	n/a	n/a	-1	20	Cue	Neutral	True
198.368	4.05	Control	0.619	0.0	No	2.632	0.0	n/a	NoResponse	0	n/a	n/a	-1	20	Fixation	Neutral	True
202.416	0.22	Control	0.619	0.002	No	2.632	-0.002	2.0	NoResponse	0	0.24	201.656	-1	20	Target	Neutral	True
202.649	0.48	Control	0.619	n/a	No	2.632	n/a	n/a	NoResponse	0	n/a	n/a	-1	20	Blank	Neutral	True
202.656	0.3	Control	0.619	0.002	No	2.632	-0.002	2.0	NoResponse	0	0.24	n/a	-1	20	ButtonPress	Neutral	True
203.116	1.45	Control	0.619	n/a	No	2.632	n/a	5.0	NoResponse	0	0.029	202.145	-1	20	Feedback	Neutral	True
204.565	2.632	Control	0.619	n/a	No	2.632	n/a	n/a	NoResponse	0	0.0	n/a	-1	20	ISIslide	Neutral	True
207.214	0.25	Control	0.5909	0.001	No	2.786	0.014	n/a	NoResponse	0	n/a	n/a	-1	21	Cue	Neutral	True
207.464	4.1	Control	0.5909	0.0	No	2.786	0.0	n/a	NoResponse	0	n/a	n/a	-1	21	Fixation	Neutral	True
211.563	0.23	Control	0.5909	0.001	No	2.786	-0.001	2.0	NoResponse	0	0.24	210.803	-1	21	Target	Neutral	True
211.796	0.47	Control	0.5909	n/a	No	2.786	n/a	n/a	NoResponse	0	n/a	n/a	-1	21	Blank	Neutral	True
211.803	0.3	Control	0.5909	0.001	No	2.786	-0.001	2.0	NoResponse	0	0.24	n/a	-1	21	ButtonPress	Neutral	True
212.263	1.45	Control	0.5909	n/a	No	2.786	n/a	5.0	NoResponse	0	0.006	211.269	-1	21	Feedback	Neutral	True
213.712	2.786	Control	0.5909	n/a	No	2.786	n/a	n/a	NoResponse	0	0.0	n/a	-1	21	ISIslide	Neutral	True
216.528	0.25	Control	0.5652	0.0	No	2.772	0.028	n/a	NoResponse	0	n/a	n/a	-1	22	Cue	Neutral	True
216.778	4.0	Control	0.5652	0.0	No	2.772	0.0	2.0	NoResponse	0	3.167	218.945	-1	22	Fixation	Neutral	True
219.945	0.3	Control	0.5652	0.0	No	2.772	0.0	2.0	NoResponse	0	3.167	n/a	-1	22	ButtonPress	Neutral	True
220.776	0.24	Control	0.5652	0.002	No	2.772	-0.002	n/a	NoResponse	0	n/a	n/a	-1	22	Target	Neutral	True
221.026	0.46	Control	0.5652	n/a	No	2.772	n/a	n/a	NoResponse	0	n/a	n/a	-1	22	Blank	Neutral	True
221.476	1.45	Control	0.5652	n/a	No	2.772	n/a	5.0	NoResponse	0	0.009	220.485	-1	22	Feedback	Neutral	True
222.926	2.772	Control	0.5652	n/a	No	2.772	n/a	n/a	NoResponse	0	0.0	n/a	-1	22	ISIslide	Neutral	True
225.725	0.25	Control	0.5832999999999999	0.0	Yes	2.775	0.025	n/a	GoodResponse	0	n/a	n/a	-1	23	Cue	Neutral	True
225.974	3.9	Control	0.5832999999999999	0.001	Yes	2.775	-0.001	n/a	GoodResponse	0	n/a	n/a	-1	23	Fixation	Neutral	True
229.873	0.25	Control	0.5832999999999999	0.002	Yes	2.775	-0.002	2.0	GoodResponse	0	0.224	229.097	-1	23	Target	Neutral	True
230.097	0.3	Control	0.5832999999999999	0.002	Yes	2.775	-0.002	2.0	GoodResponse	0	0.224	n/a	-1	23	ButtonPress	Neutral	True
230.123	0.45	Control	0.5832999999999999	n/a	Yes	2.775	n/a	n/a	GoodResponse	0	n/a	n/a	-1	23	Blank	Neutral	True
230.573	1.45	Control	0.5832999999999999	n/a	Yes	2.775	n/a	5.0	GoodResponse	0	0.035	229.608	-1	23	Feedback	Neutral	True
232.022	2.775	Control	0.5832999999999999	n/a	Yes	2.775	n/a	n/a	GoodResponse	0	0.0	n/a	-1	23	ISIslide	Neutral	True
234.821	0.25	Win2	0.6	0.0	Yes	3.129	0.021	n/a	GoodResponse	1	n/a	n/a	0	24	Cue	Win	True
235.071	3.95	Win2	0.6	0.0	Yes	3.129	0.0	n/a	GoodResponse	1	n/a	n/a	0	24	Fixation	Win	True
239.02	0.26	Win2	0.6	0.001	Yes	3.129	-0.001	2.0	GoodResponse	1	0.142	238.162	0	24	Target	Win	True
239.162	0.3	Win2	0.6	0.001	Yes	3.129	-0.001	2.0	GoodResponse	1	0.142	n/a	0	24	ButtonPress	Win	True
239.286	0.44	Win2	0.6	n/a	Yes	3.129	n/a	n/a	GoodResponse	1	n/a	n/a	0	24	Blank	Win	True
239.72	1.45	Win2	0.6	n/a	Yes	3.129	n/a	5.0	GoodResponse	1	0.01	238.73	0	24	Feedback	Win	True
241.169	3.129	Win2	0.6	n/a	Yes	3.129	n/a	n/a	GoodResponse	1	0.0	n/a	0	24	ISIslide	Win	True
244.318	0.25	Win2	0.6154	0.0	Yes	3.082	0.018	n/a	GoodResponse	1	n/a	n/a	1	25	Cue	Win	True
244.568	4.0	Win2	0.6154	0.0	Yes	3.082	0.0	n/a	GoodResponse	1	n/a	n/a	1	25	Fixation	Win	True
248.567	0.27	Win2	0.6154	0.001	Yes	3.082	-0.001	2.0	GoodResponse	1	0.257	247.824	1	25	Target	Win	True
248.824	0.3	Win2	0.6154	0.001	Yes	3.082	-0.001	2.0	GoodResponse	1	0.257	n/a	1	25	ButtonPress	Win	True
248.85	0.43	Win2	0.6154	n/a	Yes	3.082	n/a	n/a	GoodResponse	1	n/a	n/a	1	25	Blank	Win	True
249.266	1.45	Win2	0.6154	n/a	Yes	3.082	n/a	5.0	GoodResponse	1	0.025	248.291	1	25	Feedback	Win	True
250.716	3.082	Win2	0.6154	n/a	Yes	3.082	n/a	n/a	GoodResponse	1	0.0	n/a	1	25	ISIslide	Win	True
253.815	0.25	Win2	0.6296	0.0	Yes	2.935	0.015	n/a	GoodResponse	1	n/a	n/a	2	26	Cue	Win	True
254.065	3.95	Win2	0.6296	0.0	Yes	2.935	0.0	n/a	GoodResponse	1	n/a	n/a	2	26	Fixation	Win	True
258.013	0.28	Win2	0.6296	0.002	Yes	2.935	-0.002	2.0	GoodResponse	1	0.228	257.241	2	26	Target	Win	True
258.241	0.3	Win2	0.6296	0.002	Yes	2.935	-0.002	2.0	GoodResponse	1	0.228	n/a	2	26	ButtonPress	Win	True
258.296	0.42	Win2	0.6296	n/a	Yes	2.935	n/a	n/a	GoodResponse	1	n/a	n/a	2	26	Blank	Win	True
258.713	1.45	Win2	0.6296	n/a	Yes	2.935	n/a	5.0	GoodResponse	1	0.04	257.753	2	26	Feedback	Win	True
260.162	2.935	Win2	0.6296	n/a	Yes	2.935	n/a	n/a	GoodResponse	1	0.0	n/a	2	26	ISIslide	Win	True
263.128	0.25	Lose2	0.6429	0.0	Yes	2.822	0.028	n/a	GoodResponse	0	n/a	n/a	2	27	Cue	AvoidedLoss	True
263.378	4.05	Lose2	0.6429	0.0	Yes	2.822	0.0	n/a	GoodResponse	0	n/a	n/a	2	27	Fixation	AvoidedLoss	True
267.427	0.29	Lose2	0.6429	0.001	Yes	2.822	-0.001	2.0	GoodResponse	0	0.269	266.696	2	27	Target	AvoidedLoss	True
267.696	0.3	Lose2	0.6429	0.001	Yes	2.822	-0.001	2.0	GoodResponse	0	0.269	n/a	2	27	ButtonPress	AvoidedLoss	True
267.726	0.41	Lose2	0.6429	n/a	Yes	2.822	n/a	n/a	GoodResponse	0	n/a	n/a	2	27	Blank	AvoidedLoss	True
268.126	1.45	Lose2	0.6429	n/a	Yes	2.822	n/a	5.0	GoodResponse	0	0.042	267.168	2	27	Feedback	AvoidedLoss	True
269.576	2.822	Lose2	0.6429	n/a	Yes	2.822	n/a	n/a	GoodResponse	0	0.0	n/a	2	27	ISIslide	AvoidedLoss	True
272.425	0.25	Control	0.6552	0.0	Yes	2.825	0.025	n/a	GoodResponse	0	n/a	n/a	2	28	Cue	Neutral	True
272.675	4.05	Control	0.6552	0.0	Yes	2.825	0.0	n/a	GoodResponse	0	n/a	n/a	2	28	Fixation	Neutral	True
276.723	0.3	Control	0.6552	0.002	Yes	2.825	-0.002	2.0	GoodResponse	0	0.231	275.954	2	28	Target	Neutral	True
276.954	0.3	Control	0.6552	0.002	Yes	2.825	-0.002	2.0	GoodResponse	0	0.231	n/a	2	28	ButtonPress	Neutral	True
277.023	0.4	Control	0.6552	n/a	Yes	2.825	n/a	n/a	GoodResponse	0	n/a	n/a	2	28	Blank	Neutral	True
277.423	1.45	Control	0.6552	n/a	Yes	2.825	n/a	5.0	GoodResponse	0	0.013	276.436	2	28	Feedback	Neutral	True
278.873	2.825	Control	0.6552	n/a	Yes	2.825	n/a	n/a	GoodResponse	0	0.0	n/a	2	28	ISIslide	Neutral	True
281.722	0.25	Lose2	0.6667000000000001	0.0	Yes	2.828	0.022	n/a	GoodResponse	0	n/a	n/a	2	29	Cue	AvoidedLoss	True
281.971	3.95	Lose2	0.6667000000000001	0.001	Yes	2.828	-0.001	n/a	GoodResponse	0	n/a	n/a	2	29	Fixation	AvoidedLoss	True
285.92	0.3	Lose2	0.6667000000000001	0.002	Yes	2.828	-0.002	2.0	GoodResponse	0	0.242	285.162	2	29	Target	AvoidedLoss	True
286.162	0.3	Lose2	0.6667000000000001	0.002	Yes	2.828	-0.002	2.0	GoodResponse	0	0.242	n/a	2	29	ButtonPress	AvoidedLoss	True
286.22	0.4	Lose2	0.6667000000000001	n/a	Yes	2.828	n/a	n/a	GoodResponse	0	n/a	n/a	2	29	Blank	AvoidedLoss	True
286.62	1.45	Lose2	0.6667000000000001	n/a	Yes	2.828	n/a	5.0	GoodResponse	0	0.036	285.656	2	29	Feedback	AvoidedLoss	True
288.069	2.828	Lose2	0.6667000000000001	n/a	Yes	2.828	n/a	n/a	GoodResponse	0	0.0	n/a	2	29	ISIslide	AvoidedLoss	True
290.918	0.25	Win2	0.6774	0.0	Yes	2.782	0.018	n/a	GoodResponse	1	n/a	n/a	3	30	Cue	Win	True
291.168	3.9	Win2	0.6774	0.0	Yes	2.782	0.0	n/a	GoodResponse	1	n/a	n/a	3	30	Fixation	Win	True
295.067	0.29	Win2	0.6774	0.001	Yes	2.782	-0.001	2.0	GoodResponse	1	0.238	294.305	3	30	Target	Win	True
295.305	0.3	Win2	0.6774	0.001	Yes	2.782	-0.001	2.0	GoodResponse	1	0.238	n/a	3	30	ButtonPress	Win	True
295.367	0.41	Win2	0.6774	n/a	Yes	2.782	n/a	n/a	GoodResponse	1	n/a	n/a	3	30	Blank	Win	True
295.767	1.45	Win2	0.6774	n/a	Yes	2.782	n/a	5.0	GoodResponse	1	0.011	294.778	3	30	Feedback	Win	True
297.216	2.782	Win2	0.6774	n/a	Yes	2.782	n/a	n/a	GoodResponse	1	0.0	n/a	3	30	ISIslide	Win	True
300.015	0.25	Lose2	0.6562	0.0	No	2.835	0.015	n/a	NoResponse	-1	n/a	n/a	2	31	Cue	Loss	True
300.265	4.05	Lose2	0.6562	0.0	No	2.835	0.0	n/a	NoResponse	-1	n/a	n/a	2	31	Fixation	Loss	True
304.314	0.28	Lose2	0.6562	0.001	No	2.835	-0.001	2.0	NoResponse	-1	0.4	303.714	2	31	Target	Loss	True
304.597	0.42	Lose2	0.6562	n/a	No	2.835	n/a	n/a	NoResponse	-1	n/a	n/a	2	31	Blank	Loss	True
304.714	0.3	Lose2	0.6562	0.001	No	2.835	-0.001	2.0	NoResponse	-1	0.4	n/a	2	31	ButtonPress	Loss	True
305.013	1.45	Lose2	0.6562	n/a	No	2.835	n/a	5.0	NoResponse	-1	0.033	304.046	2	31	Feedback	Loss	True
306.463	2.835	Lose2	0.6562	n/a	No	2.835	n/a	n/a	NoResponse	-1	0.0	n/a	2	31	ISIslide	Loss	True
309.328	0.25	Lose2	0.6667000000000001	0.001	Yes	2.622	0.028	n/a	GoodResponse	0	n/a	n/a	2	32	Cue	AvoidedLoss	True
309.578	4.15	Lose2	0.6667000000000001	0.0	Yes	2.622	0.0	n/a	GoodResponse	0	n/a	n/a	2	32	Fixation	AvoidedLoss	True
313.727	0.28	Lose2	0.6667000000000001	0.001	Yes	2.622	-0.001	2.0	GoodResponse	0	0.22	312.947	2	32	Target	AvoidedLoss	True
313.947	0.3	Lose2	0.6667000000000001	0.001	Yes	2.622	-0.001	2.0	GoodResponse	0	0.22	n/a	2	32	ButtonPress	AvoidedLoss	True
314.01	0.42	Lose2	0.6667000000000001	n/a	Yes	2.622	n/a	n/a	GoodResponse	0	n/a	n/a	2	32	Blank	AvoidedLoss	True
314.427	1.45	Lose2	0.6667000000000001	n/a	Yes	2.622	n/a	5.0	GoodResponse	0	0.033	313.46	2	32	Feedback	AvoidedLoss	True
315.876	2.622	Lose2	0.6667000000000001	n/a	Yes	2.622	n/a	n/a	GoodResponse	0	0.0	n/a	2	32	ISIslide	AvoidedLoss	True
318.525	0.25	Win2	0.6765000000000001	0.0	Yes	2.675	0.025	n/a	GoodResponse	1	n/a	n/a	3	33	Cue	Win	True
318.775	4.0	Win2	0.6765000000000001	0.0	Yes	2.675	0.0	n/a	GoodResponse	1	n/a	n/a	3	33	Fixation	Win	True
322.774	0.27	Win2	0.6765000000000001	0.001	Yes	2.675	-0.001	2.0	GoodResponse	1	0.213	321.987	3	33	Target	Win	True
322.987	0.3	Win2	0.6765000000000001	0.001	Yes	2.675	-0.001	2.0	GoodResponse	1	0.213	n/a	3	33	ButtonPress	Win	True
323.057	0.43	Win2	0.6765000000000001	n/a	Yes	2.675	n/a	n/a	GoodResponse	1	n/a	n/a	3	33	Blank	Win	True
323.473	1.45	Win2	0.6765000000000001	n/a	Yes	2.675	n/a	5.0	GoodResponse	1	0.012	322.485	3	33	Feedback	Win	True
324.923	2.675	Win2	0.6765000000000001	n/a	Yes	2.675	n/a	n/a	GoodResponse	1	0.0	n/a	3	33	ISIslide	Win	True
327.622	0.25	Lose2	0.6857	0.0	Yes	2.628	0.022	n/a	GoodResponse	0	n/a	n/a	3	34	Cue	AvoidedLoss	True
327.872	4.05	Lose2	0.6857	0.0	Yes	2.628	0.0	n/a	GoodResponse	0	n/a	n/a	3	34	Fixation	AvoidedLoss	True
331.92	0.26	Lose2	0.6857	0.002	Yes	2.628	-0.002	2.0	GoodResponse	0	0.222	331.142	3	34	Target	AvoidedLoss	True
332.142	0.3	Lose2	0.6857	0.002	Yes	2.628	-0.002	2.0	GoodResponse	0	0.222	n/a	3	34	ButtonPress	AvoidedLoss	True
332.187	0.44	Lose2	0.6857	n/a	Yes	2.628	n/a	n/a	GoodResponse	0	n/a	n/a	3	34	Blank	AvoidedLoss	True
332.62	1.45	Lose2	0.6857	n/a	Yes	2.628	n/a	5.0	GoodResponse	0	0.036	331.656	3	34	Feedback	AvoidedLoss	True
334.07	2.628	Lose2	0.6857	n/a	Yes	2.628	n/a	n/a	GoodResponse	0	0.0	n/a	3	34	ISIslide	AvoidedLoss	True
336.719	0.25	Lose2	0.6944	0.0	Yes	2.681	0.019	n/a	GoodResponse	0	n/a	n/a	3	35	Cue	AvoidedLoss	True
336.969	4.0	Lose2	0.6944	0.0	Yes	2.681	0.0	n/a	GoodResponse	0	n/a	n/a	3	35	Fixation	AvoidedLoss	True
340.967	0.25	Lose2	0.6944	0.002	Yes	2.681	-0.002	2.0	GoodResponse	0	0.189	340.156	3	35	Target	AvoidedLoss	True
341.156	0.3	Lose2	0.6944	0.002	Yes	2.681	-0.002	2.0	GoodResponse	0	0.189	n/a	3	35	ButtonPress	AvoidedLoss	True
341.217	0.45	Lose2	0.6944	n/a	Yes	2.681	n/a	n/a	GoodResponse	0	n/a	n/a	3	35	Blank	AvoidedLoss	True
341.667	1.45	Lose2	0.6944	n/a	Yes	2.681	n/a	5.0	GoodResponse	0	0.012	340.679	3	35	Feedback	AvoidedLoss	True
343.117	2.681	Lose2	0.6944	n/a	Yes	2.681	n/a	n/a	GoodResponse	0	0.0	n/a	3	35	ISIslide	AvoidedLoss	True
345.816	0.25	Control	0.6757	0.0	No	2.684	0.016	n/a	NoResponse	0	n/a	n/a	3	36	Cue	Neutral	True
346.066	4.0	Control	0.6757	0.0	No	2.684	0.0	n/a	NoResponse	0	n/a	n/a	3	36	Fixation	Neutral	True
350.064	0.24	Control	0.6757	0.002	No	2.684	-0.002	2.0	NoResponse	0	0.251	349.315	3	36	Target	Neutral	True
350.314	0.46	Control	0.6757	n/a	No	2.684	n/a	n/a	NoResponse	0	n/a	n/a	3	36	Blank	Neutral	True
350.315	0.3	Control	0.6757	0.002	No	2.684	-0.002	2.0	NoResponse	0	0.251	n/a	3	36	ButtonPress	Neutral	True
350.764	1.45	Control	0.6757	n/a	No	2.684	n/a	5.0	NoResponse	0	0.037	349.801	3	36	Feedback	Neutral	True
352.213	2.684	Control	0.6757	n/a	No	2.684	n/a	n/a	NoResponse	0	0.0	n/a	3	36	ISIslide	Neutral	True
354.929	0.25	Win2	0.6579	0.0	No	2.871	0.029	n/a	LatePress	0	n/a	n/a	3	37	Cue	MissedWin	True
355.179	4.0	Win2	0.6579	0.0	No	2.871	0.0	n/a	LatePress	0	n/a	n/a	3	37	Fixation	MissedWin	True
359.178	0.23	Win2	0.6579	0.001	No	2.871	-0.001	2.0	LatePress	0	0.231	358.409	3	37	Target	MissedWin	True
359.409	0.3	Win2	0.6579	0.001	No	2.871	-0.001	2.0	LatePress	0	0.231	n/a	3	37	ButtonPress	MissedWin	True
359.411	0.47	Win2	0.6579	n/a	No	2.871	n/a	n/a	LatePress	0	n/a	n/a	3	37	Blank	MissedWin	True
359.877	1.45	Win2	0.6579	n/a	No	2.871	n/a	5.0	LatePress	0	0.046	358.923	3	37	Feedback	MissedWin	True
361.327	2.871	Win2	0.6579	n/a	No	2.871	n/a	n/a	LatePress	0	0.0	n/a	3	37	ISIslide	MissedWin	True
364.226	0.25	Lose2	0.6667000000000001	0.0	Yes	2.824	0.026	n/a	GoodResponse	0	n/a	n/a	3	38	Cue	AvoidedLoss	True
364.476	3.95	Lose2	0.6667000000000001	0.0	Yes	2.824	0.0	n/a	GoodResponse	0	n/a	n/a	3	38	Fixation	AvoidedLoss	True
368.424	0.23	Lose2	0.6667000000000001	0.002	Yes	2.824	-0.002	2.0	GoodResponse	0	0.187	367.611	3	38	Target	AvoidedLoss	True
368.611	0.3	Lose2	0.6667000000000001	0.002	Yes	2.824	-0.002	2.0	GoodResponse	0	0.187	n/a	3	38	ButtonPress	AvoidedLoss	True
368.658	0.47	Lose2	0.6667000000000001	n/a	Yes	2.824	n/a	n/a	GoodResponse	0	n/a	n/a	3	38	Blank	AvoidedLoss	True
369.124	1.45	Lose2	0.6667000000000001	n/a	Yes	2.824	n/a	5.0	GoodResponse	0	0.019	368.143	3	38	Feedback	AvoidedLoss	True
370.574	2.824	Lose2	0.6667000000000001	n/a	Yes	2.824	n/a	n/a	GoodResponse	0	0.0	n/a	3	38	ISIslide	AvoidedLoss	True
373.423	0.25	Win2	0.65	0.0	No	2.977	0.023	n/a	NoResponse	0	n/a	n/a	3	39	Cue	MissedWin	False
373.672	4.1	Win2	0.65	0.001	No	2.977	-0.001	2.0	NoResponse	0	0.228	372.9	3	39	Fixation	MissedWin	False
373.9	0.3	Win2	0.65	0.001	No	2.977	-0.001	2.0	NoResponse	0	0.228	n/a	3	39	ButtonPress	MissedWin	False
377.771	0.22	Win2	0.65	0.002	No	2.977	-0.002	2.0	NoResponse	0	0.241	377.012	3	39	Target	MissedWin	False
378.004	0.48	Win2	0.65	n/a	No	2.977	n/a	n/a	NoResponse	0	n/a	n/a	3	39	Blank	MissedWin	False
378.012	0.3	Win2	0.65	0.002	No	2.977	-0.002	2.0	NoResponse	0	0.241	n/a	3	39	ButtonPress	MissedWin	False
378.471	1.45	Win2	0.65	n/a	No	2.977	n/a	5.0	NoResponse	0	0.038	377.509	3	39	Feedback	MissedWin	False
379.92	2.977	Win2	0.65	n/a	No	2.977	n/a	n/a	NoResponse	0	0.0	n/a	3	39	ISIslide	MissedWin	False
382.919	0.25	Win2	0.6341	0.0	No	2.731	0.019	n/a	NoResponse	0	n/a	n/a	3	40	Cue	MissedWin	True
383.169	3.95	Win2	0.6341	0.0	No	2.731	0.0	n/a	NoResponse	0	n/a	n/a	3	40	Fixation	MissedWin	True
387.118	0.23	Win2	0.6341	0.001	No	2.731	-0.001	2.0	NoResponse	0	0.3	386.418	3	40	Target	MissedWin	True
387.351	0.47	Win2	0.6341	n/a	No	2.731	n/a	n/a	NoResponse	0	n/a	n/a	3	40	Blank	MissedWin	True
387.418	0.3	Win2	0.6341	0.001	No	2.731	-0.001	2.0	NoResponse	0	0.3	n/a	3	40	ButtonPress	MissedWin	True
387.817	1.45	Win2	0.6341	n/a	No	2.731	n/a	5.0	NoResponse	0	0.008	386.825	3	40	Feedback	MissedWin	True
389.267	2.731	Win2	0.6341	n/a	No	2.731	n/a	n/a	NoResponse	0	0.0	n/a	3	40	ISIslide	MissedWin	True
392.016	0.25	Win2	0.6429	0.0	Yes	2.784	0.016	n/a	GoodResponse	1	n/a	n/a	4	41	Cue	Win	True
392.266	3.9	Win2	0.6429	0.0	Yes	2.784	0.0	n/a	GoodResponse	1	n/a	n/a	4	41	Fixation	Win	True
396.165	0.24	Win2	0.6429	0.001	Yes	2.784	-0.001	2.0	GoodResponse	1	0.214	395.379	4	41	Target	Win	True
396.379	0.3	Win2	0.6429	0.001	Yes	2.784	-0.001	2.0	GoodResponse	1	0.214	n/a	4	41	ButtonPress	Win	True
396.414	0.46	Win2	0.6429	n/a	Yes	2.784	n/a	n/a	GoodResponse	1	n/a	n/a	4	41	Blank	Win	True
396.864	1.45	Win2	0.6429	n/a	Yes	2.784	n/a	5.0	GoodResponse	1	0.034	395.898	4	41	Feedback	Win	True
398.314	2.784	Win2	0.6429	n/a	Yes	2.784	n/a	n/a	GoodResponse	1	0.0	n/a	4	41	ISIslide	Win	True
401.113	0.25	Control	0.6512	0.0	Yes	2.937	0.013	n/a	GoodResponse	0	n/a	n/a	4	42	Cue	Neutral	True
401.363	3.85	Control	0.6512	0.0	Yes	2.937	0.0	n/a	GoodResponse	0	n/a	n/a	4	42	Fixation	Neutral	True
405.211	0.25	Control	0.6512	0.002	Yes	2.937	-0.002	2.0	GoodResponse	0	0.225	404.436	4	42	Target	Neutral	True
405.436	0.3	Control	0.6512	0.002	Yes	2.937	-0.002	2.0	GoodResponse	0	0.225	n/a	4	42	ButtonPress	Neutral	True
405.461	0.45	Control	0.6512	n/a	Yes	2.937	n/a	n/a	GoodResponse	0	n/a	n/a	4	42	Blank	Neutral	True
405.911	1.45	Control	0.6512	n/a	Yes	2.937	n/a	5.0	GoodResponse	0	0.012	404.923	4	42	Feedback	Neutral	True
407.361	2.937	Control	0.6512	n/a	Yes	2.937	n/a	n/a	GoodResponse	0	0.0	n/a	4	42	ISIslide	Neutral	True
410.326	0.25	Win2	0.6591	0.0	Yes	3.174	0.026	n/a	GoodResponse	1	n/a	n/a	5	43	Cue	Win	True
410.576	4.0	Win2	0.6591	0.0	Yes	3.174	0.0	n/a	GoodResponse	1	n/a	n/a	5	43	Fixation	Win	True
414.575	0.26	Win2	0.6591	0.001	Yes	3.174	-0.001	2.0	GoodResponse	1	0.234	413.809	5	43	Target	Win	True
414.809	0.3	Win2	0.6591	0.001	Yes	3.174	-0.001	2.0	GoodResponse	1	0.234	n/a	5	43	ButtonPress	Win	True
414.841	0.44	Win2	0.6591	n/a	Yes	3.174	n/a	n/a	GoodResponse	1	n/a	n/a	5	43	Blank	Win	True
415.274	1.45	Win2	0.6591	n/a	Yes	3.174	n/a	5.0	GoodResponse	1	0.015	414.289	5	43	Feedback	Win	True
416.724	3.174	Win2	0.6591	n/a	Yes	3.174	n/a	n/a	GoodResponse	1	0.0	n/a	5	43	ISIslide	Win	True
419.923	0.25	Win2	0.6444	0.0	No	2.977	0.023	n/a	NoResponse	0	n/a	n/a	5	44	Cue	MissedWin	True
420.173	4.0	Win2	0.6444	0.0	No	2.977	0.0	n/a	NoResponse	0	n/a	n/a	5	44	Fixation	MissedWin	True
424.171	0.26	Win2	0.6444	0.002	No	2.977	-0.002	2.0	NoResponse	0	0.288	423.459	5	44	Target	MissedWin	True
424.438	0.44	Win2	0.6444	n/a	No	2.977	n/a	n/a	NoResponse	0	n/a	n/a	5	44	Blank	MissedWin	True
424.459	0.3	Win2	0.6444	0.002	No	2.977	-0.002	2.0	NoResponse	0	0.288	n/a	5	44	ButtonPress	MissedWin	True
424.871	1.45	Win2	0.6444	n/a	No	2.977	n/a	5.0	NoResponse	0	0.028	423.899	5	44	Feedback	MissedWin	True
426.321	2.977	Win2	0.6444	n/a	No	2.977	n/a	n/a	NoResponse	0	0.0	n/a	5	44	ISIslide	MissedWin	True
429.32	0.25	Control	0.6304	0.0	No	2.88	0.02	n/a	NoResponse	0	n/a	n/a	5	45	Cue	Neutral	False
429.569	4.1	Control	0.6304	0.001	No	2.88	-0.001	2.0	NoResponse	0	3.729	432.298	5	45	Fixation	Neutral	False
433.298	0.3	Control	0.6304	0.001	No	2.88	-0.001	2.0	NoResponse	0	3.729	n/a	5	45	ButtonPress	Neutral	False
433.668	0.27	Control	0.6304	0.002	No	2.88	-0.002	2.0	NoResponse	0	0.4	433.068	5	45	Target	Neutral	False
433.951	0.43	Control	0.6304	n/a	No	2.88	n/a	n/a	NoResponse	0	n/a	n/a	5	45	Blank	Neutral	False
434.068	0.3	Control	0.6304	0.002	No	2.88	-0.002	2.0	NoResponse	0	0.4	n/a	5	45	ButtonPress	Neutral	False
434.368	1.45	Control	0.6304	n/a	No	2.88	n/a	5.0	NoResponse	0	0.042	433.41	5	45	Feedback	Neutral	False
435.817	2.88	Control	0.6304	n/a	No	2.88	n/a	n/a	NoResponse	0	0.0	n/a	5	45	ISIslide	Neutral	False
438.716	0.25	Lose2	0.6383	0.0	Yes	3.384	0.016	n/a	GoodResponse	0	n/a	n/a	5	46	Cue	AvoidedLoss	True
438.966	4.0	Lose2	0.6383	0.0	Yes	3.384	0.0	n/a	GoodResponse	0	n/a	n/a	5	46	Fixation	AvoidedLoss	True
442.965	0.28	Lose2	0.6383	0.001	Yes	3.384	-0.001	2.0	GoodResponse	0	0.241	442.206	5	46	Target	AvoidedLoss	True
443.206	0.3	Lose2	0.6383	0.001	Yes	3.384	-0.001	2.0	GoodResponse	0	0.241	n/a	5	46	ButtonPress	AvoidedLoss	True
443.248	0.42	Lose2	0.6383	n/a	Yes	3.384	n/a	n/a	GoodResponse	0	n/a	n/a	5	46	Blank	AvoidedLoss	True
443.664	1.45	Lose2	0.6383	n/a	Yes	3.384	n/a	5.0	GoodResponse	0	0.014	442.678	5	46	Feedback	AvoidedLoss	True
445.114	3.384	Lose2	0.6383	n/a	Yes	3.384	n/a	n/a	GoodResponse	0	0.0	n/a	5	46	ISIslide	AvoidedLoss	True
448.529	0.25	Lose2	0.625	0.001	No	2.671	0.029	n/a	NoResponse	-1	n/a	n/a	4	47	Cue	Loss	True
448.779	4.0	Lose2	0.625	0.0	No	2.671	0.0	n/a	NoResponse	-1	n/a	n/a	4	47	Fixation	Loss	True
452.778	0.29	Lose2	0.625	0.001	No	2.671	-0.001	2.0	NoResponse	-1	0.349	452.127	4	47	Target	Loss	True
453.078	0.41	Lose2	0.625	n/a	No	2.671	n/a	n/a	NoResponse	-1	n/a	n/a	4	47	Blank	Loss	True
453.127	0.3	Lose2	0.625	0.001	No	2.671	-0.001	2.0	NoResponse	-1	0.349	n/a	4	47	ButtonPress	Loss	True
453.478	1.45	Lose2	0.625	n/a	No	2.671	n/a	5.0	NoResponse	-1	0.006	452.484	4	47	Feedback	Loss	True
454.927	2.671	Lose2	0.625	n/a	No	2.671	n/a	n/a	NoResponse	-1	0.0	n/a	4	47	ISIslide	Loss	True
457.626	0.25	Lose2	0.6327	0.0	Yes	3.024	0.026	n/a	GoodResponse	0	n/a	n/a	4	48	Cue	AvoidedLoss	True
457.876	3.95	Lose2	0.6327	0.0	Yes	3.024	0.0	n/a	GoodResponse	0	n/a	n/a	4	48	Fixation	AvoidedLoss	True
461.825	0.3	Lose2	0.6327	0.001	Yes	3.024	-0.001	2.0	GoodResponse	0	0.28	461.105	4	48	Target	AvoidedLoss	True
462.105	0.3	Lose2	0.6327	0.001	Yes	3.024	-0.001	2.0	GoodResponse	0	0.28	n/a	4	48	ButtonPress	AvoidedLoss	True
462.125	0.4	Lose2	0.6327	n/a	Yes	3.024	n/a	n/a	GoodResponse	0	n/a	n/a	4	48	Blank	AvoidedLoss	True
462.524	1.45	Lose2	0.6327	n/a	Yes	3.024	n/a	5.0	GoodResponse	0	0.033	461.557	4	48	Feedback	AvoidedLoss	True
463.974	3.024	Lose2	0.6327	n/a	Yes	3.024	n/a	n/a	GoodResponse	0	0.0	n/a	4	48	ISIslide	AvoidedLoss	True
467.023	0.25	Control	0.64	0.0	Yes	2.877	0.023	n/a	GoodResponse	0	n/a	n/a	4	49	Cue	Neutral	True
467.273	4.0	Control	0.64	0.0	Yes	2.877	0.0	n/a	GoodResponse	0	n/a	n/a	4	49	Fixation	Neutral	True
471.271	0.31	Control	0.64	0.002	Yes	2.877	-0.002	2.0	GoodResponse	0	0.236	470.507	4	49	Target	Neutral	True
471.507	0.3	Control	0.64	0.002	Yes	2.877	-0.002	2.0	GoodResponse	0	0.236	n/a	4	49	ButtonPress	Neutral	True
471.588	0.39	Control	0.64	n/a	Yes	2.877	n/a	n/a	GoodResponse	0	n/a	n/a	4	49	Blank	Neutral	True
471.971	1.45	Control	0.64	n/a	Yes	2.877	n/a	5.0	GoodResponse	0	0.048	471.019	4	49	Feedback	Neutral	True
473.421	2.877	Control	0.64	n/a	Yes	2.877	n/a	n/a	GoodResponse	0	0.0	n/a	4	49	ISIslide	Neutral	True
476.32	0.25	Control	0.6470999999999999	0.0	Yes	2.78	0.02	n/a	GoodResponse	0	n/a	n/a	4	50	Cue	Neutral	True
476.57	4.0	Control	0.6470999999999999	0.0	Yes	2.78	0.0	n/a	GoodResponse	0	n/a	n/a	4	50	Fixation	Neutral	True
480.568	0.32	Control	0.6470999999999999	0.002	Yes	2.78	-0.002	2.0	GoodResponse	0	0.298	479.866	4	50	Target	Neutral	True
480.866	0.3	Control	0.6470999999999999	0.002	Yes	2.78	-0.002	2.0	GoodResponse	0	0.298	n/a	4	50	ButtonPress	Neutral	True
480.901	0.38	Control	0.6470999999999999	n/a	Yes	2.78	n/a	n/a	GoodResponse	0	n/a	n/a	4	50	Blank	Neutral	True
481.268	1.45	Control	0.6470999999999999	n/a	Yes	2.78	n/a	5.0	GoodResponse	0	0.02	480.288	4	50	Feedback	Neutral	True
482.717	2.78	Control	0.6470999999999999	n/a	Yes	2.78	n/a	n/a	GoodResponse	0	0.0	n/a	4	50	ISIslide	Neutral	True
485.516	0.25	Control	0.6346	0.0	No	2.734	0.016	n/a	NoResponse	0	n/a	n/a	4	51	Cue	Neutral	True
485.766	3.95	Control	0.6346	0.0	No	2.734	0.0	2.0	NoResponse	0	3.422	488.188	4	51	Fixation	Neutral	True
489.188	0.3	Control	0.6346	0.0	No	2.734	0.0	2.0	NoResponse	0	3.422	n/a	4	51	ButtonPress	Neutral	True
489.715	0.33	Control	0.6346	0.001	No	2.734	-0.001	n/a	NoResponse	0	n/a	n/a	4	51	Target	Neutral	True
490.048	0.37	Control	0.6346	n/a	No	2.734	n/a	n/a	NoResponse	0	n/a	n/a	4	51	Blank	Neutral	True
490.415	1.45	Control	0.6346	n/a	No	2.734	n/a	5.0	NoResponse	0	0.043	489.458	4	51	Feedback	Neutral	True
491.864	2.734	Control	0.6346	n/a	No	2.734	n/a	n/a	NoResponse	0	0.0	n/a	4	51	ISIslide	Neutral	True
494.613	0.25	Control	0.6415000000000001	0.0	Yes	2.637	0.013	n/a	GoodResponse	0	n/a	n/a	4	52	Cue	Neutral	True
494.863	4.05	Control	0.6415000000000001	0.0	Yes	2.637	0.0	n/a	GoodResponse	0	n/a	n/a	4	52	Fixation	Neutral	True
498.912	0.34	Control	0.6415000000000001	0.001	Yes	2.637	-0.001	2.0	GoodResponse	0	0.264	498.176	4	52	Target	Neutral	True
499.176	0.3	Control	0.6415000000000001	0.001	Yes	2.637	-0.001	2.0	GoodResponse	0	0.264	n/a	4	52	ButtonPress	Neutral	True
499.262	0.36	Control	0.6415000000000001	n/a	Yes	2.637	n/a	n/a	GoodResponse	0	n/a	n/a	4	52	Blank	Neutral	True
499.611	1.45	Control	0.6415000000000001	n/a	Yes	2.637	n/a	5.0	GoodResponse	0	0.018	498.629	4	52	Feedback	Neutral	True
501.061	2.637	Control	0.6415000000000001	n/a	Yes	2.637	n/a	n/a	GoodResponse	0	0.0	n/a	4	52	ISIslide	Neutral	True
503.727	0.25	Win2	0.6481	0.0	Yes	2.923	0.027	n/a	GoodResponse	1	n/a	n/a	5	53	Cue	Win	True
503.977	4.05	Win2	0.6481	0.0	Yes	2.923	0.0	n/a	GoodResponse	1	n/a	n/a	5	53	Fixation	Win	True
508.025	0.35	Win2	0.6481	0.002	Yes	2.923	-0.002	2.0	GoodResponse	1	0.202	507.227	5	53	Target	Win	True
508.227	0.3	Win2	0.6481	0.002	Yes	2.923	-0.002	2.0	GoodResponse	1	0.202	n/a	5	53	ButtonPress	Win	True
508.375	0.35	Win2	0.6481	n/a	Yes	2.923	n/a	n/a	GoodResponse	1	n/a	n/a	5	53	Blank	Win	True
508.725	1.45	Win2	0.6481	n/a	Yes	2.923	n/a	5.0	GoodResponse	1	0.026	507.751	5	53	Feedback	Win	True
510.174	2.923	Win2	0.6481	n/a	Yes	2.923	n/a	n/a	GoodResponse	1	0.0	n/a	5	53	ISIslide	Win	True
513.123	0.25	Win2	0.6545000000000001	0.0	Yes	2.727	0.023	n/a	GoodResponse	1	n/a	n/a	6	54	Cue	Win	True
513.373	3.95	Win2	0.6545000000000001	0.0	Yes	2.727	0.0	n/a	GoodResponse	1	n/a	n/a	6	54	Fixation	Win	True
517.322	0.36	Win2	0.6545000000000001	0.001	Yes	2.727	-0.001	2.0	GoodResponse	1	0.215	516.537	6	54	Target	Win	True
517.537	0.3	Win2	0.6545000000000001	0.001	Yes	2.727	-0.001	2.0	GoodResponse	1	0.215	n/a	6	54	ButtonPress	Win	True
517.688	0.34	Win2	0.6545000000000001	n/a	Yes	2.727	n/a	n/a	GoodResponse	1	n/a	n/a	6	54	Blank	Win	True
518.022	1.45	Win2	0.6545000000000001	n/a	Yes	2.727	n/a	5.0	GoodResponse	1	0.046	517.068	6	54	Feedback	Win	True
519.471	2.727	Win2	0.6545000000000001	n/a	Yes	2.727	n/a	n/a	GoodResponse	1	0.0	n/a	6	54	ISIslide	Win	True
522.22	0.25	Control	0.6607	0.0	Yes	3.03	0.02	n/a	GoodResponse	0	n/a	n/a	6	55	Cue	Neutral	True
522.47	3.95	Control	0.6607	0.0	Yes	3.03	0.0	n/a	GoodResponse	0	n/a	n/a	6	55	Fixation	Neutral	True
526.419	0.37	Control	0.6607	0.001	Yes	3.03	-0.001	2.0	GoodResponse	0	0.245	525.664	6	55	Target	Neutral	True
526.664	0.3	Control	0.6607	0.001	Yes	3.03	-0.001	2.0	GoodResponse	0	0.245	n/a	6	55	ButtonPress	Neutral	True
526.802	0.33	Control	0.6607	n/a	Yes	3.03	n/a	n/a	GoodResponse	0	n/a	n/a	6	55	Blank	Neutral	True
527.118	1.45	Control	0.6607	n/a	Yes	3.03	n/a	5.0	GoodResponse	0	0.023	526.141	6	55	Feedback	Neutral	True
528.568	3.03	Control	0.6607	n/a	Yes	3.03	n/a	n/a	GoodResponse	0	0.0	n/a	6	55	ISIslide	Neutral	True
531.617	0.25	Control	0.6667000000000001	0.0	Yes	2.833	0.017	n/a	GoodResponse	0	n/a	n/a	6	56	Cue	Neutral	True
531.867	3.95	Control	0.6667000000000001	0.0	Yes	2.833	0.0	n/a	GoodResponse	0	n/a	n/a	6	56	Fixation	Neutral	True
535.815	0.37	Control	0.6667000000000001	0.002	Yes	2.833	-0.002	2.0	GoodResponse	0	0.277	535.092	6	56	Target	Neutral	True
536.092	0.3	Control	0.6667000000000001	0.002	Yes	2.833	-0.002	2.0	GoodResponse	0	0.277	n/a	6	56	ButtonPress	Neutral	True
536.199	0.33	Control	0.6667000000000001	n/a	Yes	2.833	n/a	n/a	GoodResponse	0	n/a	n/a	6	56	Blank	Neutral	True
536.515	1.45	Control	0.6667000000000001	n/a	Yes	2.833	n/a	5.0	GoodResponse	0	0.041	535.556	6	56	Feedback	Neutral	True
537.965	2.833	Control	0.6667000000000001	n/a	Yes	2.833	n/a	n/a	GoodResponse	0	0.0	n/a	6	56	ISIslide	Neutral	True
540.83	0.25	Control	0.6724	0.0	Yes	3.47	0.03	n/a	GoodResponse	0	n/a	n/a	6	57	Cue	Neutral	True
541.08	4.0	Control	0.6724	0.0	Yes	3.47	0.0	n/a	GoodResponse	0	n/a	n/a	6	57	Fixation	Neutral	True
545.079	0.36	Control	0.6724	0.001	Yes	3.47	-0.001	2.0	GoodResponse	0	0.328	544.407	6	57	Target	Neutral	True
545.407	0.3	Control	0.6724	0.001	Yes	3.47	-0.001	2.0	GoodResponse	0	0.328	n/a	6	57	ButtonPress	Neutral	True
545.445	0.34	Control	0.6724	n/a	Yes	3.47	n/a	n/a	GoodResponse	0	n/a	n/a	6	57	Blank	Neutral	True
545.778	1.45	Control	0.6724	n/a	Yes	3.47	n/a	5.0	GoodResponse	0	0.046	544.824	6	57	Feedback	Neutral	True
547.228	3.47	Control	0.6724	n/a	Yes	3.47	n/a	n/a	GoodResponse	0	0.0	n/a	6	57	ISIslide	Neutral	True
550.727	0.25	Win2	0.6779999999999999	0.0	Yes	2.723	0.027	n/a	GoodResponse	1	n/a	n/a	7	58	Cue	Win	True
550.977	4.05	Win2	0.6779999999999999	0.0	Yes	2.723	0.0	n/a	GoodResponse	1	n/a	n/a	7	58	Fixation	Win	True
555.025	0.35	Win2	0.6779999999999999	0.002	Yes	2.723	-0.002	2.0	GoodResponse	1	0.219	554.244	7	58	Target	Win	True
555.244	0.3	Win2	0.6779999999999999	0.002	Yes	2.723	-0.002	2.0	GoodResponse	1	0.219	n/a	7	58	ButtonPress	Win	True
555.375	0.35	Win2	0.6779999999999999	n/a	Yes	2.723	n/a	n/a	GoodResponse	1	n/a	n/a	7	58	Blank	Win	True
555.725	1.45	Win2	0.6779999999999999	n/a	Yes	2.723	n/a	5.0	GoodResponse	1	0.001	554.726	7	58	Feedback	Win	True
557.174	2.723	Win2	0.6779999999999999	n/a	Yes	2.723	n/a	n/a	GoodResponse	1	0.0	n/a	7	58	ISIslide	Win	True
559.924	0.25	Lose2	0.6833	0.0	Yes	2.676	0.024	n/a	GoodResponse	0	n/a	n/a	7	59	Cue	AvoidedLoss	True
560.173	4.0	Lose2	0.6833	0.001	Yes	2.676	-0.001	n/a	GoodResponse	0	n/a	n/a	7	59	Fixation	AvoidedLoss	True
564.172	0.34	Lose2	0.6833	0.002	Yes	2.676	-0.002	2.0	GoodResponse	0	0.248	563.42	7	59	Target	AvoidedLoss	True
564.42	0.3	Lose2	0.6833	0.002	Yes	2.676	-0.002	2.0	GoodResponse	0	0.248	n/a	7	59	ButtonPress	AvoidedLoss	True
564.522	0.36	Lose2	0.6833	n/a	Yes	2.676	n/a	n/a	GoodResponse	0	n/a	n/a	7	59	Blank	AvoidedLoss	True
564.872	1.45	Lose2	0.6833	n/a	Yes	2.676	n/a	5.0	GoodResponse	0	0.024	563.896	7	59	Feedback	AvoidedLoss	True
566.321	2.676	Lose2	0.6833	n/a	Yes	2.676	n/a	n/a	GoodResponse	0	0.0	n/a	7	59	ISIslide	AvoidedLoss	True
569.02	0.25	Control	0.6884999999999999	0.0	Yes	2.68	0.02	n/a	GoodResponse	0	n/a	n/a	7	60	Cue	Neutral	True
569.27	4.0	Control	0.6884999999999999	0.0	Yes	2.68	0.0	n/a	GoodResponse	0	n/a	n/a	7	60	Fixation	Neutral	True
573.269	0.33	Control	0.6884999999999999	0.001	Yes	2.68	-0.001	2.0	GoodResponse	0	0.236	572.505	7	60	Target	Neutral	True
573.505	0.3	Control	0.6884999999999999	0.001	Yes	2.68	-0.001	2.0	GoodResponse	0	0.236	n/a	7	60	ButtonPress	Neutral	True
573.602	0.37	Control	0.6884999999999999	n/a	Yes	2.68	n/a	n/a	GoodResponse	0	n/a	n/a	7	60	Blank	Neutral	True
573.969	1.45	Control	0.6884999999999999	n/a	Yes	2.68	n/a	5.0	GoodResponse	0	0.001	572.97	7	60	Feedback	Neutral	True
575.418	2.68	Control	0.6884999999999999	n/a	Yes	2.68	n/a	n/a	GoodResponse	0	0.0	n/a	7	60	ISIslide	Neutral	True
578.117	0.25	Lose2	0.6934999999999999	0.0	Yes	2.983	0.017	n/a	GoodResponse	0	n/a	n/a	7	61	Cue	AvoidedLoss	True
578.367	4.0	Lose2	0.6934999999999999	0.0	Yes	2.983	0.0	n/a	GoodResponse	0	n/a	n/a	7	61	Fixation	AvoidedLoss	True
582.366	0.32	Lose2	0.6934999999999999	0.001	Yes	2.983	-0.001	2.0	GoodResponse	0	0.295	581.661	7	61	Target	AvoidedLoss	True
582.661	0.3	Lose2	0.6934999999999999	0.001	Yes	2.983	-0.001	2.0	GoodResponse	0	0.295	n/a	7	61	ButtonPress	AvoidedLoss	True
582.699	0.38	Lose2	0.6934999999999999	n/a	Yes	2.983	n/a	n/a	GoodResponse	0	n/a	n/a	7	61	Blank	AvoidedLoss	True
583.065	1.45	Lose2	0.6934999999999999	n/a	Yes	2.983	n/a	5.0	GoodResponse	0	0.027	582.092	7	61	Feedback	AvoidedLoss	True
584.515	2.983	Lose2	0.6934999999999999	n/a	Yes	2.983	n/a	n/a	GoodResponse	0	0.0	n/a	7	61	ISIslide	AvoidedLoss	True
587.53	0.25	Lose2	0.6825	0.001	No	2.87	0.03	n/a	NoResponse	-1	n/a	n/a	6	62	Cue	Loss	False
587.78	3.9	Lose2	0.6825	0.0	No	2.87	0.0	n/a	NoResponse	-1	n/a	n/a	6	62	Fixation	Loss	False
591.679	0.31	Lose2	0.6825	0.001	No	2.87	-0.001	n/a	NoResponse	-1	n/a	n/a	6	62	Target	Loss	False
591.996	0.39	Lose2	0.6825	n/a	No	2.87	n/a	n/a	NoResponse	-1	n/a	n/a	6	62	Blank	Loss	False
592.379	1.45	Lose2	0.6825	n/a	No	2.87	n/a	5.0	NoResponse	-1	0.03	591.409	6	62	Feedback	Loss	False
593.828	2.87	Lose2	0.6825	n/a	No	2.87	n/a	n/a	NoResponse	-1	0.0	n/a	6	62	ISIslide	Loss	False
596.727	0.25	Lose2	0.6875	0.0	Yes	2.623	0.027	n/a	GoodResponse	0	n/a	n/a	6	63	Cue	AvoidedLoss	True
596.977	4.05	Lose2	0.6875	0.0	Yes	2.623	0.0	n/a	GoodResponse	0	n/a	n/a	6	63	Fixation	AvoidedLoss	True
601.026	0.3	Lose2	0.6875	0.001	Yes	2.623	-0.001	2.0	GoodResponse	0	0.189	600.215	6	63	Target	AvoidedLoss	True
601.215	0.3	Lose2	0.6875	0.001	Yes	2.623	-0.001	2.0	GoodResponse	0	0.189	n/a	6	63	ButtonPress	AvoidedLoss	True
601.326	0.4	Lose2	0.6875	n/a	Yes	2.623	n/a	n/a	GoodResponse	0	n/a	n/a	6	63	Blank	AvoidedLoss	True
601.725	1.45	Lose2	0.6875	n/a	Yes	2.623	n/a	5.0	GoodResponse	0	0.049	600.774	6	63	Feedback	AvoidedLoss	True
603.175	2.623	Lose2	0.6875	n/a	Yes	2.623	n/a	n/a	GoodResponse	0	0.0	n/a	6	63	ISIslide	AvoidedLoss	True
605.824	0.25	Win2	0.6769	0.0	No	3.126	0.024	n/a	NoResponse	0	n/a	n/a	6	64	Cue	MissedWin	True
606.074	4.15	Win2	0.6769	0.0	No	3.126	0.0	2.0	NoResponse	0	3.376	608.45	6	64	Fixation	MissedWin	True
609.45	0.3	Win2	0.6769	0.0	No	3.126	0.0	2.0	NoResponse	0	3.376	n/a	6	64	ButtonPress	MissedWin	True
610.222	0.29	Win2	0.6769	0.002	No	3.126	-0.002	n/a	NoResponse	0	n/a	n/a	6	64	Target	MissedWin	True
610.522	0.41	Win2	0.6769	n/a	No	3.126	n/a	n/a	NoResponse	0	n/a	n/a	6	64	Blank	MissedWin	True
610.922	1.45	Win2	0.6769	n/a	No	3.126	n/a	5.0	NoResponse	0	0.023	609.945	6	64	Feedback	MissedWin	True
612.372	3.126	Win2	0.6769	n/a	No	3.126	n/a	n/a	NoResponse	0	0.0	n/a	6	64	ISIslide	MissedWin	True
615.521	0.25	Control	0.6818000000000001	0.0	Yes	2.779	0.021	n/a	GoodResponse	0	n/a	n/a	6	65	Cue	Neutral	True
615.77	4.0	Control	0.6818000000000001	0.001	Yes	2.779	-0.001	n/a	GoodResponse	0	n/a	n/a	6	65	Fixation	Neutral	True
619.769	0.28	Control	0.6818000000000001	0.002	Yes	2.779	-0.002	2.0	GoodResponse	0	0.229	618.998	6	65	Target	Neutral	True
619.998	0.3	Control	0.6818000000000001	0.002	Yes	2.779	-0.002	2.0	GoodResponse	0	0.229	n/a	6	65	ButtonPress	Neutral	True
620.052	0.42	Control	0.6818000000000001	n/a	Yes	2.779	n/a	n/a	GoodResponse	0	n/a	n/a	6	65	Blank	Neutral	True
620.469	1.45	Control	0.6818000000000001	n/a	Yes	2.779	n/a	5.0	GoodResponse	0	0.037	619.506	6	65	Feedback	Neutral	True
621.918	2.779	Control	0.6818000000000001	n/a	Yes	2.779	n/a	n/a	GoodResponse	0	0.0	n/a	6	65	ISIslide	Neutral	True
624.717	0.25	Win2	0.6716	0.0	No	2.783	0.017	n/a	PrematurePress	0	n/a	n/a	6	66	Cue	MissedWin	True
624.967	3.9	Win2	0.6716	0.0	No	2.783	0.0	n/a	PrematurePress	0	n/a	n/a	6	66	Fixation	MissedWin	True
628.866	0.27	Win2	0.6716	0.001	No	2.783	-0.001	2.0	PrematurePress	0	0.042	627.908	6	66	Target	MissedWin	True
628.908	0.3	Win2	0.6716	0.001	No	2.783	-0.001	2.0	PrematurePress	0	0.042	n/a	6	66	ButtonPress	MissedWin	True
629.132	0.43	Win2	0.6716	n/a	No	2.783	n/a	n/a	PrematurePress	0	n/a	n/a	6	66	Blank	MissedWin	True
629.566	1.45	Win2	0.6716	n/a	No	2.783	n/a	5.0	PrematurePress	0	0.013	628.579	6	66	Feedback	MissedWin	True
631.015	2.783	Win2	0.6716	n/a	No	2.783	n/a	n/a	PrematurePress	0	0.0	n/a	6	66	ISIslide	MissedWin	True
633.814	0.25	Control	0.6765000000000001	0.0	Yes	2.736	0.014	n/a	GoodResponse	0	n/a	n/a	6	67	Cue	Neutral	True
634.064	3.95	Control	0.6765000000000001	0.0	Yes	2.736	0.0	n/a	GoodResponse	0	n/a	n/a	6	67	Fixation	Neutral	True
638.013	0.26	Control	0.6765000000000001	0.001	Yes	2.736	-0.001	2.0	GoodResponse	0	0.225	637.238	6	67	Target	Neutral	True
638.238	0.3	Control	0.6765000000000001	0.001	Yes	2.736	-0.001	2.0	GoodResponse	0	0.225	n/a	6	67	ButtonPress	Neutral	True
638.279	0.44	Control	0.6765000000000001	n/a	Yes	2.736	n/a	n/a	GoodResponse	0	n/a	n/a	6	67	Blank	Neutral	True
638.712	1.45	Control	0.6765000000000001	n/a	Yes	2.736	n/a	5.0	GoodResponse	0	0.038	637.75	6	67	Feedback	Neutral	True
640.162	2.736	Control	0.6765000000000001	n/a	Yes	2.736	n/a	n/a	GoodResponse	0	0.0	n/a	6	67	ISIslide	Neutral	True
642.928	0.25	Win2	0.6812	0.0	Yes	3.072	0.028	n/a	GoodResponse	1	n/a	n/a	7	68	Cue	Win	True
643.178	4.0	Win2	0.6812	0.0	Yes	3.072	0.0	n/a	GoodResponse	1	n/a	n/a	7	68	Fixation	Win	True
647.176	0.25	Win2	0.6812	0.002	Yes	3.072	-0.002	2.0	GoodResponse	1	0.228	646.404	7	68	Target	Win	True
647.404	0.3	Win2	0.6812	0.002	Yes	3.072	-0.002	2.0	GoodResponse	1	0.228	n/a	7	68	ButtonPress	Win	True
647.426	0.45	Win2	0.6812	n/a	Yes	3.072	n/a	n/a	GoodResponse	1	n/a	n/a	7	68	Blank	Win	True
647.876	1.45	Win2	0.6812	n/a	Yes	3.072	n/a	5.0	GoodResponse	1	0.044	646.92	7	68	Feedback	Win	True
649.325	3.072	Win2	0.6812	n/a	Yes	3.072	n/a	n/a	GoodResponse	1	0.0	n/a	7	68	ISIslide	Win	True
652.424	0.25	Win2	0.6714	0.0	No	3.226	0.024	n/a	NoResponse	0	n/a	n/a	7	69	Cue	MissedWin	True
652.674	3.95	Win2	0.6714	0.0	No	3.226	0.0	n/a	NoResponse	0	n/a	n/a	7	69	Fixation	MissedWin	True
656.623	0.24	Win2	0.6714	0.001	No	3.226	-0.001	2.0	NoResponse	0	0.262	655.885	7	69	Target	MissedWin	True
656.873	0.46	Win2	0.6714	n/a	No	3.226	n/a	n/a	NoResponse	0	n/a	n/a	7	69	Blank	MissedWin	True
656.885	0.3	Win2	0.6714	0.001	No	3.226	-0.001	2.0	NoResponse	0	0.262	n/a	7	69	ButtonPress	MissedWin	True
657.323	1.45	Win2	0.6714	n/a	No	3.226	n/a	5.0	NoResponse	0	0.012	656.335	7	69	Feedback	MissedWin	True
658.772	3.226	Win2	0.6714	n/a	No	3.226	n/a	n/a	NoResponse	0	0.0	n/a	7	69	ISIslide	MissedWin	True
662.021	0.25	Lose2	0.662	0.0	No	3.029	0.021	n/a	NoResponse	-1	n/a	n/a	6	70	Cue	Loss	True
662.271	4.05	Lose2	0.662	0.0	No	3.029	0.0	n/a	NoResponse	-1	n/a	n/a	6	70	Fixation	Loss	True
666.319	0.23	Lose2	0.662	0.002	No	3.029	-0.002	2.0	NoResponse	-1	0.256	665.575	6	70	Target	Loss	True
666.553	0.47	Lose2	0.662	n/a	No	3.029	n/a	n/a	NoResponse	-1	n/a	n/a	6	70	Blank	Loss	True
666.575	0.3	Lose2	0.662	0.002	No	3.029	-0.002	2.0	NoResponse	-1	0.256	n/a	6	70	ButtonPress	Loss	True
667.019	1.45	Lose2	0.662	n/a	No	3.029	n/a	5.0	NoResponse	-1	0.023	666.042	6	70	Feedback	Loss	True
668.469	3.029	Lose2	0.662	n/a	No	3.029	n/a	n/a	NoResponse	-1	0.0	n/a	6	70	ISIslide	Loss	True
671.518	0.25	Win2	0.6667000000000001	0.0	Yes	2.732	0.018	n/a	GoodResponse	1	n/a	n/a	7	71	Cue	Win	True
671.767	4.05	Win2	0.6667000000000001	0.001	Yes	2.732	-0.001	n/a	GoodResponse	1	n/a	n/a	7	71	Fixation	Win	True
675.816	0.23	Win2	0.6667000000000001	0.002	Yes	2.732	-0.002	2.0	GoodResponse	1	0.215	675.031	7	71	Target	Win	True
676.031	0.3	Win2	0.6667000000000001	0.002	Yes	2.732	-0.002	2.0	GoodResponse	1	0.215	n/a	7	71	ButtonPress	Win	True
676.049	0.47	Win2	0.6667000000000001	n/a	Yes	2.732	n/a	n/a	GoodResponse	1	n/a	n/a	7	71	Blank	Win	True
676.516	1.45	Win2	0.6667000000000001	n/a	Yes	2.732	n/a	5.0	GoodResponse	1	0.038	675.554	7	71	Feedback	Win	True
677.965	2.732	Win2	0.6667000000000001	n/a	Yes	2.732	n/a	n/a	GoodResponse	1	0.0	n/a	7	71	ISIslide	Win	True
680.731	0.25	Win2	0.6575	0.0	No	2.769	0.031	n/a	NoResponse	0	n/a	n/a	7	72	Cue	MissedWin	True
680.981	4.1	Win2	0.6575	0.0	No	2.769	0.0	n/a	NoResponse	0	n/a	n/a	7	72	Fixation	MissedWin	True
685.079	0.22	Win2	0.6575	0.002	No	2.769	-0.002	2.0	NoResponse	0	0.245	684.324	7	72	Target	MissedWin	True
685.313	0.48	Win2	0.6575	n/a	No	2.769	n/a	n/a	NoResponse	0	n/a	n/a	7	72	Blank	MissedWin	True
685.324	0.3	Win2	0.6575	0.002	No	2.769	-0.002	2.0	NoResponse	0	0.245	n/a	7	72	ButtonPress	MissedWin	True
685.779	1.45	Win2	0.6575	n/a	No	2.769	n/a	5.0	NoResponse	0	0.043	684.822	7	72	Feedback	MissedWin	True
687.229	2.769	Win2	0.6575	n/a	No	2.769	n/a	n/a	NoResponse	0	0.0	n/a	7	72	ISIslide	MissedWin	True
690.028	0.25	Win2	0.6486	0.0	No	2.672	0.028	n/a	NoResponse	0	n/a	n/a	7	73	Cue	MissedWin	True
690.278	4.0	Win2	0.6486	0.0	No	2.672	0.0	n/a	NoResponse	0	n/a	n/a	7	73	Fixation	MissedWin	True
694.276	0.22	Win2	0.6486	0.002	No	2.672	-0.002	2.0	NoResponse	0	0.234	693.51	7	73	Target	MissedWin	True
694.509	0.48	Win2	0.6486	n/a	No	2.672	n/a	n/a	NoResponse	0	n/a	n/a	7	73	Blank	MissedWin	True
694.51	0.3	Win2	0.6486	0.002	No	2.672	-0.002	2.0	NoResponse	0	0.234	n/a	7	73	ButtonPress	MissedWin	True
694.976	1.45	Win2	0.6486	n/a	No	2.672	n/a	5.0	NoResponse	0	0.017	693.993	7	73	Feedback	MissedWin	True
696.425	2.672	Win2	0.6486	n/a	No	2.672	n/a	n/a	NoResponse	0	0.0	n/a	7	73	ISIslide	MissedWin	True
699.124	0.25	Lose2	0.6533	0.001	Yes	2.626	0.024	n/a	GoodResponse	0	n/a	n/a	7	74	Cue	AvoidedLoss	True
699.374	4.05	Lose2	0.6533	0.0	Yes	2.626	0.0	n/a	GoodResponse	0	n/a	n/a	7	74	Fixation	AvoidedLoss	True
703.423	0.23	Lose2	0.6533	0.001	Yes	2.626	-0.001	2.0	GoodResponse	0	0.214	702.637	7	74	Target	AvoidedLoss	True
703.637	0.3	Lose2	0.6533	0.001	Yes	2.626	-0.001	2.0	GoodResponse	0	0.214	n/a	7	74	ButtonPress	AvoidedLoss	True
703.656	0.47	Lose2	0.6533	n/a	Yes	2.626	n/a	n/a	GoodResponse	0	n/a	n/a	7	74	Blank	AvoidedLoss	True
704.123	1.45	Lose2	0.6533	n/a	Yes	2.626	n/a	5.0	GoodResponse	0	0.04	703.163	7	74	Feedback	AvoidedLoss	True
705.572	2.626	Lose2	0.6533	n/a	Yes	2.626	n/a	n/a	GoodResponse	0	0.0	n/a	7	74	ISIslide	AvoidedLoss	True
708.221	0.25	Lose2	0.6579	0.0	Yes	2.929	0.021	n/a	GoodResponse	0	n/a	n/a	7	75	Cue	AvoidedLoss	True
708.471	3.95	Lose2	0.6579	0.0	Yes	2.929	0.0	n/a	GoodResponse	0	n/a	n/a	7	75	Fixation	AvoidedLoss	True
712.42	0.24	Lose2	0.6579	0.001	Yes	2.929	-0.001	2.0	GoodResponse	0	0.239	711.659	7	75	Target	AvoidedLoss	True
712.659	0.3	Lose2	0.6579	0.001	Yes	2.929	-0.001	2.0	GoodResponse	0	0.239	n/a	7	75	ButtonPress	AvoidedLoss	True
712.67	0.46	Lose2	0.6579	n/a	Yes	2.929	n/a	n/a	GoodResponse	0	n/a	n/a	7	75	Blank	AvoidedLoss	True
713.12	1.45	Lose2	0.6579	n/a	Yes	2.929	n/a	5.0	GoodResponse	0	0.019	712.139	7	75	Feedback	AvoidedLoss	True
714.569	2.929	Lose2	0.6579	n/a	Yes	2.929	n/a	n/a	GoodResponse	0	0.0	n/a	7	75	ISIslide	AvoidedLoss	True
717.518	0.25	Control	0.6623	0.0	Yes	3.232	0.018	n/a	GoodResponse	0	n/a	n/a	7	76	Cue	Neutral	True
717.768	4.05	Control	0.6623	0.0	Yes	3.232	0.0	n/a	GoodResponse	0	n/a	n/a	7	76	Fixation	Neutral	True
721.816	0.24	Control	0.6623	0.002	Yes	3.232	-0.002	2.0	GoodResponse	0	0.219	721.035	7	76	Target	Neutral	True
722.035	0.3	Control	0.6623	0.002	Yes	3.232	-0.002	2.0	GoodResponse	0	0.219	n/a	7	76	ButtonPress	Neutral	True
722.066	0.46	Control	0.6623	n/a	Yes	3.232	n/a	n/a	GoodResponse	0	n/a	n/a	7	76	Blank	Neutral	True
722.516	1.45	Control	0.6623	n/a	Yes	3.232	n/a	5.0	GoodResponse	0	0.038	721.554	7	76	Feedback	Neutral	True
723.966	3.232	Control	0.6623	n/a	Yes	3.232	n/a	n/a	GoodResponse	0	0.0	n/a	7	76	ISIslide	Neutral	True
727.231	0.25	Lose2	0.6667000000000001	0.0	Yes	2.569	0.031	n/a	GoodResponse	0	n/a	n/a	7	77	Cue	AvoidedLoss	True
727.481	3.95	Lose2	0.6667000000000001	0.0	Yes	2.569	0.0	n/a	GoodResponse	0	n/a	n/a	7	77	Fixation	AvoidedLoss	True
731.43	0.24	Lose2	0.6667000000000001	0.001	Yes	2.569	-0.001	2.0	GoodResponse	0	0.219	730.649	7	77	Target	AvoidedLoss	True
731.649	0.3	Lose2	0.6667000000000001	0.001	Yes	2.569	-0.001	2.0	GoodResponse	0	0.219	n/a	7	77	ButtonPress	AvoidedLoss	True
731.68	0.46	Lose2	0.6667000000000001	n/a	Yes	2.569	n/a	n/a	GoodResponse	0	n/a	n/a	7	77	Blank	AvoidedLoss	True
732.13	1.45	Lose2	0.6667000000000001	n/a	Yes	2.569	n/a	5.0	GoodResponse	0	0.033	731.163	7	77	Feedback	AvoidedLoss	True
733.579	2.569	Lose2	0.6667000000000001	n/a	Yes	2.569	n/a	n/a	GoodResponse	0	0.0	n/a	7	77	ISIslide	AvoidedLoss	True
