onset	duration	cue_type	current_mean_accuracy	duration_error	is_hit	isi_adjusted	onset_delay	response	response_type	reward	rt	rt_time	total_reward	trial_number	trial_phase	trial_type	one_press
11.098	0.25	Control	1.0	0.001	Yes	2.952	-0.002	n/a	GoodResponse	0	n/a	n/a	0	0	Cue	Neutral	True
11.348	3.85	Control	1.0	0.001	Yes	2.952	0.0	n/a	GoodResponse	0	n/a	n/a	0	0	Fixation	Neutral	True
15.197	0.4	Control	1.0	0.001	Yes	2.952	-0.001	2.0	GoodResponse	0	0.176	14.373	0	0	Target	Neutral	True
15.373	0.3	Control	1.0	0.001	Yes	2.952	-0.001	2.0	GoodResponse	0	0.176	n/a	0	0	ButtonPress	Neutral	True
15.597	0.3	Control	1.0	n/a	Yes	2.952	n/a	n/a	GoodResponse	0	n/a	n/a	0	0	Blank	Neutral	True
15.897	1.45	Control	1.0	n/a	Yes	2.952	n/a	5.0	GoodResponse	0	0.033	14.93	0	0	Feedback	Neutral	True
17.346	2.952	Control	1.0	n/a	Yes	2.952	n/a	n/a	GoodResponse	0	0.0	n/a	0	0	ISIslide	Neutral	True
20.329	0.25	Lose2	1.0	0.0	Yes	2.771	0.029	n/a	GoodResponse	0	n/a	n/a	0	1	Cue	AvoidedLoss	True
20.579	4.0	Lose2	1.0	0.0	Yes	2.771	0.0	n/a	GoodResponse	0	n/a	n/a	0	1	Fixation	AvoidedLoss	True
24.577	0.39	Lose2	1.0	0.002	Yes	2.771	-0.002	2.0	GoodResponse	0	0.191	23.768	0	1	Target	AvoidedLoss	True
24.768	0.3	Lose2	1.0	0.002	Yes	2.771	-0.002	2.0	GoodResponse	0	0.191	n/a	0	1	ButtonPress	AvoidedLoss	True
24.977	0.31	Lose2	1.0	n/a	Yes	2.771	n/a	n/a	GoodResponse	0	n/a	n/a	0	1	Blank	AvoidedLoss	True
25.277	1.45	Lose2	1.0	n/a	Yes	2.771	n/a	5.0	GoodResponse	0	0.019	24.296	0	1	Feedback	AvoidedLoss	True
26.726	2.771	Lose2	1.0	n/a	Yes	2.771	n/a	n/a	GoodResponse	0	0.0	n/a	0	1	ISIslide	AvoidedLoss	True
29.526	0.25	Control	1.0	0.0	Yes	2.574	0.026	n/a	GoodResponse	0	n/a	n/a	0	2	Cue	Neutral	False
29.775	4.1	Control	1.0	0.001	Yes	2.574	-0.001	2.0	GoodResponse	0	3.705	32.48	0	2	Fixation	Neutral	False
33.48	0.3	Control	1.0	0.001	Yes	2.574	-0.001	2.0	GoodResponse	0	3.705	n/a	0	2	ButtonPress	Neutral	False
33.874	0.38	Control	1.0	0.002	Yes	2.574	-0.002	2.0	GoodResponse	0	0.177	33.051	0	2	Target	Neutral	False
34.051	0.3	Control	1.0	0.002	Yes	2.574	-0.002	2.0	GoodResponse	0	0.177	n/a	0	2	ButtonPress	Neutral	False
34.257	0.32	Control	1.0	n/a	Yes	2.574	n/a	n/a	GoodResponse	0	n/a	n/a	0	2	Blank	Neutral	False
34.574	1.45	Control	1.0	n/a	Yes	2.574	n/a	5.0	GoodResponse	0	0.039	33.613	0	2	Feedback	Neutral	False
36.023	2.574	Control	1.0	n/a	Yes	2.574	n/a	n/a	GoodResponse	0	0.0	n/a	0	2	ISIslide	Neutral	False
38.622	0.25	Win2	1.0	0.0	Yes	2.828	0.022	n/a	GoodResponse	1	n/a	n/a	1	3	Cue	Win	True
38.872	3.95	Win2	1.0	0.0	Yes	2.828	0.0	n/a	GoodResponse	1	n/a	n/a	1	3	Fixation	Win	True
42.821	0.37	Win2	1.0	0.001	Yes	2.828	-0.001	2.0	GoodResponse	1	0.177	41.998	1	3	Target	Win	True
42.998	0.3	Win2	1.0	0.001	Yes	2.828	-0.001	2.0	GoodResponse	1	0.177	n/a	1	3	ButtonPress	Win	True
43.188	0.33	Win2	1.0	n/a	Yes	2.828	n/a	n/a	GoodResponse	1	n/a	n/a	1	3	Blank	Win	True
43.521	1.45	Win2	1.0	n/a	Yes	2.828	n/a	5.0	GoodResponse	1	0.019	42.54	1	3	Feedback	Win	True
44.97	2.828	Win2	1.0	n/a	Yes	2.828	n/a	n/a	GoodResponse	1	0.0	n/a	1	3	ISIslide	Win	True
47.819	0.25	Win2	1.0	0.0	Yes	3.281	0.019	n/a	GoodResponse	1	n/a	n/a	2	4	Cue	Win	True
48.069	4.0	Win2	1.0	0.0	Yes	3.281	0.0	n/a	GoodResponse	1	n/a	n/a	2	4	Fixation	Win	True
52.068	0.36	Win2	1.0	0.001	Yes	3.281	-0.001	2.0	GoodResponse	1	0.189	51.257	2	4	Target	Win	True
52.257	0.3	Win2	1.0	0.001	Yes	3.281	-0.001	2.0	GoodResponse	1	0.189	n/a	2	4	ButtonPress	Win	True
52.434	0.34	Win2	1.0	n/a	Yes	3.281	n/a	n/a	GoodResponse	1	n/a	n/a	2	4	Blank	Win	True
52.768	1.45	Win2	1.0	n/a	Yes	3.281	n/a	5.0	GoodResponse	1	0.04	51.808	2	4	Feedback	Win	True
54.217	3.281	Win2	1.0	n/a	Yes	3.281	n/a	n/a	GoodResponse	1	0.0	n/a	2	4	ISIslide	Win	True
57.516	0.25	Win2	0.8332999999999999	0.0	No	2.784	0.016	n/a	NoResponse	0	n/a	n/a	2	5	Cue	MissedWin	True
57.766	4.0	Win2	0.8332999999999999	0.0	No	2.784	0.0	2.0	NoResponse	0	3.617	60.383	2	5	Fixation	MissedWin	True
61.383	0.3	Win2	0.8332999999999999	0.0	No	2.784	0.0	2.0	NoResponse	0	3.617	n/a	2	5	ButtonPress	MissedWin	True
61.764	0.35	Win2	0.8332999999999999	0.002	No	2.784	-0.002	n/a	NoResponse	0	n/a	n/a	2	5	Target	MissedWin	True
62.114	0.35	Win2	0.8332999999999999	n/a	No	2.784	n/a	n/a	NoResponse	0	n/a	n/a	2	5	Blank	MissedWin	True
62.464	1.45	Win2	0.8332999999999999	n/a	No	2.784	n/a	5.0	NoResponse	0	0.007	61.471	2	5	Feedback	MissedWin	True
63.914	2.784	Win2	0.8332999999999999	n/a	No	2.784	n/a	n/a	NoResponse	0	0.0	n/a	2	5	ISIslide	MissedWin	True
66.729	0.25	Lose2	0.8571	0.001	Yes	2.721	0.029	n/a	GoodResponse	0	n/a	n/a	2	6	Cue	AvoidedLoss	True
66.979	3.95	Lose2	0.8571	0.0	Yes	2.721	0.0	n/a	GoodResponse	0	n/a	n/a	2	6	Fixation	AvoidedLoss	True
70.928	0.34	Lose2	0.8571	0.001	Yes	2.721	-0.001	2.0	GoodResponse	0	0.18	70.108	2	6	Target	AvoidedLoss	True
71.108	0.3	Lose2	0.8571	0.001	Yes	2.721	-0.001	2.0	GoodResponse	0	0.18	n/a	2	6	ButtonPress	AvoidedLoss	True
71.278	0.36	Lose2	0.8571	n/a	Yes	2.721	n/a	n/a	GoodResponse	0	n/a	n/a	2	6	Blank	AvoidedLoss	True
71.628	1.45	Lose2	0.8571	n/a	Yes	2.721	n/a	5.0	GoodResponse	0	0.009	70.637	2	6	Feedback	AvoidedLoss	True
73.077	2.721	Lose2	0.8571	n/a	Yes	2.721	n/a	n/a	GoodResponse	0	0.0	n/a	2	6	ISIslide	AvoidedLoss	True
75.826	0.25	Lose2	0.875	0.0	Yes	4.024	0.026	n/a	GoodResponse	0	n/a	n/a	2	7	Cue	AvoidedLoss	True
76.076	4.05	Lose2	0.875	0.0	Yes	4.024	0.0	n/a	GoodResponse	0	n/a	n/a	2	7	Fixation	AvoidedLoss	True
80.125	0.33	Lose2	0.875	0.001	Yes	4.024	-0.001	2.0	GoodResponse	0	0.175	79.3	2	7	Target	AvoidedLoss	True
80.3	0.3	Lose2	0.875	0.001	Yes	4.024	-0.001	2.0	GoodResponse	0	0.175	n/a	2	7	ButtonPress	AvoidedLoss	True
80.458	0.37	Lose2	0.875	n/a	Yes	4.024	n/a	n/a	GoodResponse	0	n/a	n/a	2	7	Blank	AvoidedLoss	True
80.825	1.45	Lose2	0.875	n/a	Yes	4.024	n/a	5.0	GoodResponse	0	0.031	79.856	2	7	Feedback	AvoidedLoss	True
82.274	4.024	Lose2	0.875	n/a	Yes	4.024	n/a	n/a	GoodResponse	0	0.0	n/a	2	7	ISIslide	AvoidedLoss	True
86.323	0.25	Lose2	0.8889	0.0	Yes	3.027	0.023	n/a	GoodResponse	0	n/a	n/a	2	8	Cue	AvoidedLoss	False
86.573	3.95	Lose2	0.8889	0.0	Yes	3.027	0.0	2.0	GoodResponse	0	3.931	89.504	2	8	Fixation	AvoidedLoss	False
90.504	0.3	Lose2	0.8889	0.0	Yes	3.027	0.0	2.0	GoodResponse	0	3.931	n/a	2	8	ButtonPress	AvoidedLoss	False
90.521	0.32	Lose2	0.8889	0.002	Yes	3.027	-0.002	2.0	GoodResponse	0	0.249	89.77	2	8	Target	AvoidedLoss	False
90.77	0.3	Lose2	0.8889	0.002	Yes	3.027	-0.002	2.0	GoodResponse	0	0.249	n/a	2	8	ButtonPress	AvoidedLoss	False
90.855	0.38	Lose2	0.8889	n/a	Yes	3.027	n/a	n/a	GoodResponse	0	n/a	n/a	2	8	Blank	AvoidedLoss	False
91.221	1.45	Lose2	0.8889	n/a	Yes	3.027	n/a	5.0	GoodResponse	0	0.026	90.247	2	8	Feedback	AvoidedLoss	False
92.671	3.027	Lose2	0.8889	n/a	Yes	3.027	n/a	n/a	GoodResponse	0	0.0	n/a	2	8	ISIslide	AvoidedLoss	False
95.72	0.25	Lose2	0.9	0.0	Yes	3.13	0.02	n/a	GoodResponse	0	n/a	n/a	2	9	Cue	AvoidedLoss	True
95.969	3.95	Lose2	0.9	0.001	Yes	3.13	-0.001	n/a	GoodResponse	0	n/a	n/a	2	9	Fixation	AvoidedLoss	True
99.918	0.31	Lose2	0.9	0.002	Yes	3.13	-0.002	2.0	GoodResponse	0	0.216	99.134	2	9	Target	AvoidedLoss	True
100.134	0.3	Lose2	0.9	0.002	Yes	3.13	-0.002	2.0	GoodResponse	0	0.216	n/a	2	9	ButtonPress	AvoidedLoss	True
100.235	0.39	Lose2	0.9	n/a	Yes	3.13	n/a	n/a	GoodResponse	0	n/a	n/a	2	9	Blank	AvoidedLoss	True
100.618	1.45	Lose2	0.9	n/a	Yes	3.13	n/a	5.0	GoodResponse	0	0.043	99.661	2	9	Feedback	AvoidedLoss	True
102.067	3.13	Lose2	0.9	n/a	Yes	3.13	n/a	n/a	GoodResponse	0	0.0	n/a	2	9	ISIslide	AvoidedLoss	True
105.216	0.25	Control	0.9091	0.0	Yes	3.284	0.016	n/a	GoodResponse	0	n/a	n/a	2	10	Cue	Neutral	True
105.466	4.0	Control	0.9091	0.0	Yes	3.284	0.0	n/a	GoodResponse	0	n/a	n/a	2	10	Fixation	Neutral	True
109.465	0.3	Control	0.9091	0.001	Yes	3.284	-0.001	2.0	GoodResponse	0	0.162	108.627	2	10	Target	Neutral	True
109.627	0.3	Control	0.9091	0.001	Yes	3.284	-0.001	2.0	GoodResponse	0	0.162	n/a	2	10	ButtonPress	Neutral	True
109.765	0.4	Control	0.9091	n/a	Yes	3.284	n/a	n/a	GoodResponse	0	n/a	n/a	2	10	Blank	Neutral	True
110.165	1.45	Control	0.9091	n/a	Yes	3.284	n/a	5.0	GoodResponse	0	0.009	109.174	2	10	Feedback	Neutral	True
111.614	3.284	Control	0.9091	n/a	Yes	3.284	n/a	n/a	GoodResponse	0	0.0	n/a	2	10	ISIslide	Neutral	True
114.93	0.25	Lose2	0.9167000000000001	0.0	Yes	2.72	0.03	n/a	GoodResponse	0	n/a	n/a	2	11	Cue	AvoidedLoss	True
115.18	4.05	Lose2	0.9167000000000001	0.0	Yes	2.72	0.0	n/a	GoodResponse	0	n/a	n/a	2	11	Fixation	AvoidedLoss	True
119.228	0.29	Lose2	0.9167000000000001	0.002	Yes	2.72	-0.002	2.0	GoodResponse	0	0.195	118.423	2	11	Target	AvoidedLoss	True
119.423	0.3	Lose2	0.9167000000000001	0.002	Yes	2.72	-0.002	2.0	GoodResponse	0	0.195	n/a	2	11	ButtonPress	AvoidedLoss	True
119.528	0.41	Lose2	0.9167000000000001	n/a	Yes	2.72	n/a	n/a	GoodResponse	0	n/a	n/a	2	11	Blank	AvoidedLoss	True
119.928	1.45	Lose2	0.9167000000000001	n/a	Yes	2.72	n/a	5.0	GoodResponse	0	0.002	118.93	2	11	Feedback	AvoidedLoss	True
121.377	2.72	Lose2	0.9167000000000001	n/a	Yes	2.72	n/a	n/a	GoodResponse	0	0.0	n/a	2	11	ISIslide	AvoidedLoss	True
124.126	0.25	Control	0.9231	0.001	Yes	2.974	0.026	n/a	GoodResponse	0	n/a	n/a	2	12	Cue	Neutral	True
124.376	3.9	Control	0.9231	0.0	Yes	2.974	0.0	n/a	GoodResponse	0	n/a	n/a	2	12	Fixation	Neutral	True
128.275	0.28	Control	0.9231	0.001	Yes	2.974	-0.001	2.0	GoodResponse	0	0.252	127.527	2	12	Target	Neutral	True
128.527	0.3	Control	0.9231	0.001	Yes	2.974	-0.001	2.0	GoodResponse	0	0.252	n/a	2	12	ButtonPress	Neutral	True
128.558	0.42	Control	0.9231	n/a	Yes	2.974	n/a	n/a	GoodResponse	0	n/a	n/a	2	12	Blank	Neutral	True
128.975	1.45	Control	0.9231	n/a	Yes	2.974	n/a	5.0	GoodResponse	0	0.028	128.003	2	12	Feedback	Neutral	True
130.424	2.974	Control	0.9231	n/a	Yes	2.974	n/a	n/a	GoodResponse	0	0.0	n/a	2	12	ISIslide	Neutral	True
133.423	0.25	Control	0.9286	0.0	Yes	2.777	0.023	n/a	GoodResponse	0	n/a	n/a	2	13	Cue	Neutral	True
133.673	4.0	Control	0.9286	0.0	Yes	2.777	0.0	n/a	GoodResponse	0	n/a	n/a	2	13	Fixation	Neutral	True
137.672	0.27	Control	0.9286	0.001	Yes	2.777	-0.001	2.0	GoodResponse	0	0.202	136.874	2	13	Target	Neutral	True
137.874	0.3	Control	0.9286	0.001	Yes	2.777	-0.001	2.0	GoodResponse	0	0.202	n/a	2	13	ButtonPress	Neutral	True
137.938	0.43	Control	0.9286	n/a	Yes	2.777	n/a	n/a	GoodResponse	0	n/a	n/a	2	13	Blank	Neutral	True
138.372	1.45	Control	0.9286	n/a	Yes	2.777	n/a	5.0	GoodResponse	0	0.045	137.417	2	13	Feedback	Neutral	True
139.821	2.777	Control	0.9286	n/a	Yes	2.777	n/a	n/a	GoodResponse	0	0.0	n/a	2	13	ISIslide	Neutral	True
142.62	0.25	Win2	0.9333	0.0	Yes	2.68	0.02	n/a	GoodResponse	1	n/a	n/a	3	14	Cue	Win	True
142.87	4.1	Win2	0.9333	0.0	Yes	2.68	0.0	n/a	GoodResponse	1	n/a	n/a	3	14	Fixation	Win	True
146.969	0.26	Win2	0.9333	0.001	Yes	2.68	-0.001	2.0	GoodResponse	1	0.173	146.142	3	14	Target	Win	True
147.142	0.3	Win2	0.9333	0.001	Yes	2.68	-0.001	2.0	GoodResponse	1	0.173	n/a	3	14	ButtonPress	Win	True
147.235	0.44	Win2	0.9333	n/a	Yes	2.68	n/a	n/a	GoodResponse	1	n/a	n/a	3	14	Blank	Win	True
147.668	1.45	Win2	0.9333	n/a	Yes	2.68	n/a	5.0	GoodResponse	1	0.017	146.685	3	14	Feedback	Win	True
149.118	2.68	Win2	0.9333	n/a	Yes	2.68	n/a	n/a	GoodResponse	1	0.0	n/a	3	14	ISIslide	Win	True
151.817	0.25	Control	0.9375	0.0	Yes	2.983	0.017	n/a	GoodResponse	0	n/a	n/a	3	15	Cue	Neutral	True
152.067	4.0	Control	0.9375	0.0	Yes	2.983	0.0	n/a	GoodResponse	0	n/a	n/a	3	15	Fixation	Neutral	True
156.066	0.25	Control	0.9375	0.001	Yes	2.983	-0.001	2.0	GoodResponse	0	0.204	155.27	3	15	Target	Neutral	True
156.27	0.3	Control	0.9375	0.001	Yes	2.983	-0.001	2.0	GoodResponse	0	0.204	n/a	3	15	ButtonPress	Neutral	True
156.315	0.45	Control	0.9375	n/a	Yes	2.983	n/a	n/a	GoodResponse	0	n/a	n/a	3	15	Blank	Neutral	True
156.765	1.45	Control	0.9375	n/a	Yes	2.983	n/a	5.0	GoodResponse	0	0.042	155.807	3	15	Feedback	Neutral	True
158.215	2.983	Control	0.9375	n/a	Yes	2.983	n/a	n/a	GoodResponse	0	0.0	n/a	3	15	ISIslide	Neutral	True
161.23	0.25	Win2	0.8824	0.0	No	2.87	0.03	n/a	NoResponse	0	n/a	n/a	3	16	Cue	MissedWin	True
161.48	4.0	Win2	0.8824	0.0	No	2.87	0.0	n/a	NoResponse	0	n/a	n/a	3	16	Fixation	MissedWin	True
165.479	0.24	Win2	0.8824	0.001	No	2.87	-0.001	2.0	NoResponse	0	0.257	164.736	3	16	Target	MissedWin	True
165.729	0.46	Win2	0.8824	n/a	No	2.87	n/a	n/a	NoResponse	0	n/a	n/a	3	16	Blank	MissedWin	True
165.736	0.3	Win2	0.8824	0.001	No	2.87	-0.001	2.0	NoResponse	0	0.257	n/a	3	16	ButtonPress	MissedWin	True
166.179	1.45	Win2	0.8824	n/a	No	2.87	n/a	5.0	NoResponse	0	0.043	165.222	3	16	Feedback	MissedWin	True
167.628	2.87	Win2	0.8824	n/a	No	2.87	n/a	n/a	NoResponse	0	0.0	n/a	3	16	ISIslide	MissedWin	True
170.527	0.25	Lose2	0.8889	0.0	Yes	2.723	0.027	n/a	GoodResponse	0	n/a	n/a	3	17	Cue	AvoidedLoss	False
170.777	3.95	Lose2	0.8889	0.0	Yes	2.723	0.0	2.0	GoodResponse	0	0.05	169.827	3	17	Fixation	AvoidedLoss	False
170.827	0.3	Lose2	0.8889	0.0	Yes	2.723	0.0	2.0	GoodResponse	0	0.05	n/a	3	17	ButtonPress	AvoidedLoss	False
174.726	0.23	Lose2	0.8889	0.001	Yes	2.723	-0.001	2.0	GoodResponse	0	0.15	173.876	3	17	Target	AvoidedLoss	False
174.876	0.3	Lose2	0.8889	0.001	Yes	2.723	-0.001	2.0	GoodResponse	0	0.15	n/a	3	17	ButtonPress	AvoidedLoss	False
174.959	0.47	Lose2	0.8889	n/a	Yes	2.723	n/a	n/a	GoodResponse	0	n/a	n/a	3	17	Blank	AvoidedLoss	False
175.426	1.45	Lose2	0.8889	n/a	Yes	2.723	n/a	5.0	GoodResponse	0	0.016	174.442	3	17	Feedback	AvoidedLoss	False
176.875	2.723	Lose2	0.8889	n/a	Yes	2.723	n/a	n/a	GoodResponse	0	0.0	n/a	3	17	ISIslide	AvoidedLoss	False
179.624	0.25	Lose2	0.8946999999999999	0.0	Yes	2.726	0.024	n/a	GoodResponse	0	n/a	n/a	3	18	Cue	AvoidedLoss	True
179.874	4.05	Lose2	0.8946999999999999	0.0	Yes	2.726	0.0	n/a	GoodResponse	0	n/a	n/a	3	18	Fixation	AvoidedLoss	True
183.923	0.22	Lose2	0.8946999999999999	0.001	Yes	2.726	-0.001	2.0	GoodResponse	0	0.174	183.097	3	18	Target	AvoidedLoss	True
184.097	0.3	Lose2	0.8946999999999999	0.001	Yes	2.726	-0.001	2.0	GoodResponse	0	0.174	n/a	3	18	ButtonPress	AvoidedLoss	True
184.156	0.48	Lose2	0.8946999999999999	n/a	Yes	2.726	n/a	n/a	GoodResponse	0	n/a	n/a	3	18	Blank	AvoidedLoss	True
184.622	1.45	Lose2	0.8946999999999999	n/a	Yes	2.726	n/a	5.0	GoodResponse	0	0.039	183.661	3	18	Feedback	AvoidedLoss	True
186.072	2.726	Lose2	0.8946999999999999	n/a	Yes	2.726	n/a	n/a	GoodResponse	0	0.0	n/a	3	18	ISIslide	AvoidedLoss	True
188.821	0.25	Control	0.9	0.0	Yes	2.929	0.021	n/a	GoodResponse	0	n/a	n/a	3	19	Cue	Neutral	True
189.071	3.95	Control	0.9	0.0	Yes	2.929	0.0	n/a	GoodResponse	0	n/a	n/a	3	19	Fixation	Neutral	True
193.02	0.21	Control	0.9	0.001	Yes	2.929	-0.001	2.0	GoodResponse	0	0.18	192.2	3	19	Target	Neutral	True
193.2	0.3	Control	0.9	0.001	Yes	2.929	-0.001	2.0	GoodResponse	0	0.18	n/a	3	19	ButtonPress	Neutral	True
193.236	0.49	Control	0.9	n/a	Yes	2.929	n/a	n/a	GoodResponse	0	n/a	n/a	3	19	Blank	Neutral	True
193.719	1.45	Control	0.9	n/a	Yes	2.929	n/a	5.0	GoodResponse	0	0.016	192.735	3	19	Feedback	Neutral	True
195.169	2.929	Control	0.9	n/a	Yes	2.929	n/a	n/a	GoodResponse	0	0.0	n/a	3	19	ISIslide	Neutral	True
198.118	0.25	Control	0.9048	0.0	Yes	2.632	0.018	n/a	GoodResponse	0	n/a	n/a	3	20	Cue	Neutral	True
198.368	4.05	Control	0.9048	0.0	Yes	2.632	0.0	n/a	GoodResponse	0	n/a	n/a	3	20	Fixation	Neutral	True
202.416	0.2	Control	0.9048	0.002	Yes	2.632	-0.002	2.0	GoodResponse	0	0.166	201.582	3	20	Target	Neutral	True
202.582	0.3	Control	0.9048	0.002	Yes	2.632	-0.002	2.0	GoodResponse	0	0.166	n/a	3	20	ButtonPress	Neutral	True
202.616	0.5	Control	0.9048	n/a	Yes	2.632	n/a	n/a	GoodResponse	0	n/a	n/a	3	20	Blank	Neutral	True
203.116	1.45	Control	0.9048	n/a	Yes	2.632	n/a	5.0	GoodResponse	0	0.034	202.15	3	20	Feedback	Neutral	True
204.566	2.632	Control	0.9048	n/a	Yes	2.632	n/a	n/a	GoodResponse	0	0.0	n/a	3	20	ISIslide	Neutral	True
207.215	0.25	Control	0.9091	0.0	Yes	2.785	0.015	n/a	GoodResponse	0	n/a	n/a	3	21	Cue	Neutral	True
207.465	4.1	Control	0.9091	0.0	Yes	2.785	0.0	n/a	GoodResponse	0	n/a	n/a	3	21	Fixation	Neutral	True
211.563	0.19	Control	0.9091	0.002	Yes	2.785	-0.002	2.0	GoodResponse	0	0.189	210.752	3	21	Target	Neutral	True
211.752	0.3	Control	0.9091	0.002	Yes	2.785	-0.002	2.0	GoodResponse	0	0.189	n/a	3	21	ButtonPress	Neutral	True
211.763	0.51	Control	0.9091	n/a	Yes	2.785	n/a	n/a	GoodResponse	0	n/a	n/a	3	21	Blank	Neutral	True
212.263	1.45	Control	0.9091	n/a	Yes	2.785	n/a	5.0	GoodResponse	0	0.008	211.271	3	21	Feedback	Neutral	True
213.712	2.785	Control	0.9091	n/a	Yes	2.785	n/a	n/a	GoodResponse	0	0.0	n/a	3	21	ISIslide	Neutral	True
216.528	0.25	Control	0.9129999999999999	0.0	Yes	2.772	0.028	n/a	GoodResponse	0	n/a	n/a	3	22	Cue	Neutral	True
216.778	4.0	Control	0.9129999999999999	0.0	Yes	2.772	0.0	n/a	GoodResponse	0	n/a	n/a	3	22	Fixation	Neutral	True
220.777	0.18	Control	0.9129999999999999	0.001	Yes	2.772	-0.001	2.0	GoodResponse	0	0.178	219.955	3	22	Target	Neutral	True
220.955	0.3	Control	0.9129999999999999	0.001	Yes	2.772	-0.001	2.0	GoodResponse	0	0.178	n/a	3	22	ButtonPress	Neutral	True
220.96	0.52	Control	0.9129999999999999	n/a	Yes	2.772	n/a	n/a	GoodResponse	0	n/a	n/a	3	22	Blank	Neutral	True
221.476	1.45	Control	0.9129999999999999	n/a	Yes	2.772	n/a	5.0	GoodResponse	0	0.014	220.49	3	22	Feedback	Neutral	True
222.926	2.772	Control	0.9129999999999999	n/a	Yes	2.772	n/a	n/a	GoodResponse	0	0.0	n/a	3	22	ISIslide	Neutral	True
225.725	0.25	Control	0.875	0.0	No	2.775	0.025	n/a	NoResponse	0	n/a	n/a	3	23	Cue	Neutral	True
225.975	3.9	Control	0.875	0.0	No	2.775	0.0	n/a	NoResponse	0	n/a	n/a	3	23	Fixation	Neutral	True
229.874	0.17	Control	0.875	0.001	No	2.775	-0.001	2.0	NoResponse	0	0.252	229.126	3	23	Target	Neutral	True
230.057	0.53	Control	0.875	n/a	No	2.775	n/a	n/a	NoResponse	0	n/a	n/a	3	23	Blank	Neutral	True
230.126	0.3	Control	0.875	0.001	No	2.775	-0.001	2.0	NoResponse	0	0.252	n/a	3	23	ButtonPress	Neutral	True
230.573	1.45	Control	0.875	n/a	No	2.775	n/a	5.0	NoResponse	0	0.039	229.612	3	23	Feedback	Neutral	True
232.023	2.775	Control	0.875	n/a	No	2.775	n/a	n/a	NoResponse	0	0.0	n/a	3	23	ISIslide	Neutral	True
234.822	0.25	Win2	0.84	0.0	No	3.128	0.022	n/a	NoResponse	0	n/a	n/a	3	24	Cue	MissedWin	True
235.072	3.95	Win2	0.84	0.0	No	3.128	0.0	n/a	NoResponse	0	n/a	n/a	3	24	Fixation	MissedWin	True
239.02	0.16	Win2	0.84	0.002	No	3.128	-0.002	2.0	NoResponse	0	0.193	238.213	3	24	Target	MissedWin	True
239.187	0.54	Win2	0.84	n/a	No	3.128	n/a	n/a	NoResponse	0	n/a	n/a	3	24	Blank	MissedWin	True
239.213	0.3	Win2	0.84	0.002	No	3.128	-0.002	2.0	NoResponse	0	0.193	n/a	3	24	ButtonPress	MissedWin	True
239.72	1.45	Win2	0.84	n/a	No	3.128	n/a	5.0	NoResponse	0	0.014	238.734	3	24	Feedback	MissedWin	True
241.17	3.128	Win2	0.84	n/a	No	3.128	n/a	n/a	NoResponse	0	0.0	n/a	3	24	ISIslide	MissedWin	True
244.319	0.25	Win2	0.8077	0.0	No	3.081	0.019	n/a	NoResponse	0	n/a	n/a	3	25	Cue	MissedWin	True
244.569	4.0	Win2	0.8077	0.0	No	3.081	0.0	n/a	NoResponse	0	n/a	n/a	3	25	Fixation	MissedWin	True
248.567	0.15	Win2	0.8077	0.002	No	3.081	-0.002	2.0	NoResponse	0	0.221	247.788	3	25	Target	MissedWin	True
248.717	0.55	Win2	0.8077	n/a	No	3.081	n/a	n/a	NoResponse	0	n/a	n/a	3	25	Blank	MissedWin	True
248.788	0.3	Win2	0.8077	0.002	No	3.081	-0.002	2.0	NoResponse	0	0.221	n/a	3	25	ButtonPress	MissedWin	True
249.267	1.45	Win2	0.8077	n/a	No	3.081	n/a	5.0	NoResponse	0	0.028	248.295	3	25	Feedback	MissedWin	True
250.716	3.081	Win2	0.8077	n/a	No	3.081	n/a	n/a	NoResponse	0	0.0	n/a	3	25	ISIslide	MissedWin	True
253.815	0.25	Win2	0.7778	0.0	No	2.935	0.015	n/a	NoResponse	0	n/a	n/a	3	26	Cue	MissedWin	True
254.065	3.95	Win2	0.7778	0.0	No	2.935	0.0	n/a	NoResponse	0	n/a	n/a	3	26	Fixation	MissedWin	True
258.014	0.15	Win2	0.7778	0.001	No	2.935	-0.001	2.0	NoResponse	0	0.157	257.171	3	26	Target	MissedWin	True
258.164	0.55	Win2	0.7778	n/a	No	2.935	n/a	n/a	NoResponse	0	n/a	n/a	3	26	Blank	MissedWin	True
258.171	0.3	Win2	0.7778	0.001	No	2.935	-0.001	2.0	NoResponse	0	0.157	n/a	3	26	ButtonPress	MissedWin	True
258.714	1.45	Win2	0.7778	n/a	No	2.935	n/a	5.0	NoResponse	0	0.045	257.759	3	26	Feedback	MissedWin	True
260.163	2.935	Win2	0.7778	n/a	No	2.935	n/a	n/a	NoResponse	0	0.0	n/a	3	26	ISIslide	MissedWin	True
263.112	0.25	Lose2	0.75	0.0	No	2.838	0.012	n/a	NoResponse	-1	n/a	n/a	2	27	Cue	Loss	True
263.362	4.05	Lose2	0.75	0.0	No	2.838	0.0	n/a	NoResponse	-1	n/a	n/a	2	27	Fixation	Loss	True
267.411	0.15	Lose2	0.75	0.001	No	2.838	-0.001	2.0	NoResponse	-1	0.189	266.6	2	27	Target	Loss	True
267.561	0.55	Lose2	0.75	n/a	No	2.838	n/a	n/a	NoResponse	-1	n/a	n/a	2	27	Blank	Loss	True
267.6	0.3	Lose2	0.75	0.001	No	2.838	-0.001	2.0	NoResponse	-1	0.189	n/a	2	27	ButtonPress	Loss	True
268.11	1.45	Lose2	0.75	n/a	No	2.838	n/a	5.0	NoResponse	-1	0.015	267.125	2	27	Feedback	Loss	True
269.56	2.838	Lose2	0.75	n/a	No	2.838	n/a	n/a	NoResponse	-1	0.0	n/a	2	27	ISIslide	Loss	True
272.426	0.25	Control	0.7241	0.0	No	2.824	0.026	n/a	NoResponse	0	n/a	n/a	2	28	Cue	Neutral	True
272.676	4.05	Control	0.7241	0.0	No	2.824	0.0	n/a	NoResponse	0	n/a	n/a	2	28	Fixation	Neutral	True
276.724	0.15	Control	0.7241	0.002	No	2.824	-0.002	2.0	NoResponse	0	0.169	275.893	2	28	Target	Neutral	True
276.874	0.55	Control	0.7241	n/a	No	2.824	n/a	n/a	NoResponse	0	n/a	n/a	2	28	Blank	Neutral	True
276.893	0.3	Control	0.7241	0.002	No	2.824	-0.002	2.0	NoResponse	0	0.169	n/a	2	28	ButtonPress	Neutral	True
277.424	1.45	Control	0.7241	n/a	No	2.824	n/a	5.0	NoResponse	0	0.018	276.442	2	28	Feedback	Neutral	True
278.873	2.824	Control	0.7241	n/a	No	2.824	n/a	n/a	NoResponse	0	0.0	n/a	2	28	ISIslide	Neutral	True
281.723	0.25	Lose2	0.7	0.0	No	2.827	0.023	n/a	NoResponse	-1	n/a	n/a	1	29	Cue	Loss	True
281.972	3.95	Lose2	0.7	0.001	No	2.827	-0.001	n/a	NoResponse	-1	n/a	n/a	1	29	Fixation	Loss	True
285.921	0.15	Lose2	0.7	0.002	No	2.827	-0.002	2.0	NoResponse	-1	0.172	285.093	1	29	Target	Loss	True
286.071	0.55	Lose2	0.7	n/a	No	2.827	n/a	n/a	NoResponse	-1	n/a	n/a	1	29	Blank	Loss	True
286.093	0.3	Lose2	0.7	0.002	No	2.827	-0.002	2.0	NoResponse	-1	0.172	n/a	1	29	ButtonPress	Loss	True
286.621	1.45	Lose2	0.7	n/a	No	2.827	n/a	5.0	NoResponse	-1	0.04	285.661	1	29	Feedback	Loss	True
288.07	2.827	Lose2	0.7	n/a	No	2.827	n/a	n/a	NoResponse	-1	0.0	n/a	1	29	ISIslide	Loss	True
290.919	0.25	Win2	0.6774	0.0	No	2.781	0.019	n/a	NoResponse	0	n/a	n/a	1	30	Cue	MissedWin	True
291.169	3.9	Win2	0.6774	0.0	No	2.781	0.0	n/a	NoResponse	0	n/a	n/a	1	30	Fixation	MissedWin	True
295.068	0.15	Win2	0.6774	0.001	No	2.781	-0.001	2.0	NoResponse	0	0.177	294.245	1	30	Target	MissedWin	True
295.218	0.55	Win2	0.6774	n/a	No	2.781	n/a	n/a	NoResponse	0	n/a	n/a	1	30	Blank	MissedWin	True
295.245	0.3	Win2	0.6774	0.001	No	2.781	-0.001	2.0	NoResponse	0	0.177	n/a	1	30	ButtonPress	MissedWin	True
295.768	1.45	Win2	0.6774	n/a	No	2.781	n/a	5.0	NoResponse	0	0.015	294.783	1	30	Feedback	MissedWin	True
297.217	2.781	Win2	0.6774	n/a	No	2.781	n/a	n/a	NoResponse	0	0.0	n/a	1	30	ISIslide	MissedWin	True
300.016	0.25	Lose2	0.6562	0.0	No	2.834	0.016	n/a	NoResponse	-1	n/a	n/a	0	31	Cue	Loss	True
300.266	4.05	Lose2	0.6562	0.0	No	2.834	0.0	n/a	NoResponse	-1	n/a	n/a	0	31	Fixation	Loss	True
304.315	0.15	Lose2	0.6562	0.001	No	2.834	-0.001	2.0	NoResponse	-1	0.219	303.534	0	31	Target	Loss	True
304.465	0.55	Lose2	0.6562	n/a	No	2.834	n/a	n/a	NoResponse	-1	n/a	n/a	0	31	Blank	Loss	True
304.534	0.3	Lose2	0.6562	0.001	No	2.834	-0.001	2.0	NoResponse	-1	0.219	n/a	0	31	ButtonPress	Loss	True
305.015	1.45	Lose2	0.6562	n/a	No	2.834	n/a	5.0	NoResponse	-1	0.036	304.051	0	31	Feedback	Loss	True
306.464	2.834	Lose2	0.6562	n/a	No	2.834	n/a	n/a	NoResponse	-1	0.0	n/a	0	31	ISIslide	Loss	True
309.313	0.25	Lose2	0.6364	0.0	No	2.637	0.013	n/a	NoResponse	-1	n/a	n/a	-1	32	Cue	Loss	True
309.563	4.15	Lose2	0.6364	0.0	No	2.637	0.0	n/a	NoResponse	-1	n/a	n/a	-1	32	Fixation	Loss	True
313.712	0.15	Lose2	0.6364	0.001	No	2.637	-0.001	2.0	NoResponse	-1	0.172	312.884	-1	32	Target	Loss	True
313.862	0.55	Lose2	0.6364	n/a	No	2.637	n/a	n/a	NoResponse	-1	n/a	n/a	-1	32	Blank	Loss	True
313.884	0.3	Lose2	0.6364	0.001	No	2.637	-0.001	2.0	NoResponse	-1	0.172	n/a	-1	32	ButtonPress	Loss	True
314.411	1.45	Lose2	0.6364	n/a	No	2.637	n/a	5.0	NoResponse	-1	0.007	313.418	-1	32	Feedback	Loss	True
315.861	2.637	Lose2	0.6364	n/a	No	2.637	n/a	n/a	NoResponse	-1	0.0	n/a	-1	32	ISIslide	Loss	True
318.527	0.25	Win2	0.6175999999999999	0.0	No	2.673	0.027	n/a	NoResponse	0	n/a	n/a	-1	33	Cue	MissedWin	True
318.776	4.0	Win2	0.6175999999999999	0.001	No	2.673	-0.001	n/a	NoResponse	0	n/a	n/a	-1	33	Fixation	MissedWin	True
322.775	0.16	Win2	0.6175999999999999	0.002	No	2.673	-0.002	2.0	NoResponse	0	0.175	321.95	-1	33	Target	MissedWin	True
322.942	0.54	Win2	0.6175999999999999	n/a	No	2.673	n/a	n/a	NoResponse	0	n/a	n/a	-1	33	Blank	MissedWin	True
322.95	0.3	Win2	0.6175999999999999	0.002	No	2.673	-0.002	2.0	NoResponse	0	0.175	n/a	-1	33	ButtonPress	MissedWin	True
323.475	1.45	Win2	0.6175999999999999	n/a	No	2.673	n/a	5.0	NoResponse	0	0.015	322.49	-1	33	Feedback	MissedWin	True
324.924	2.673	Win2	0.6175999999999999	n/a	No	2.673	n/a	n/a	NoResponse	0	0.0	n/a	-1	33	ISIslide	MissedWin	True
327.623	0.25	Lose2	0.6286	0.001	Yes	2.627	0.023	n/a	GoodResponse	0	n/a	n/a	-1	34	Cue	AvoidedLoss	True
327.873	4.05	Lose2	0.6286	0.0	Yes	2.627	0.0	n/a	GoodResponse	0	n/a	n/a	-1	34	Fixation	AvoidedLoss	True
331.922	0.17	Lose2	0.6286	0.001	Yes	2.627	-0.001	2.0	GoodResponse	0	0.16	331.082	-1	34	Target	AvoidedLoss	True
332.082	0.3	Lose2	0.6286	0.001	Yes	2.627	-0.001	2.0	GoodResponse	0	0.16	n/a	-1	34	ButtonPress	AvoidedLoss	True
332.089	0.53	Lose2	0.6286	n/a	Yes	2.627	n/a	n/a	GoodResponse	0	n/a	n/a	-1	34	Blank	AvoidedLoss	True
332.622	1.45	Lose2	0.6286	n/a	Yes	2.627	n/a	5.0	GoodResponse	0	0.039	331.661	-1	34	Feedback	AvoidedLoss	True
334.071	2.627	Lose2	0.6286	n/a	Yes	2.627	n/a	n/a	GoodResponse	0	0.0	n/a	-1	34	ISIslide	AvoidedLoss	True
336.72	0.25	Lose2	0.6389	0.0	Yes	2.68	0.02	n/a	GoodResponse	0	n/a	n/a	-1	35	Cue	AvoidedLoss	True
336.97	4.0	Lose2	0.6389	0.0	Yes	2.68	0.0	n/a	GoodResponse	0	n/a	n/a	-1	35	Fixation	AvoidedLoss	True
340.969	0.18	Lose2	0.6389	0.001	Yes	2.68	-0.001	2.0	GoodResponse	0	0.172	340.141	-1	35	Target	AvoidedLoss	True
341.141	0.3	Lose2	0.6389	0.001	Yes	2.68	-0.001	2.0	GoodResponse	0	0.172	n/a	-1	35	ButtonPress	AvoidedLoss	True
341.152	0.52	Lose2	0.6389	n/a	Yes	2.68	n/a	n/a	GoodResponse	0	n/a	n/a	-1	35	Blank	AvoidedLoss	True
341.669	1.45	Lose2	0.6389	n/a	Yes	2.68	n/a	5.0	GoodResponse	0	0.017	340.686	-1	35	Feedback	AvoidedLoss	True
343.118	2.68	Lose2	0.6389	n/a	Yes	2.68	n/a	n/a	GoodResponse	0	0.0	n/a	-1	35	ISIslide	AvoidedLoss	True
345.817	0.25	Control	0.6486	0.0	Yes	2.683	0.017	n/a	GoodResponse	0	n/a	n/a	-1	36	Cue	Neutral	False
346.067	4.0	Control	0.6486	0.0	Yes	2.683	0.0	2.0	GoodResponse	0	3.686	348.753	-1	36	Fixation	Neutral	False
349.753	0.3	Control	0.6486	0.0	Yes	2.683	0.0	2.0	GoodResponse	0	3.686	n/a	-1	36	ButtonPress	Neutral	False
350.066	0.19	Control	0.6486	0.001	Yes	2.683	-0.001	2.0	GoodResponse	0	0.149	349.215	-1	36	Target	Neutral	False
350.215	0.3	Control	0.6486	0.001	Yes	2.683	-0.001	2.0	GoodResponse	0	0.149	n/a	-1	36	ButtonPress	Neutral	False
350.266	0.51	Control	0.6486	n/a	Yes	2.683	n/a	n/a	GoodResponse	0	n/a	n/a	-1	36	Blank	Neutral	False
350.766	1.45	Control	0.6486	n/a	Yes	2.683	n/a	5.0	GoodResponse	0	0.042	349.808	-1	36	Feedback	Neutral	False
352.215	2.683	Control	0.6486	n/a	Yes	2.683	n/a	n/a	GoodResponse	0	0.0	n/a	-1	36	ISIslide	Neutral	False
354.914	0.25	Win2	0.6579	0.0	Yes	2.886	0.014	n/a	GoodResponse	1	n/a	n/a	0	37	Cue	Win	True
355.164	4.0	Win2	0.6579	0.0	Yes	2.886	0.0	n/a	GoodResponse	1	n/a	n/a	0	37	Fixation	Win	True
359.163	0.2	Win2	0.6579	0.001	Yes	2.886	-0.001	2.0	GoodResponse	1	0.177	358.34	0	37	Target	Win	True
359.34	0.3	Win2	0.6579	0.001	Yes	2.886	-0.001	2.0	GoodResponse	1	0.177	n/a	0	37	ButtonPress	Win	True
359.363	0.5	Win2	0.6579	n/a	Yes	2.886	n/a	n/a	GoodResponse	1	n/a	n/a	0	37	Blank	Win	True
359.862	1.45	Win2	0.6579	n/a	Yes	2.886	n/a	5.0	GoodResponse	1	0.018	358.88	0	37	Feedback	Win	True
361.312	2.886	Win2	0.6579	n/a	Yes	2.886	n/a	n/a	GoodResponse	1	0.0	n/a	0	37	ISIslide	Win	True
364.228	0.25	Lose2	0.6667000000000001	0.0	Yes	2.822	0.028	n/a	GoodResponse	0	n/a	n/a	0	38	Cue	AvoidedLoss	True
364.477	3.95	Lose2	0.6667000000000001	0.001	Yes	2.822	-0.001	n/a	GoodResponse	0	n/a	n/a	0	38	Fixation	AvoidedLoss	True
368.426	0.2	Lose2	0.6667000000000001	0.002	Yes	2.822	-0.002	2.0	GoodResponse	0	0.178	367.604	0	38	Target	AvoidedLoss	True
368.604	0.3	Lose2	0.6667000000000001	0.002	Yes	2.822	-0.002	2.0	GoodResponse	0	0.178	n/a	0	38	ButtonPress	AvoidedLoss	True
368.626	0.5	Lose2	0.6667000000000001	n/a	Yes	2.822	n/a	n/a	GoodResponse	0	n/a	n/a	0	38	Blank	AvoidedLoss	True
369.126	1.45	Lose2	0.6667000000000001	n/a	Yes	2.822	n/a	5.0	GoodResponse	0	0.023	368.149	0	38	Feedback	AvoidedLoss	True
370.575	2.822	Lose2	0.6667000000000001	n/a	Yes	2.822	n/a	n/a	GoodResponse	0	0.0	n/a	0	38	ISIslide	AvoidedLoss	True
373.424	0.25	Win2	0.675	0.001	Yes	2.976	0.024	n/a	GoodResponse	1	n/a	n/a	1	39	Cue	Win	False
373.674	4.1	Win2	0.675	0.0	Yes	2.976	0.0	2.0	GoodResponse	1	3.619	376.293	1	39	Fixation	Win	False
377.293	0.3	Win2	0.675	0.0	Yes	2.976	0.0	2.0	GoodResponse	1	3.619	n/a	1	39	ButtonPress	Win	False
377.773	0.19	Win2	0.675	0.001	Yes	2.976	-0.001	2.0	GoodResponse	1	0.137	376.91	1	39	Target	Win	False
377.91	0.3	Win2	0.675	0.001	Yes	2.976	-0.001	2.0	GoodResponse	1	0.137	n/a	1	39	ButtonPress	Win	False
377.973	0.51	Win2	0.675	n/a	Yes	2.976	n/a	n/a	GoodResponse	1	n/a	n/a	1	39	Blank	Win	False
378.473	1.45	Win2	0.675	n/a	Yes	2.976	n/a	5.0	GoodResponse	1	0.042	377.515	1	39	Feedback	Win	False
379.922	2.976	Win2	0.675	n/a	Yes	2.976	n/a	n/a	GoodResponse	1	0.0	n/a	1	39	ISIslide	Win	False
382.921	0.25	Win2	0.6829000000000001	0.0	Yes	2.729	0.021	n/a	GoodResponse	1	n/a	n/a	2	40	Cue	Win	True
383.171	3.95	Win2	0.6829000000000001	0.0	Yes	2.729	0.0	n/a	GoodResponse	1	n/a	n/a	2	40	Fixation	Win	True
387.12	0.18	Win2	0.6829000000000001	0.001	Yes	2.729	-0.001	2.0	GoodResponse	1	0.177	386.297	2	40	Target	Win	True
387.297	0.3	Win2	0.6829000000000001	0.001	Yes	2.729	-0.001	2.0	GoodResponse	1	0.177	n/a	2	40	ButtonPress	Win	True
387.303	0.52	Win2	0.6829000000000001	n/a	Yes	2.729	n/a	n/a	GoodResponse	1	n/a	n/a	2	40	Blank	Win	True
387.82	1.45	Win2	0.6829000000000001	n/a	Yes	2.729	n/a	5.0	GoodResponse	1	0.012	386.832	2	40	Feedback	Win	True
389.269	2.729	Win2	0.6829000000000001	n/a	Yes	2.729	n/a	n/a	GoodResponse	1	0.0	n/a	2	40	ISIslide	Win	True
392.018	0.25	Win2	0.6667000000000001	0.0	No	2.782	0.018	n/a	NoResponse	0	n/a	n/a	2	41	Cue	MissedWin	True
392.268	3.9	Win2	0.6667000000000001	0.0	No	2.782	0.0	n/a	NoResponse	0	n/a	n/a	2	41	Fixation	MissedWin	True
396.167	0.17	Win2	0.6667000000000001	0.001	No	2.782	-0.001	2.0	NoResponse	0	0.198	395.365	2	41	Target	MissedWin	True
396.35	0.53	Win2	0.6667000000000001	n/a	No	2.782	n/a	n/a	NoResponse	0	n/a	n/a	2	41	Blank	MissedWin	True
396.365	0.3	Win2	0.6667000000000001	0.001	No	2.782	-0.001	2.0	NoResponse	0	0.198	n/a	2	41	ButtonPress	MissedWin	True
396.866	1.45	Win2	0.6667000000000001	n/a	No	2.782	n/a	5.0	NoResponse	0	0.039	395.905	2	41	Feedback	MissedWin	True
398.316	2.782	Win2	0.6667000000000001	n/a	No	2.782	n/a	n/a	NoResponse	0	0.0	n/a	2	41	ISIslide	MissedWin	True
401.115	0.25	Control	0.6512	0.0	No	2.935	0.015	n/a	NoResponse	0	n/a	n/a	2	42	Cue	Neutral	False
401.365	3.85	Control	0.6512	0.0	No	2.935	0.0	2.0	NoResponse	0	3.341	403.706	2	42	Fixation	Neutral	False
404.706	0.3	Control	0.6512	0.0	No	2.935	0.0	2.0	NoResponse	0	3.341	n/a	2	42	ButtonPress	Neutral	False
405.214	0.16	Control	0.6512	0.001	No	2.935	-0.001	2.0	NoResponse	0	0.209	404.423	2	42	Target	Neutral	False
405.38	0.54	Control	0.6512	n/a	No	2.935	n/a	n/a	NoResponse	0	n/a	n/a	2	42	Blank	Neutral	False
405.423	0.3	Control	0.6512	0.001	No	2.935	-0.001	2.0	NoResponse	0	0.209	n/a	2	42	ButtonPress	Neutral	False
405.913	1.45	Control	0.6512	n/a	No	2.935	n/a	5.0	NoResponse	0	0.017	404.93	2	42	Feedback	Neutral	False
407.363	2.935	Control	0.6512	n/a	No	2.935	n/a	n/a	NoResponse	0	0.0	n/a	2	42	ISIslide	Neutral	False
410.328	0.25	Win2	0.6364	0.001	No	3.172	0.028	n/a	NoResponse	0	n/a	n/a	2	43	Cue	MissedWin	True
410.578	4.0	Win2	0.6364	0.0	No	3.172	0.0	n/a	NoResponse	0	n/a	n/a	2	43	Fixation	MissedWin	True
414.577	0.17	Win2	0.6364	0.001	No	3.172	-0.001	2.0	NoResponse	0	0.232	413.809	2	43	Target	MissedWin	True
414.744	0.53	Win2	0.6364	n/a	No	3.172	n/a	n/a	NoResponse	0	n/a	n/a	2	43	Blank	MissedWin	True
414.809	0.3	Win2	0.6364	0.001	No	3.172	-0.001	2.0	NoResponse	0	0.232	n/a	2	43	ButtonPress	MissedWin	True
415.277	1.45	Win2	0.6364	n/a	No	3.172	n/a	5.0	NoResponse	0	0.019	414.296	2	43	Feedback	MissedWin	True
416.726	3.172	Win2	0.6364	n/a	No	3.172	n/a	n/a	NoResponse	0	0.0	n/a	2	43	ISIslide	MissedWin	True
419.925	0.25	Win2	0.6222	0.0	No	2.975	0.025	n/a	NoResponse	0	n/a	n/a	2	44	Cue	MissedWin	True
420.175	4.0	Win2	0.6222	0.0	No	2.975	0.0	n/a	NoResponse	0	n/a	n/a	2	44	Fixation	MissedWin	True
424.174	0.18	Win2	0.6222	0.001	No	2.975	-0.001	2.0	NoResponse	0	0.206	423.38	2	44	Target	MissedWin	True
424.357	0.52	Win2	0.6222	n/a	No	2.975	n/a	n/a	NoResponse	0	n/a	n/a	2	44	Blank	MissedWin	True
424.38	0.3	Win2	0.6222	0.001	No	2.975	-0.001	2.0	NoResponse	0	0.206	n/a	2	44	ButtonPress	MissedWin	True
424.873	1.45	Win2	0.6222	n/a	No	2.975	n/a	5.0	NoResponse	0	0.032	423.905	2	44	Feedback	MissedWin	True
426.323	2.975	Win2	0.6222	n/a	No	2.975	n/a	n/a	NoResponse	0	0.0	n/a	2	44	ISIslide	MissedWin	True
429.322	0.25	Control	0.6087	0.0	No	2.878	0.022	n/a	NoResponse	0	n/a	n/a	2	45	Cue	Neutral	True
429.572	4.1	Control	0.6087	0.0	No	2.878	0.0	n/a	NoResponse	0	n/a	n/a	2	45	Fixation	Neutral	True
433.67	0.19	Control	0.6087	0.002	No	2.878	-0.002	2.0	NoResponse	0	0.234	432.904	2	45	Target	Neutral	True
433.87	0.51	Control	0.6087	n/a	No	2.878	n/a	n/a	NoResponse	0	n/a	n/a	2	45	Blank	Neutral	True
433.904	0.3	Control	0.6087	0.002	No	2.878	-0.002	2.0	NoResponse	0	0.234	n/a	2	45	ButtonPress	Neutral	True
434.37	1.45	Control	0.6087	n/a	No	2.878	n/a	5.0	NoResponse	0	0.047	433.417	2	45	Feedback	Neutral	True
435.82	2.878	Control	0.6087	n/a	No	2.878	n/a	n/a	NoResponse	0	0.0	n/a	2	45	ISIslide	Neutral	True
438.719	0.25	Lose2	0.5957	0.0	No	3.381	0.019	n/a	NoResponse	-1	n/a	n/a	1	46	Cue	Loss	True
438.969	4.0	Lose2	0.5957	0.0	No	3.381	0.0	n/a	NoResponse	-1	n/a	n/a	1	46	Fixation	Loss	True
442.967	0.2	Lose2	0.5957	0.002	No	3.381	-0.002	2.0	NoResponse	-1	0.214	442.181	1	46	Target	Loss	True
443.167	0.5	Lose2	0.5957	n/a	No	3.381	n/a	n/a	NoResponse	-1	n/a	n/a	1	46	Blank	Loss	True
443.181	0.3	Lose2	0.5957	0.002	No	3.381	-0.002	2.0	NoResponse	-1	0.214	n/a	1	46	ButtonPress	Loss	True
443.667	1.45	Lose2	0.5957	n/a	No	3.381	n/a	5.0	NoResponse	-1	0.018	442.685	1	46	Feedback	Loss	True
445.117	3.381	Lose2	0.5957	n/a	No	3.381	n/a	n/a	NoResponse	-1	0.0	n/a	1	46	ISIslide	Loss	True
448.515	0.25	Lose2	0.6042000000000001	0.001	Yes	2.685	0.015	n/a	GoodResponse	0	n/a	n/a	1	47	Cue	AvoidedLoss	True
448.765	4.0	Lose2	0.6042000000000001	0.0	Yes	2.685	0.0	n/a	GoodResponse	0	n/a	n/a	1	47	Fixation	AvoidedLoss	True
452.764	0.21	Lose2	0.6042000000000001	0.001	Yes	2.685	-0.001	2.0	GoodResponse	0	0.176	451.94	1	47	Target	AvoidedLoss	True
452.94	0.3	Lose2	0.6042000000000001	0.001	Yes	2.685	-0.001	2.0	GoodResponse	0	0.176	n/a	1	47	ButtonPress	AvoidedLoss	True
452.981	0.49	Lose2	0.6042000000000001	n/a	Yes	2.685	n/a	n/a	GoodResponse	0	n/a	n/a	1	47	Blank	AvoidedLoss	True
453.464	1.45	Lose2	0.6042000000000001	n/a	Yes	2.685	n/a	5.0	GoodResponse	0	0.026	452.49	1	47	Feedback	AvoidedLoss	True
454.913	2.685	Lose2	0.6042000000000001	n/a	Yes	2.685	n/a	n/a	GoodResponse	0	0.0	n/a	1	47	ISIslide	AvoidedLoss	True
457.612	0.25	Lose2	0.6122	0.0	Yes	3.038	0.012	n/a	GoodResponse	0	n/a	n/a	1	48	Cue	AvoidedLoss	True
457.862	3.95	Lose2	0.6122	0.0	Yes	3.038	0.0	n/a	GoodResponse	0	n/a	n/a	1	48	Fixation	AvoidedLoss	True
461.811	0.22	Lose2	0.6122	0.001	Yes	3.038	-0.001	2.0	GoodResponse	0	0.176	460.987	1	48	Target	AvoidedLoss	True
461.987	0.3	Lose2	0.6122	0.001	Yes	3.038	-0.001	2.0	GoodResponse	0	0.176	n/a	1	48	ButtonPress	AvoidedLoss	True
462.027	0.48	Lose2	0.6122	n/a	Yes	3.038	n/a	n/a	GoodResponse	0	n/a	n/a	1	48	Blank	AvoidedLoss	True
462.511	1.45	Lose2	0.6122	n/a	Yes	3.038	n/a	5.0	GoodResponse	0	0.004	461.515	1	48	Feedback	AvoidedLoss	True
463.96	3.038	Lose2	0.6122	n/a	Yes	3.038	n/a	n/a	GoodResponse	0	0.0	n/a	1	48	ISIslide	AvoidedLoss	True
467.026	0.25	Control	0.62	0.0	Yes	2.874	0.026	n/a	GoodResponse	0	n/a	n/a	1	49	Cue	Neutral	False
467.276	4.0	Control	0.62	0.0	Yes	2.874	0.0	2.0	GoodResponse	0	3.777	470.053	1	49	Fixation	Neutral	False
471.053	0.3	Control	0.62	0.0	Yes	2.874	0.0	2.0	GoodResponse	0	3.777	n/a	1	49	ButtonPress	Neutral	False
471.274	0.23	Control	0.62	0.002	Yes	2.874	-0.002	2.0	GoodResponse	0	0.178	470.452	1	49	Target	Neutral	False
471.452	0.3	Control	0.62	0.002	Yes	2.874	-0.002	2.0	GoodResponse	0	0.178	n/a	1	49	ButtonPress	Neutral	False
471.508	0.47	Control	0.62	n/a	Yes	2.874	n/a	n/a	GoodResponse	0	n/a	n/a	1	49	Blank	Neutral	False
471.974	1.45	Control	0.62	n/a	Yes	2.874	n/a	5.0	GoodResponse	0	0.005	470.979	1	49	Feedback	Neutral	False
473.424	2.874	Control	0.62	n/a	Yes	2.874	n/a	n/a	GoodResponse	0	0.0	n/a	1	49	ISIslide	Neutral	False
476.323	0.25	Control	0.6275	0.0	Yes	2.777	0.023	n/a	GoodResponse	0	n/a	n/a	1	50	Cue	Neutral	True
476.572	4.0	Control	0.6275	0.001	Yes	2.777	-0.001	n/a	GoodResponse	0	n/a	n/a	1	50	Fixation	Neutral	True
480.571	0.24	Control	0.6275	0.002	Yes	2.777	-0.002	2.0	GoodResponse	0	0.189	479.76	1	50	Target	Neutral	True
480.76	0.3	Control	0.6275	0.002	Yes	2.777	-0.002	2.0	GoodResponse	0	0.189	n/a	1	50	ButtonPress	Neutral	True
480.821	0.46	Control	0.6275	n/a	Yes	2.777	n/a	n/a	GoodResponse	0	n/a	n/a	1	50	Blank	Neutral	True
481.271	1.45	Control	0.6275	n/a	Yes	2.777	n/a	5.0	GoodResponse	0	0.024	480.295	1	50	Feedback	Neutral	True
482.72	2.777	Control	0.6275	n/a	Yes	2.777	n/a	n/a	GoodResponse	0	0.0	n/a	1	50	ISIslide	Neutral	True
485.519	0.25	Control	0.6346	0.0	Yes	2.731	0.019	n/a	GoodResponse	0	n/a	n/a	1	51	Cue	Neutral	True
485.769	3.95	Control	0.6346	0.0	Yes	2.731	0.0	n/a	GoodResponse	0	n/a	n/a	1	51	Fixation	Neutral	True
489.718	0.25	Control	0.6346	0.001	Yes	2.731	-0.001	2.0	GoodResponse	0	0.233	488.951	1	51	Target	Neutral	True
489.951	0.3	Control	0.6346	0.001	Yes	2.731	-0.001	2.0	GoodResponse	0	0.233	n/a	1	51	ButtonPress	Neutral	True
489.968	0.45	Control	0.6346	n/a	Yes	2.731	n/a	n/a	GoodResponse	0	n/a	n/a	1	51	Blank	Neutral	True
490.418	1.45	Control	0.6346	n/a	Yes	2.731	n/a	5.0	GoodResponse	0	0.048	489.466	1	51	Feedback	Neutral	True
491.867	2.731	Control	0.6346	n/a	Yes	2.731	n/a	n/a	GoodResponse	0	0.0	n/a	1	51	ISIslide	Neutral	True
494.616	0.25	Control	0.6415000000000001	0.0	Yes	2.634	0.016	n/a	GoodResponse	0	n/a	n/a	1	52	Cue	Neutral	True
494.866	4.05	Control	0.6415000000000001	0.0	Yes	2.634	0.0	n/a	GoodResponse	0	n/a	n/a	1	52	Fixation	Neutral	True
498.915	0.26	Control	0.6415000000000001	0.001	Yes	2.634	-0.001	2.0	GoodResponse	0	0.202	498.117	1	52	Target	Neutral	True
499.117	0.3	Control	0.6415000000000001	0.001	Yes	2.634	-0.001	2.0	GoodResponse	0	0.202	n/a	1	52	ButtonPress	Neutral	True
499.181	0.44	Control	0.6415000000000001	n/a	Yes	2.634	n/a	n/a	GoodResponse	0	n/a	n/a	1	52	Blank	Neutral	True
499.615	1.45	Control	0.6415000000000001	n/a	Yes	2.634	n/a	5.0	GoodResponse	0	0.022	498.637	1	52	Feedback	Neutral	True
501.064	2.634	Control	0.6415000000000001	n/a	Yes	2.634	n/a	n/a	GoodResponse	0	0.0	n/a	1	52	ISIslide	Neutral	True
503.713	0.25	Win2	0.6481	0.0	Yes	2.937	0.013	n/a	GoodResponse	1	n/a	n/a	2	53	Cue	Win	True
503.963	4.05	Win2	0.6481	0.0	Yes	2.937	0.0	n/a	GoodResponse	1	n/a	n/a	2	53	Fixation	Win	True
508.012	0.27	Win2	0.6481	0.001	Yes	2.937	-0.001	2.0	GoodResponse	1	0.17	507.182	2	53	Target	Win	True
508.182	0.3	Win2	0.6481	0.001	Yes	2.937	-0.001	2.0	GoodResponse	1	0.17	n/a	2	53	ButtonPress	Win	True
508.295	0.43	Win2	0.6481	n/a	Yes	2.937	n/a	n/a	GoodResponse	1	n/a	n/a	2	53	Blank	Win	True
508.711	1.45	Win2	0.6481	n/a	Yes	2.937	n/a	5.0	GoodResponse	1	0.047	507.758	2	53	Feedback	Win	True
510.161	2.937	Win2	0.6481	n/a	Yes	2.937	n/a	n/a	GoodResponse	1	0.0	n/a	2	53	ISIslide	Win	True
513.127	0.25	Win2	0.6545000000000001	0.0	Yes	2.723	0.027	n/a	GoodResponse	1	n/a	n/a	3	54	Cue	Win	True
513.377	3.95	Win2	0.6545000000000001	0.0	Yes	2.723	0.0	n/a	GoodResponse	1	n/a	n/a	3	54	Fixation	Win	True
517.325	0.28	Win2	0.6545000000000001	0.002	Yes	2.723	-0.002	2.0	GoodResponse	1	0.176	516.501	3	54	Target	Win	True
517.501	0.3	Win2	0.6545000000000001	0.002	Yes	2.723	-0.002	2.0	GoodResponse	1	0.176	n/a	3	54	ButtonPress	Win	True
517.608	0.42	Win2	0.6545000000000001	n/a	Yes	2.723	n/a	n/a	GoodResponse	1	n/a	n/a	3	54	Blank	Win	True
518.025	1.45	Win2	0.6545000000000001	n/a	Yes	2.723	n/a	5.0	GoodResponse	1	0.004	517.029	3	54	Feedback	Win	True
519.474	2.723	Win2	0.6545000000000001	n/a	Yes	2.723	n/a	n/a	GoodResponse	1	0.0	n/a	3	54	ISIslide	Win	True
522.224	0.25	Control	0.6607	0.0	Yes	3.026	0.024	n/a	GoodResponse	0	n/a	n/a	3	55	Cue	Neutral	True
522.473	3.95	Control	0.6607	0.001	Yes	3.026	-0.001	n/a	GoodResponse	0	n/a	n/a	3	55	Fixation	Neutral	True
526.422	0.29	Control	0.6607	0.002	Yes	3.026	-0.002	2.0	GoodResponse	0	0.206	525.628	3	55	Target	Neutral	True
526.628	0.3	Control	0.6607	0.002	Yes	3.026	-0.002	2.0	GoodResponse	0	0.206	n/a	3	55	ButtonPress	Neutral	True
526.722	0.41	Control	0.6607	n/a	Yes	3.026	n/a	n/a	GoodResponse	0	n/a	n/a	3	55	Blank	Neutral	True
527.122	1.45	Control	0.6607	n/a	Yes	3.026	n/a	5.0	GoodResponse	0	0.027	526.149	3	55	Feedback	Neutral	True
528.571	3.026	Control	0.6607	n/a	Yes	3.026	n/a	n/a	GoodResponse	0	0.0	n/a	3	55	ISIslide	Neutral	True
531.62	0.25	Control	0.6667000000000001	0.0	Yes	2.83	0.02	n/a	GoodResponse	0	n/a	n/a	3	56	Cue	Neutral	True
531.87	3.95	Control	0.6667000000000001	0.0	Yes	2.83	0.0	n/a	GoodResponse	0	n/a	n/a	3	56	Fixation	Neutral	True
535.819	0.29	Control	0.6667000000000001	0.001	Yes	2.83	-0.001	2.0	GoodResponse	0	0.262	535.081	3	56	Target	Neutral	True
536.081	0.3	Control	0.6667000000000001	0.001	Yes	2.83	-0.001	2.0	GoodResponse	0	0.262	n/a	3	56	ButtonPress	Neutral	True
536.119	0.41	Control	0.6667000000000001	n/a	Yes	2.83	n/a	n/a	GoodResponse	0	n/a	n/a	3	56	Blank	Neutral	True
536.519	1.45	Control	0.6667000000000001	n/a	Yes	2.83	n/a	5.0	GoodResponse	0	0.044	535.563	3	56	Feedback	Neutral	True
537.968	2.83	Control	0.6667000000000001	n/a	Yes	2.83	n/a	n/a	GoodResponse	0	0.0	n/a	3	56	ISIslide	Neutral	True
540.817	0.25	Control	0.6724	0.0	Yes	3.483	0.017	n/a	GoodResponse	0	n/a	n/a	3	57	Cue	Neutral	False
541.067	4.0	Control	0.6724	0.0	Yes	3.483	0.0	2.0	GoodResponse	0	3.974	544.041	3	57	Fixation	Neutral	False
545.041	0.3	Control	0.6724	0.0	Yes	3.483	0.0	2.0	GoodResponse	0	3.974	n/a	3	57	ButtonPress	Neutral	False
545.066	0.28	Control	0.6724	0.001	Yes	3.483	-0.001	2.0	GoodResponse	0	0.203	544.269	3	57	Target	Neutral	False
545.269	0.3	Control	0.6724	0.001	Yes	3.483	-0.001	2.0	GoodResponse	0	0.203	n/a	3	57	ButtonPress	Neutral	False
545.349	0.42	Control	0.6724	n/a	Yes	3.483	n/a	n/a	GoodResponse	0	n/a	n/a	3	57	Blank	Neutral	False
545.765	1.45	Control	0.6724	n/a	Yes	3.483	n/a	5.0	GoodResponse	0	0.018	544.783	3	57	Feedback	Neutral	False
547.215	3.483	Control	0.6724	n/a	Yes	3.483	n/a	n/a	GoodResponse	0	0.0	n/a	3	57	ISIslide	Neutral	False
550.714	0.25	Win2	0.6779999999999999	0.0	Yes	2.736	0.014	n/a	GoodResponse	1	n/a	n/a	4	58	Cue	Win	True
550.964	4.05	Win2	0.6779999999999999	0.0	Yes	2.736	0.0	n/a	GoodResponse	1	n/a	n/a	4	58	Fixation	Win	True
555.012	0.27	Win2	0.6779999999999999	0.002	Yes	2.736	-0.002	2.0	GoodResponse	1	0.177	554.189	4	58	Target	Win	True
555.189	0.3	Win2	0.6779999999999999	0.002	Yes	2.736	-0.002	2.0	GoodResponse	1	0.177	n/a	4	58	ButtonPress	Win	True
555.296	0.43	Win2	0.6779999999999999	n/a	Yes	2.736	n/a	n/a	GoodResponse	1	n/a	n/a	4	58	Blank	Win	True
555.712	1.45	Win2	0.6779999999999999	n/a	Yes	2.736	n/a	5.0	GoodResponse	1	0.022	554.734	4	58	Feedback	Win	True
557.162	2.736	Win2	0.6779999999999999	n/a	Yes	2.736	n/a	n/a	GoodResponse	1	0.0	n/a	4	58	ISIslide	Win	True
559.927	0.25	Lose2	0.6833	0.0	Yes	2.673	0.027	n/a	GoodResponse	0	n/a	n/a	4	59	Cue	AvoidedLoss	True
560.177	4.0	Lose2	0.6833	0.0	Yes	2.673	0.0	n/a	GoodResponse	0	n/a	n/a	4	59	Fixation	AvoidedLoss	True
564.176	0.26	Lose2	0.6833	0.001	Yes	2.673	-0.001	2.0	GoodResponse	0	0.19	563.366	4	59	Target	AvoidedLoss	True
564.366	0.3	Lose2	0.6833	0.001	Yes	2.673	-0.001	2.0	GoodResponse	0	0.19	n/a	4	59	ButtonPress	AvoidedLoss	True
564.442	0.44	Lose2	0.6833	n/a	Yes	2.673	n/a	n/a	GoodResponse	0	n/a	n/a	4	59	Blank	AvoidedLoss	True
564.876	1.45	Lose2	0.6833	n/a	Yes	2.673	n/a	5.0	GoodResponse	0	0.029	563.905	4	59	Feedback	AvoidedLoss	True
566.325	2.673	Lose2	0.6833	n/a	Yes	2.673	n/a	n/a	GoodResponse	0	0.0	n/a	4	59	ISIslide	AvoidedLoss	True
569.024	0.25	Control	0.6720999999999999	0.0	No	2.676	0.024	n/a	NoResponse	0	n/a	n/a	4	60	Cue	Neutral	True
569.274	4.0	Control	0.6720999999999999	0.0	No	2.676	0.0	n/a	NoResponse	0	n/a	n/a	4	60	Fixation	Neutral	True
573.273	0.25	Control	0.6720999999999999	0.001	No	2.676	-0.001	2.0	NoResponse	0	0.264	572.537	4	60	Target	Neutral	True
573.523	0.45	Control	0.6720999999999999	n/a	No	2.676	n/a	n/a	NoResponse	0	n/a	n/a	4	60	Blank	Neutral	True
573.537	0.3	Control	0.6720999999999999	0.001	No	2.676	-0.001	2.0	NoResponse	0	0.264	n/a	4	60	ButtonPress	Neutral	True
573.972	1.45	Control	0.6720999999999999	n/a	No	2.676	n/a	5.0	NoResponse	0	0.007	572.979	4	60	Feedback	Neutral	True
575.422	2.676	Control	0.6720999999999999	n/a	No	2.676	n/a	n/a	NoResponse	0	0.0	n/a	4	60	ISIslide	Neutral	True
578.121	0.25	Lose2	0.6774	0.0	Yes	2.979	0.021	n/a	GoodResponse	0	n/a	n/a	4	61	Cue	AvoidedLoss	True
578.371	4.0	Lose2	0.6774	0.0	Yes	2.979	0.0	n/a	GoodResponse	0	n/a	n/a	4	61	Fixation	AvoidedLoss	True
582.37	0.24	Lose2	0.6774	0.001	Yes	2.979	-0.001	2.0	GoodResponse	0	0.183	581.553	4	61	Target	AvoidedLoss	True
582.553	0.3	Lose2	0.6774	0.001	Yes	2.979	-0.001	2.0	GoodResponse	0	0.183	n/a	4	61	ButtonPress	AvoidedLoss	True
582.619	0.46	Lose2	0.6774	n/a	Yes	2.979	n/a	n/a	GoodResponse	0	n/a	n/a	4	61	Blank	AvoidedLoss	True
583.069	1.45	Lose2	0.6774	n/a	Yes	2.979	n/a	5.0	GoodResponse	0	0.031	582.1	4	61	Feedback	AvoidedLoss	True
584.519	2.979	Lose2	0.6774	n/a	Yes	2.979	n/a	n/a	GoodResponse	0	0.0	n/a	4	61	ISIslide	AvoidedLoss	True
587.518	0.25	Lose2	0.6825	0.0	Yes	2.882	0.018	n/a	GoodResponse	0	n/a	n/a	4	62	Cue	AvoidedLoss	True
587.768	3.9	Lose2	0.6825	0.0	Yes	2.882	0.0	n/a	GoodResponse	0	n/a	n/a	4	62	Fixation	AvoidedLoss	True
591.666	0.23	Lose2	0.6825	0.002	Yes	2.882	-0.002	2.0	GoodResponse	0	0.202	590.868	4	62	Target	AvoidedLoss	True
591.868	0.3	Lose2	0.6825	0.002	Yes	2.882	-0.002	2.0	GoodResponse	0	0.202	n/a	4	62	ButtonPress	AvoidedLoss	True
591.9	0.47	Lose2	0.6825	n/a	Yes	2.882	n/a	n/a	GoodResponse	0	n/a	n/a	4	62	Blank	AvoidedLoss	True
592.366	1.45	Lose2	0.6825	n/a	Yes	2.882	n/a	5.0	GoodResponse	0	0.005	591.371	4	62	Feedback	AvoidedLoss	True
593.816	2.882	Lose2	0.6825	n/a	Yes	2.882	n/a	n/a	GoodResponse	0	0.0	n/a	4	62	ISIslide	AvoidedLoss	True
596.715	0.25	Lose2	0.6875	0.0	Yes	2.635	0.015	n/a	GoodResponse	0	n/a	n/a	4	63	Cue	AvoidedLoss	True
596.965	4.05	Lose2	0.6875	0.0	Yes	2.635	0.0	n/a	GoodResponse	0	n/a	n/a	4	63	Fixation	AvoidedLoss	True
601.013	0.22	Lose2	0.6875	0.002	Yes	2.635	-0.002	2.0	GoodResponse	0	0.145	600.158	4	63	Target	AvoidedLoss	True
601.158	0.3	Lose2	0.6875	0.002	Yes	2.635	-0.002	2.0	GoodResponse	0	0.145	n/a	4	63	ButtonPress	AvoidedLoss	True
601.246	0.48	Lose2	0.6875	n/a	Yes	2.635	n/a	n/a	GoodResponse	0	n/a	n/a	4	63	Blank	AvoidedLoss	True
601.713	1.45	Lose2	0.6875	n/a	Yes	2.635	n/a	5.0	GoodResponse	0	0.021	600.734	4	63	Feedback	AvoidedLoss	True
603.162	2.635	Lose2	0.6875	n/a	Yes	2.635	n/a	n/a	GoodResponse	0	0.0	n/a	4	63	ISIslide	AvoidedLoss	True
605.828	0.25	Win2	0.6923	0.0	Yes	3.122	0.028	n/a	GoodResponse	1	n/a	n/a	5	64	Cue	Win	True
606.078	4.15	Win2	0.6923	0.0	Yes	3.122	0.0	n/a	GoodResponse	1	n/a	n/a	5	64	Fixation	Win	True
610.227	0.21	Win2	0.6923	0.001	Yes	3.122	-0.001	2.0	GoodResponse	1	0.173	609.4	5	64	Target	Win	True
610.4	0.3	Win2	0.6923	0.001	Yes	3.122	-0.001	2.0	GoodResponse	1	0.173	n/a	5	64	ButtonPress	Win	True
610.443	0.49	Win2	0.6923	n/a	Yes	3.122	n/a	n/a	GoodResponse	1	n/a	n/a	5	64	Blank	Win	True
610.926	1.45	Win2	0.6923	n/a	Yes	3.122	n/a	5.0	GoodResponse	1	0.028	609.954	5	64	Feedback	Win	True
612.376	3.122	Win2	0.6923	n/a	Yes	3.122	n/a	n/a	GoodResponse	1	0.0	n/a	5	64	ISIslide	Win	True
615.525	0.25	Control	0.6970000000000001	0.0	Yes	2.775	0.025	n/a	GoodResponse	0	n/a	n/a	5	65	Cue	Neutral	True
615.775	4.0	Control	0.6970000000000001	0.0	Yes	2.775	0.0	n/a	GoodResponse	0	n/a	n/a	5	65	Fixation	Neutral	True
619.773	0.2	Control	0.6970000000000001	0.002	Yes	2.775	-0.002	2.0	GoodResponse	0	0.172	618.945	5	65	Target	Neutral	True
619.945	0.3	Control	0.6970000000000001	0.002	Yes	2.775	-0.002	2.0	GoodResponse	0	0.172	n/a	5	65	ButtonPress	Neutral	True
619.973	0.5	Control	0.6970000000000001	n/a	Yes	2.775	n/a	n/a	GoodResponse	0	n/a	n/a	5	65	Blank	Neutral	True
620.473	1.45	Control	0.6970000000000001	n/a	Yes	2.775	n/a	5.0	GoodResponse	0	0.042	619.515	5	65	Feedback	Neutral	True
621.923	2.775	Control	0.6970000000000001	n/a	Yes	2.775	n/a	n/a	GoodResponse	0	0.0	n/a	5	65	ISIslide	Neutral	True
624.722	0.25	Win2	0.7015	0.0	Yes	2.778	0.022	n/a	GoodResponse	1	n/a	n/a	6	66	Cue	Win	True
624.972	3.9	Win2	0.7015	0.0	Yes	2.778	0.0	n/a	GoodResponse	1	n/a	n/a	6	66	Fixation	Win	True
628.87	0.19	Win2	0.7015	0.002	Yes	2.778	-0.002	2.0	GoodResponse	1	0.182	628.052	6	66	Target	Win	True
629.052	0.3	Win2	0.7015	0.002	Yes	2.778	-0.002	2.0	GoodResponse	1	0.182	n/a	6	66	ButtonPress	Win	True
629.07	0.51	Win2	0.7015	n/a	Yes	2.778	n/a	n/a	GoodResponse	1	n/a	n/a	6	66	Blank	Win	True
629.57	1.45	Win2	0.7015	n/a	Yes	2.778	n/a	5.0	GoodResponse	1	0.018	628.588	6	66	Feedback	Win	True
631.02	2.778	Win2	0.7015	n/a	Yes	2.778	n/a	n/a	GoodResponse	1	0.0	n/a	6	66	ISIslide	Win	True
633.819	0.25	Control	0.6912	0.0	No	2.731	0.019	n/a	NoResponse	0	n/a	n/a	6	67	Cue	Neutral	True
634.069	3.95	Control	0.6912	0.0	No	2.731	0.0	n/a	NoResponse	0	n/a	n/a	6	67	Fixation	Neutral	True
638.017	0.18	Control	0.6912	0.002	No	2.731	-0.002	2.0	NoResponse	0	0.185	637.202	6	67	Target	Neutral	True
638.2	0.52	Control	0.6912	n/a	No	2.731	n/a	n/a	NoResponse	0	n/a	n/a	6	67	Blank	Neutral	True
638.202	0.3	Control	0.6912	0.002	No	2.731	-0.002	2.0	NoResponse	0	0.185	n/a	6	67	ButtonPress	Neutral	True
638.717	1.45	Control	0.6912	n/a	No	2.731	n/a	5.0	NoResponse	0	0.042	637.759	6	67	Feedback	Neutral	True
640.166	2.731	Control	0.6912	n/a	No	2.731	n/a	n/a	NoResponse	0	0.0	n/a	6	67	ISIslide	Neutral	True
642.916	0.25	Win2	0.6812	0.0	No	3.084	0.016	n/a	LatePress	0	n/a	n/a	6	68	Cue	MissedWin	True
643.165	4.0	Win2	0.6812	0.001	No	3.084	-0.001	n/a	LatePress	0	n/a	n/a	6	68	Fixation	MissedWin	True
647.164	0.17	Win2	0.6812	0.002	No	3.084	-0.002	2.0	LatePress	0	0.177	646.341	6	68	Target	MissedWin	True
647.341	0.3	Win2	0.6812	0.002	No	3.084	-0.002	2.0	LatePress	0	0.177	n/a	6	68	ButtonPress	MissedWin	True
647.347	0.53	Win2	0.6812	n/a	No	3.084	n/a	n/a	LatePress	0	n/a	n/a	6	68	Blank	MissedWin	True
647.864	1.45	Win2	0.6812	n/a	No	3.084	n/a	5.0	LatePress	0	0.017	646.881	6	68	Feedback	MissedWin	True
649.313	3.084	Win2	0.6812	n/a	No	3.084	n/a	n/a	LatePress	0	0.0	n/a	6	68	ISIslide	MissedWin	True
652.412	0.25	Win2	0.6857	0.0	Yes	3.238	0.012	n/a	GoodResponse	1	n/a	n/a	7	69	Cue	Win	True
652.662	3.95	Win2	0.6857	0.0	Yes	3.238	0.0	n/a	GoodResponse	1	n/a	n/a	7	69	Fixation	Win	True
656.611	0.16	Win2	0.6857	0.001	Yes	3.238	-0.001	2.0	GoodResponse	1	0.141	655.752	7	69	Target	Win	True
656.752	0.3	Win2	0.6857	0.001	Yes	3.238	-0.001	2.0	GoodResponse	1	0.141	n/a	7	69	ButtonPress	Win	True
656.777	0.54	Win2	0.6857	n/a	Yes	3.238	n/a	n/a	GoodResponse	1	n/a	n/a	7	69	Blank	Win	True
657.311	1.45	Win2	0.6857	n/a	Yes	3.238	n/a	5.0	GoodResponse	1	0.032	656.343	7	69	Feedback	Win	True
658.76	3.238	Win2	0.6857	n/a	Yes	3.238	n/a	n/a	GoodResponse	1	0.0	n/a	7	69	ISIslide	Win	True
662.026	0.25	Lose2	0.6761	0.0	No	3.024	0.026	n/a	NoResponse	-1	n/a	n/a	6	70	Cue	Loss	True
662.276	4.05	Lose2	0.6761	0.0	No	3.024	0.0	n/a	NoResponse	-1	n/a	n/a	6	70	Fixation	Loss	True
666.324	0.15	Lose2	0.6761	0.002	No	3.024	-0.002	2.0	NoResponse	-1	0.182	665.506	6	70	Target	Loss	True
666.474	0.55	Lose2	0.6761	n/a	No	3.024	n/a	n/a	NoResponse	-1	n/a	n/a	6	70	Blank	Loss	True
666.506	0.3	Lose2	0.6761	0.002	No	3.024	-0.002	2.0	NoResponse	-1	0.182	n/a	6	70	ButtonPress	Loss	True
667.024	1.45	Lose2	0.6761	n/a	No	3.024	n/a	5.0	NoResponse	-1	0.027	666.051	6	70	Feedback	Loss	True
668.473	3.024	Lose2	0.6761	n/a	No	3.024	n/a	n/a	NoResponse	-1	0.0	n/a	6	70	ISIslide	Loss	True
671.522	0.25	Win2	0.6667000000000001	0.0	No	2.728	0.022	n/a	NoResponse	0	n/a	n/a	6	71	Cue	MissedWin	True
671.772	4.05	Win2	0.6667000000000001	0.0	No	2.728	0.0	n/a	NoResponse	0	n/a	n/a	6	71	Fixation	MissedWin	True
675.821	0.15	Win2	0.6667000000000001	0.001	No	2.728	-0.001	2.0	NoResponse	0	0.189	675.01	6	71	Target	MissedWin	True
675.971	0.55	Win2	0.6667000000000001	n/a	No	2.728	n/a	n/a	NoResponse	0	n/a	n/a	6	71	Blank	MissedWin	True
676.01	0.3	Win2	0.6667000000000001	0.001	No	2.728	-0.001	2.0	NoResponse	0	0.189	n/a	6	71	ButtonPress	MissedWin	True
676.521	1.45	Win2	0.6667000000000001	n/a	No	2.728	n/a	5.0	NoResponse	0	0.042	675.563	6	71	Feedback	MissedWin	True
677.97	2.728	Win2	0.6667000000000001	n/a	No	2.728	n/a	n/a	NoResponse	0	0.0	n/a	6	71	ISIslide	MissedWin	True
680.719	0.25	Win2	0.6575	0.0	No	2.781	0.019	n/a	NoResponse	0	n/a	n/a	6	72	Cue	MissedWin	True
680.969	4.1	Win2	0.6575	0.0	No	2.781	0.0	n/a	NoResponse	0	n/a	n/a	6	72	Fixation	MissedWin	True
685.068	0.15	Win2	0.6575	0.001	No	2.781	-0.001	2.0	NoResponse	0	0.177	684.245	6	72	Target	MissedWin	True
685.218	0.55	Win2	0.6575	n/a	No	2.781	n/a	n/a	NoResponse	0	n/a	n/a	6	72	Blank	MissedWin	True
685.245	0.3	Win2	0.6575	0.001	No	2.781	-0.001	2.0	NoResponse	0	0.177	n/a	6	72	ButtonPress	MissedWin	True
685.768	1.45	Win2	0.6575	n/a	No	2.781	n/a	5.0	NoResponse	0	0.015	684.783	6	72	Feedback	MissedWin	True
687.217	2.781	Win2	0.6575	n/a	No	2.781	n/a	n/a	NoResponse	0	0.0	n/a	6	72	ISIslide	MissedWin	True
690.016	0.25	Win2	0.6486	0.0	No	2.684	0.016	n/a	NoResponse	0	n/a	n/a	6	73	Cue	MissedWin	True
690.266	4.0	Win2	0.6486	0.0	No	2.684	0.0	n/a	NoResponse	0	n/a	n/a	6	73	Fixation	MissedWin	True
694.265	0.15	Win2	0.6486	0.001	No	2.684	-0.001	2.0	NoResponse	0	0.156	693.421	6	73	Target	MissedWin	True
694.415	0.55	Win2	0.6486	n/a	No	2.684	n/a	n/a	NoResponse	0	n/a	n/a	6	73	Blank	MissedWin	True
694.421	0.3	Win2	0.6486	0.001	No	2.684	-0.001	2.0	NoResponse	0	0.156	n/a	6	73	ButtonPress	MissedWin	True
694.964	1.45	Win2	0.6486	n/a	No	2.684	n/a	5.0	NoResponse	0	0.038	694.002	6	73	Feedback	MissedWin	True
696.414	2.684	Win2	0.6486	n/a	No	2.684	n/a	n/a	NoResponse	0	0.0	n/a	6	73	ISIslide	MissedWin	True
699.113	0.25	Lose2	0.6533	0.0	Yes	2.637	0.013	n/a	GoodResponse	0	n/a	n/a	6	74	Cue	AvoidedLoss	False
699.363	4.05	Lose2	0.6533	0.0	Yes	2.637	0.0	2.0	GoodResponse	0	3.658	702.021	6	74	Fixation	AvoidedLoss	False
703.021	0.3	Lose2	0.6533	0.0	Yes	2.637	0.0	2.0	GoodResponse	0	3.658	n/a	6	74	ButtonPress	AvoidedLoss	False
703.411	0.16	Lose2	0.6533	0.002	Yes	2.637	-0.002	2.0	GoodResponse	0	0.136	702.547	6	74	Target	AvoidedLoss	False
703.547	0.3	Lose2	0.6533	0.002	Yes	2.637	-0.002	2.0	GoodResponse	0	0.136	n/a	6	74	ButtonPress	AvoidedLoss	False
703.578	0.54	Lose2	0.6533	n/a	Yes	2.637	n/a	n/a	GoodResponse	0	n/a	n/a	6	74	Blank	AvoidedLoss	False
704.111	1.45	Lose2	0.6533	n/a	Yes	2.637	n/a	5.0	GoodResponse	0	0.014	703.125	6	74	Feedback	AvoidedLoss	False
705.561	2.637	Lose2	0.6533	n/a	Yes	2.637	n/a	n/a	GoodResponse	0	0.0	n/a	6	74	ISIslide	AvoidedLoss	False
708.226	0.25	Lose2	0.6446999999999999	0.001	No	2.924	0.026	n/a	NoResponse	-1	n/a	n/a	5	75	Cue	Loss	False
708.476	3.95	Lose2	0.6446999999999999	0.0	No	2.924	0.0	2.0	NoResponse	-1	3.118	710.594	5	75	Fixation	Loss	False
711.594	0.3	Lose2	0.6446999999999999	0.0	No	2.924	0.0	2.0	NoResponse	-1	3.118	n/a	5	75	ButtonPress	Loss	False
712.425	0.17	Lose2	0.6446999999999999	0.001	No	2.924	-0.001	2.0	NoResponse	-1	0.214	711.639	5	75	Target	Loss	False
712.592	0.53	Lose2	0.6446999999999999	n/a	No	2.924	n/a	n/a	NoResponse	-1	n/a	n/a	5	75	Blank	Loss	False
712.639	0.3	Lose2	0.6446999999999999	0.001	No	2.924	-0.001	2.0	NoResponse	-1	0.214	n/a	5	75	ButtonPress	Loss	False
713.125	1.45	Lose2	0.6446999999999999	n/a	No	2.924	n/a	5.0	NoResponse	-1	0.024	712.149	5	75	Feedback	Loss	False
714.574	2.924	Lose2	0.6446999999999999	n/a	No	2.924	n/a	n/a	NoResponse	-1	0.0	n/a	5	75	ISIslide	Loss	False
717.523	0.25	Control	0.6494	0.0	Yes	3.227	0.023	n/a	GoodResponse	0	n/a	n/a	5	76	Cue	Neutral	True
717.773	4.05	Control	0.6494	0.0	Yes	3.227	0.0	n/a	GoodResponse	0	n/a	n/a	5	76	Fixation	Neutral	True
721.822	0.18	Control	0.6494	0.001	Yes	3.227	-0.001	2.0	GoodResponse	0	0.17	720.992	5	76	Target	Neutral	True
721.992	0.3	Control	0.6494	0.001	Yes	3.227	-0.001	2.0	GoodResponse	0	0.17	n/a	5	76	ButtonPress	Neutral	True
722.005	0.52	Control	0.6494	n/a	Yes	3.227	n/a	n/a	GoodResponse	0	n/a	n/a	5	76	Blank	Neutral	True
722.522	1.45	Control	0.6494	n/a	Yes	3.227	n/a	5.0	GoodResponse	0	0.042	721.564	5	76	Feedback	Neutral	True
723.971	3.227	Control	0.6494	n/a	Yes	3.227	n/a	n/a	GoodResponse	0	0.0	n/a	5	76	ISIslide	Neutral	True
727.22	0.25	Lose2	0.6409999999999999	0.0	No	2.58	0.02	n/a	NoResponse	-1	n/a	n/a	4	77	Cue	Loss	True
727.47	3.95	Lose2	0.6409999999999999	0.0	No	2.58	0.0	n/a	NoResponse	-1	n/a	n/a	4	77	Fixation	Loss	True
731.419	0.19	Lose2	0.6409999999999999	0.001	No	2.58	-0.001	2.0	NoResponse	-1	0.232	730.651	4	77	Target	Loss	True
731.618	0.51	Lose2	0.6409999999999999	n/a	No	2.58	n/a	n/a	NoResponse	-1	n/a	n/a	4	77	Blank	Loss	True
731.651	0.3	Lose2	0.6409999999999999	0.001	No	2.58	-0.001	2.0	NoResponse	-1	0.232	n/a	4	77	ButtonPress	Loss	True
732.118	1.45	Lose2	0.6409999999999999	n/a	No	2.58	n/a	5.0	NoResponse	-1	0.007	731.125	4	77	Feedback	Loss	True
733.568	2.58	Lose2	0.6409999999999999	n/a	No	2.58	n/a	n/a	NoResponse	-1	0.0	n/a	4	77	ISIslide	Loss	True
