onset	duration	cue_type	current_mean_accuracy	duration_error	is_hit	isi_adjusted	onset_delay	response	response_type	reward	rt	rt_time	total_reward	trial_number	trial_phase	trial_type	one_press
11.106	0.25	Control	1.0	0.0	Yes	2.944	0.006	n/a	GoodResponse	0	n/a	n/a	0	0	Cue	Neutral	True
11.357	3.85	Control	1.0	0.0	Yes	2.944	0.001	n/a	GoodResponse	0	n/a	n/a	0	0	Fixation	Neutral	True
15.218	0.4	Control	1.0	0.0	Yes	2.944	0.012	2.0	GoodResponse	0	0.282	14.5	0	0	Target	Neutral	True
15.5	0.3	Control	1.0	0.0	Yes	2.944	0.012	2.0	GoodResponse	0	0.282	n/a	0	0	ButtonPress	Neutral	True
15.603	0.3	Control	1.0	n/a	Yes	2.944	n/a	n/a	GoodResponse	0	n/a	n/a	0	0	Blank	Neutral	True
15.904	1.45	Control	1.0	n/a	Yes	2.944	n/a	5.0	GoodResponse	0	0.023	14.927	0	0	Feedback	Neutral	True
17.358	2.944	Control	1.0	n/a	Yes	2.944	n/a	n/a	GoodResponse	0	0.0	n/a	0	0	ISIslide	Neutral	True
20.317	0.25	Lose2	1.0	0.0	Yes	2.783	0.017	n/a	GoodResponse	0	n/a	n/a	0	1	Cue	AvoidedLoss	True
20.568	4.0	Lose2	1.0	0.0	Yes	2.783	0.001	n/a	GoodResponse	0	n/a	n/a	0	1	Fixation	AvoidedLoss	True
24.563	0.39	Lose2	1.0	0.004	Yes	2.783	-0.004	2.0	GoodResponse	0	0.28	23.843	0	1	Target	AvoidedLoss	True
24.843	0.3	Lose2	1.0	0.004	Yes	2.783	-0.004	2.0	GoodResponse	0	0.28	n/a	0	1	ButtonPress	AvoidedLoss	True
24.964	0.31	Lose2	1.0	n/a	Yes	2.783	n/a	n/a	GoodResponse	0	n/a	n/a	0	1	Blank	AvoidedLoss	True
25.265	1.45	Lose2	1.0	n/a	Yes	2.783	n/a	5.0	GoodResponse	0	0.028	24.293	0	1	Feedback	AvoidedLoss	True
26.719	2.783	Lose2	1.0	n/a	Yes	2.783	n/a	n/a	GoodResponse	0	0.0	n/a	0	1	ISIslide	AvoidedLoss	True
29.528	0.25	Control	1.0	0.0	Yes	2.572	0.028	n/a	GoodResponse	0	n/a	n/a	0	2	Cue	Neutral	True
29.778	4.1	Control	1.0	0.001	Yes	2.572	0.0	n/a	GoodResponse	0	n/a	n/a	0	2	Fixation	Neutral	True
33.874	0.38	Control	1.0	0.004	Yes	2.572	-0.004	2.0	GoodResponse	0	0.23	33.104	0	2	Target	Neutral	True
34.104	0.3	Control	1.0	0.004	Yes	2.572	-0.004	2.0	GoodResponse	0	0.23	n/a	0	2	ButtonPress	Neutral	True
34.259	0.32	Control	1.0	n/a	Yes	2.572	n/a	n/a	GoodResponse	0	n/a	n/a	0	2	Blank	Neutral	True
34.576	1.45	Control	1.0	n/a	Yes	2.572	n/a	5.0	GoodResponse	0	0.034	33.61	0	2	Feedback	Neutral	True
36.031	2.572	Control	1.0	n/a	Yes	2.572	n/a	n/a	GoodResponse	0	0.0	n/a	0	2	ISIslide	Neutral	True
38.622	0.25	Win2	1.0	0.0	Yes	2.828	0.022	n/a	GoodResponse	1	n/a	n/a	1	3	Cue	Win	True
38.872	3.95	Win2	1.0	0.0	Yes	2.828	0.0	n/a	GoodResponse	1	n/a	n/a	1	3	Fixation	Win	True
42.818	0.37	Win2	1.0	0.004	Yes	2.828	-0.004	2.0	GoodResponse	1	0.252	42.07	1	3	Target	Win	True
43.07	0.3	Win2	1.0	0.004	Yes	2.828	-0.004	2.0	GoodResponse	1	0.252	n/a	1	3	ButtonPress	Win	True
43.202	0.33	Win2	1.0	n/a	Yes	2.828	n/a	n/a	GoodResponse	1	n/a	n/a	1	3	Blank	Win	True
43.52	1.45	Win2	1.0	n/a	Yes	2.828	n/a	5.0	GoodResponse	1	0.016	42.536	1	3	Feedback	Win	True
44.974	2.828	Win2	1.0	n/a	Yes	2.828	n/a	n/a	GoodResponse	1	0.0	n/a	1	3	ISIslide	Win	True
47.816	0.25	Win2	1.0	0.0	Yes	3.284	0.016	n/a	GoodResponse	1	n/a	n/a	2	4	Cue	Win	True
48.067	4.0	Win2	1.0	0.0	Yes	3.284	0.001	n/a	GoodResponse	1	n/a	n/a	2	4	Fixation	Win	True
52.062	0.36	Win2	1.0	0.004	Yes	3.284	-0.004	2.0	GoodResponse	1	0.103	51.165	2	4	Target	Win	True
52.165	0.3	Win2	1.0	0.004	Yes	3.284	-0.004	2.0	GoodResponse	1	0.103	n/a	2	4	ButtonPress	Win	True
52.43	0.34	Win2	1.0	n/a	Yes	3.284	n/a	n/a	GoodResponse	1	n/a	n/a	2	4	Blank	Win	True
52.764	1.45	Win2	1.0	n/a	Yes	3.284	n/a	5.0	GoodResponse	1	0.04	51.804	2	4	Feedback	Win	True
54.218	3.284	Win2	1.0	n/a	Yes	3.284	n/a	n/a	GoodResponse	1	0.0	n/a	2	4	ISIslide	Win	True
57.528	0.25	Win2	1.0	0.0	Yes	2.772	0.028	n/a	GoodResponse	1	n/a	n/a	3	5	Cue	Win	True
57.779	4.0	Win2	1.0	0.0	Yes	2.772	0.001	n/a	GoodResponse	1	n/a	n/a	3	5	Fixation	Win	True
61.774	0.35	Win2	1.0	0.004	Yes	2.772	-0.004	2.0	GoodResponse	1	0.242	61.016	3	5	Target	Win	True
62.016	0.3	Win2	1.0	0.004	Yes	2.772	-0.004	2.0	GoodResponse	1	0.242	n/a	3	5	ButtonPress	Win	True
62.125	0.35	Win2	1.0	n/a	Yes	2.772	n/a	n/a	GoodResponse	1	n/a	n/a	3	5	Blank	Win	True
62.476	1.45	Win2	1.0	n/a	Yes	2.772	n/a	5.0	GoodResponse	1	0.036	61.512	3	5	Feedback	Win	True
63.931	2.772	Win2	1.0	n/a	Yes	2.772	n/a	n/a	GoodResponse	1	0.0	n/a	3	5	ISIslide	Win	True
66.723	0.25	Lose2	1.0	0.0	Yes	2.727	0.023	n/a	GoodResponse	0	n/a	n/a	3	6	Cue	AvoidedLoss	True
66.973	3.95	Lose2	1.0	0.0	Yes	2.727	0.0	n/a	GoodResponse	0	n/a	n/a	3	6	Fixation	AvoidedLoss	True
70.935	0.34	Lose2	1.0	0.0	Yes	2.727	0.012	2.0	GoodResponse	0	0.224	70.159	3	6	Target	AvoidedLoss	True
71.159	0.3	Lose2	1.0	0.0	Yes	2.727	0.012	2.0	GoodResponse	0	0.224	n/a	3	6	ButtonPress	AvoidedLoss	True
71.269	0.36	Lose2	1.0	n/a	Yes	2.727	n/a	n/a	GoodResponse	0	n/a	n/a	3	6	Blank	AvoidedLoss	True
71.621	1.45	Lose2	1.0	n/a	Yes	2.727	n/a	5.0	GoodResponse	0	0.013	70.634	3	6	Feedback	AvoidedLoss	True
73.075	2.727	Lose2	1.0	n/a	Yes	2.727	n/a	n/a	GoodResponse	0	0.0	n/a	3	6	ISIslide	AvoidedLoss	True
75.816	0.25	Lose2	1.0	0.001	Yes	4.034	0.016	n/a	GoodResponse	0	n/a	n/a	3	7	Cue	AvoidedLoss	True
76.067	4.05	Lose2	1.0	0.0	Yes	4.034	0.001	n/a	GoodResponse	0	n/a	n/a	3	7	Fixation	AvoidedLoss	True
80.113	0.33	Lose2	1.0	0.003	Yes	4.034	-0.003	2.0	GoodResponse	0	0.265	79.378	3	7	Target	AvoidedLoss	True
80.378	0.3	Lose2	1.0	0.003	Yes	4.034	-0.003	2.0	GoodResponse	0	0.265	n/a	3	7	ButtonPress	AvoidedLoss	True
80.447	0.37	Lose2	1.0	n/a	Yes	4.034	n/a	n/a	GoodResponse	0	n/a	n/a	3	7	Blank	AvoidedLoss	True
80.815	1.45	Lose2	1.0	n/a	Yes	4.034	n/a	5.0	GoodResponse	0	0.038	79.853	3	7	Feedback	AvoidedLoss	True
82.269	4.034	Lose2	1.0	n/a	Yes	4.034	n/a	n/a	GoodResponse	0	0.0	n/a	3	7	ISIslide	AvoidedLoss	True
86.331	0.25	Lose2	1.0	0.0	Yes	3.019	0.031	n/a	GoodResponse	0	n/a	n/a	3	8	Cue	AvoidedLoss	True
86.582	3.95	Lose2	1.0	0.0	Yes	3.019	0.001	n/a	GoodResponse	0	n/a	n/a	3	8	Fixation	AvoidedLoss	True
90.527	0.32	Lose2	1.0	0.004	Yes	3.019	-0.004	2.0	GoodResponse	0	0.234	89.761	3	8	Target	AvoidedLoss	True
90.761	0.3	Lose2	1.0	0.004	Yes	3.019	-0.004	2.0	GoodResponse	0	0.234	n/a	3	8	ButtonPress	AvoidedLoss	True
90.862	0.38	Lose2	1.0	n/a	Yes	3.019	n/a	n/a	GoodResponse	0	n/a	n/a	3	8	Blank	AvoidedLoss	True
91.229	1.45	Lose2	1.0	n/a	Yes	3.019	n/a	5.0	GoodResponse	0	0.015	90.244	3	8	Feedback	AvoidedLoss	True
92.684	3.019	Lose2	1.0	n/a	Yes	3.019	n/a	n/a	GoodResponse	0	0.0	n/a	3	8	ISIslide	AvoidedLoss	True
95.726	0.25	Lose2	1.0	0.0	Yes	3.124	0.026	n/a	GoodResponse	0	n/a	n/a	3	9	Cue	AvoidedLoss	True
95.977	3.95	Lose2	1.0	0.0	Yes	3.124	0.001	n/a	GoodResponse	0	n/a	n/a	3	9	Fixation	AvoidedLoss	True
99.922	0.31	Lose2	1.0	0.004	Yes	3.124	-0.004	2.0	GoodResponse	0	0.245	99.167	3	9	Target	AvoidedLoss	True
100.167	0.3	Lose2	1.0	0.004	Yes	3.124	-0.004	2.0	GoodResponse	0	0.245	n/a	3	9	ButtonPress	AvoidedLoss	True
100.24	0.39	Lose2	1.0	n/a	Yes	3.124	n/a	n/a	GoodResponse	0	n/a	n/a	3	9	Blank	AvoidedLoss	True
100.624	1.45	Lose2	1.0	n/a	Yes	3.124	n/a	5.0	GoodResponse	0	0.033	99.657	3	9	Feedback	AvoidedLoss	True
102.078	3.124	Lose2	1.0	n/a	Yes	3.124	n/a	n/a	GoodResponse	0	0.0	n/a	3	9	ISIslide	AvoidedLoss	True
105.221	0.25	Control	1.0	0.0	Yes	3.279	0.021	n/a	GoodResponse	0	n/a	n/a	3	10	Cue	Neutral	True
105.472	4.0	Control	1.0	0.0	Yes	3.279	0.001	n/a	GoodResponse	0	n/a	n/a	3	10	Fixation	Neutral	True
109.467	0.3	Control	1.0	0.004	Yes	3.279	-0.004	2.0	GoodResponse	0	0.25	108.717	3	10	Target	Neutral	True
109.717	0.3	Control	1.0	0.004	Yes	3.279	-0.004	2.0	GoodResponse	0	0.25	n/a	3	10	ButtonPress	Neutral	True
109.768	0.4	Control	1.0	n/a	Yes	3.279	n/a	n/a	GoodResponse	0	n/a	n/a	3	10	Blank	Neutral	True
110.169	1.45	Control	1.0	n/a	Yes	3.279	n/a	5.0	GoodResponse	0	0.001	109.17	3	10	Feedback	Neutral	True
111.624	3.279	Control	1.0	n/a	Yes	3.279	n/a	n/a	GoodResponse	0	0.0	n/a	3	10	ISIslide	Neutral	True
114.917	0.25	Lose2	1.0	0.0	Yes	2.733	0.017	n/a	GoodResponse	0	n/a	n/a	3	11	Cue	AvoidedLoss	True
115.168	4.05	Lose2	1.0	0.0	Yes	2.733	0.001	n/a	GoodResponse	0	n/a	n/a	3	11	Fixation	AvoidedLoss	True
119.213	0.29	Lose2	1.0	0.004	Yes	2.733	-0.004	2.0	GoodResponse	0	0.214	118.427	3	11	Target	AvoidedLoss	True
119.427	0.3	Lose2	1.0	0.004	Yes	2.733	-0.004	2.0	GoodResponse	0	0.214	n/a	3	11	ButtonPress	AvoidedLoss	True
119.514	0.41	Lose2	1.0	n/a	Yes	2.733	n/a	n/a	GoodResponse	0	n/a	n/a	3	11	Blank	AvoidedLoss	True
119.915	1.45	Lose2	1.0	n/a	Yes	2.733	n/a	5.0	GoodResponse	0	0.011	118.926	3	11	Feedback	AvoidedLoss	True
121.37	2.733	Lose2	1.0	n/a	Yes	2.733	n/a	n/a	GoodResponse	0	0.0	n/a	3	11	ISIslide	AvoidedLoss	True
124.128	0.25	Control	1.0	0.0	Yes	2.972	0.028	n/a	GoodResponse	0	n/a	n/a	3	12	Cue	Neutral	True
124.379	3.9	Control	1.0	0.0	Yes	2.972	0.001	n/a	GoodResponse	0	n/a	n/a	3	12	Fixation	Neutral	True
128.274	0.28	Control	1.0	0.004	Yes	2.972	-0.004	2.0	GoodResponse	0	0.234	127.508	3	12	Target	Neutral	True
128.508	0.3	Control	1.0	0.004	Yes	2.972	-0.004	2.0	GoodResponse	0	0.234	n/a	3	12	ButtonPress	Neutral	True
128.558	0.42	Control	1.0	n/a	Yes	2.972	n/a	n/a	GoodResponse	0	n/a	n/a	3	12	Blank	Neutral	True
128.976	1.45	Control	1.0	n/a	Yes	2.972	n/a	5.0	GoodResponse	0	0.023	127.999	3	12	Feedback	Neutral	True
130.43	2.972	Control	1.0	n/a	Yes	2.972	n/a	n/a	GoodResponse	0	0.0	n/a	3	12	ISIslide	Neutral	True
133.422	0.25	Control	1.0	0.0	Yes	2.778	0.022	n/a	GoodResponse	0	n/a	n/a	3	13	Cue	Neutral	True
133.673	4.0	Control	1.0	0.0	Yes	2.778	0.001	n/a	GoodResponse	0	n/a	n/a	3	13	Fixation	Neutral	True
137.668	0.27	Control	1.0	0.004	Yes	2.778	-0.004	2.0	GoodResponse	0	0.252	136.92	3	13	Target	Neutral	True
137.92	0.3	Control	1.0	0.004	Yes	2.778	-0.004	2.0	GoodResponse	0	0.252	n/a	3	13	ButtonPress	Neutral	True
137.953	0.43	Control	1.0	n/a	Yes	2.778	n/a	n/a	GoodResponse	0	n/a	n/a	3	13	Blank	Neutral	True
138.371	1.45	Control	1.0	n/a	Yes	2.778	n/a	5.0	GoodResponse	0	0.043	137.414	3	13	Feedback	Neutral	True
139.825	2.778	Control	1.0	n/a	Yes	2.778	n/a	n/a	GoodResponse	0	0.0	n/a	3	13	ISIslide	Neutral	True
142.617	0.25	Win2	1.0	0.0	Yes	2.683	0.017	n/a	GoodResponse	1	n/a	n/a	4	14	Cue	Win	True
142.867	4.1	Win2	1.0	0.0	Yes	2.683	0.0	n/a	GoodResponse	1	n/a	n/a	4	14	Fixation	Win	True
146.963	0.26	Win2	1.0	0.004	Yes	2.683	-0.004	2.0	GoodResponse	1	0.197	146.16	4	14	Target	Win	True
147.16	0.3	Win2	1.0	0.004	Yes	2.683	-0.004	2.0	GoodResponse	1	0.197	n/a	4	14	ButtonPress	Win	True
147.23	0.44	Win2	1.0	n/a	Yes	2.683	n/a	n/a	GoodResponse	1	n/a	n/a	4	14	Blank	Win	True
147.665	1.45	Win2	1.0	n/a	Yes	2.683	n/a	5.0	GoodResponse	1	0.017	146.682	4	14	Feedback	Win	True
149.119	2.683	Win2	1.0	n/a	Yes	2.683	n/a	n/a	GoodResponse	1	0.0	n/a	4	14	ISIslide	Win	True
151.828	0.25	Control	1.0	0.0	Yes	2.972	0.028	n/a	GoodResponse	0	n/a	n/a	4	15	Cue	Neutral	True
152.078	4.0	Control	1.0	0.0	Yes	2.972	0.0	n/a	GoodResponse	0	n/a	n/a	4	15	Fixation	Neutral	True
156.074	0.25	Control	1.0	0.004	Yes	2.972	-0.004	2.0	GoodResponse	0	0.217	155.291	4	15	Target	Neutral	True
156.291	0.3	Control	1.0	0.004	Yes	2.972	-0.004	2.0	GoodResponse	0	0.217	n/a	4	15	ButtonPress	Neutral	True
156.324	0.45	Control	1.0	n/a	Yes	2.972	n/a	n/a	GoodResponse	0	n/a	n/a	4	15	Blank	Neutral	True
156.776	1.45	Control	1.0	n/a	Yes	2.972	n/a	5.0	GoodResponse	0	0.028	155.804	4	15	Feedback	Neutral	True
158.23	2.972	Control	1.0	n/a	Yes	2.972	n/a	n/a	GoodResponse	0	0.0	n/a	4	15	ISIslide	Neutral	True
161.222	0.25	Win2	1.0	0.0	Yes	2.878	0.022	n/a	GoodResponse	1	n/a	n/a	5	16	Cue	Win	True
161.473	4.0	Win2	1.0	0.0	Yes	2.878	0.001	n/a	GoodResponse	1	n/a	n/a	5	16	Fixation	Win	True
165.468	0.24	Win2	1.0	0.004	Yes	2.878	-0.004	2.0	GoodResponse	1	0.238	164.706	5	16	Target	Win	True
165.706	0.3	Win2	1.0	0.004	Yes	2.878	-0.004	2.0	GoodResponse	1	0.238	n/a	5	16	ButtonPress	Win	True
165.719	0.46	Win2	1.0	n/a	Yes	2.878	n/a	n/a	GoodResponse	1	n/a	n/a	5	16	Blank	Win	True
166.171	1.45	Win2	1.0	n/a	Yes	2.878	n/a	5.0	GoodResponse	1	0.047	165.218	5	16	Feedback	Win	True
167.625	2.878	Win2	1.0	n/a	Yes	2.878	n/a	n/a	GoodResponse	1	0.0	n/a	5	16	ISIslide	Win	True
170.517	0.25	Lose2	0.9444	0.0	No	2.733	0.017	n/a	NoResponse	-1	n/a	n/a	4	17	Cue	Loss	False
170.768	3.95	Lose2	0.9444	0.0	No	2.733	0.001	n/a	NoResponse	-1	n/a	n/a	4	17	Fixation	Loss	False
174.713	0.23	Lose2	0.9444	0.004	No	2.733	-0.004	n/a	NoResponse	-1	n/a	n/a	4	17	Target	Loss	False
174.947	0.47	Lose2	0.9444	n/a	No	2.733	n/a	n/a	NoResponse	-1	n/a	n/a	4	17	Blank	Loss	False
175.415	1.45	Lose2	0.9444	n/a	No	2.733	n/a	5.0	NoResponse	-1	0.023	174.438	4	17	Feedback	Loss	False
176.869	2.733	Lose2	0.9444	n/a	No	2.733	n/a	n/a	NoResponse	-1	0.0	n/a	4	17	ISIslide	Loss	False
179.627	0.25	Lose2	0.8946999999999999	0.001	No	2.723	0.027	n/a	NoResponse	-1	n/a	n/a	3	18	Cue	Loss	True
179.878	4.05	Lose2	0.8946999999999999	0.0	No	2.723	0.001	n/a	NoResponse	-1	n/a	n/a	3	18	Fixation	Loss	True
183.924	0.22	Lose2	0.8946999999999999	0.003	No	2.723	-0.003	2.0	NoResponse	-1	0.25	183.174	3	18	Target	Loss	True
184.158	0.48	Lose2	0.8946999999999999	n/a	No	2.723	n/a	n/a	NoResponse	-1	n/a	n/a	3	18	Blank	Loss	True
184.174	0.3	Lose2	0.8946999999999999	0.003	No	2.723	-0.003	2.0	NoResponse	-1	0.25	n/a	3	18	ButtonPress	Loss	True
184.626	1.45	Lose2	0.8946999999999999	n/a	No	2.723	n/a	5.0	NoResponse	-1	0.031	183.657	3	18	Feedback	Loss	True
186.08	2.723	Lose2	0.8946999999999999	n/a	No	2.723	n/a	n/a	NoResponse	-1	0.0	n/a	3	18	ISIslide	Loss	True
188.822	0.25	Control	0.85	0.0	No	2.928	0.022	n/a	NoResponse	0	n/a	n/a	3	19	Cue	Neutral	True
189.072	3.95	Control	0.85	0.001	No	2.928	0.0	n/a	NoResponse	0	n/a	n/a	3	19	Fixation	Neutral	True
193.018	0.21	Control	0.85	0.004	No	2.928	-0.004	2.0	NoResponse	0	0.254	192.272	3	19	Target	Neutral	True
193.235	0.49	Control	0.85	n/a	No	2.928	n/a	n/a	NoResponse	0	n/a	n/a	3	19	Blank	Neutral	True
193.272	0.3	Control	0.85	0.004	No	2.928	-0.004	2.0	NoResponse	0	0.254	n/a	3	19	ButtonPress	Neutral	True
193.72	1.45	Control	0.85	n/a	No	2.928	n/a	5.0	NoResponse	0	0.011	192.731	3	19	Feedback	Neutral	True
195.174	2.928	Control	0.85	n/a	No	2.928	n/a	n/a	NoResponse	0	0.0	n/a	3	19	ISIslide	Neutral	True
198.116	0.25	Control	0.8095	0.0	No	2.634	0.016	n/a	NoResponse	0	n/a	n/a	3	20	Cue	Neutral	True
198.367	4.05	Control	0.8095	0.0	No	2.634	0.001	n/a	NoResponse	0	n/a	n/a	3	20	Fixation	Neutral	True
202.412	0.2	Control	0.8095	0.004	No	2.634	-0.004	2.0	NoResponse	0	0.223	201.635	3	20	Target	Neutral	True
202.613	0.5	Control	0.8095	n/a	No	2.634	n/a	n/a	NoResponse	0	n/a	n/a	3	20	Blank	Neutral	True
202.635	0.3	Control	0.8095	0.004	No	2.634	-0.004	2.0	NoResponse	0	0.223	n/a	3	20	ButtonPress	Neutral	True
203.115	1.45	Control	0.8095	n/a	No	2.634	n/a	5.0	NoResponse	0	0.03	202.145	3	20	Feedback	Neutral	True
204.569	2.634	Control	0.8095	n/a	No	2.634	n/a	n/a	NoResponse	0	0.0	n/a	3	20	ISIslide	Neutral	True
207.227	0.25	Control	0.7726999999999999	0.0	No	2.773	0.027	n/a	NoResponse	0	n/a	n/a	3	21	Cue	Neutral	True
207.478	4.1	Control	0.7726999999999999	0.0	No	2.773	0.001	n/a	NoResponse	0	n/a	n/a	3	21	Fixation	Neutral	True
211.573	0.19	Control	0.7726999999999999	0.004	No	2.773	-0.004	2.0	NoResponse	0	0.209	210.782	3	21	Target	Neutral	True
211.774	0.51	Control	0.7726999999999999	n/a	No	2.773	n/a	n/a	NoResponse	0	n/a	n/a	3	21	Blank	Neutral	True
211.782	0.3	Control	0.7726999999999999	0.004	No	2.773	-0.004	2.0	NoResponse	0	0.209	n/a	3	21	ButtonPress	Neutral	True
212.275	1.45	Control	0.7726999999999999	n/a	No	2.773	n/a	5.0	NoResponse	0	0.041	211.316	3	21	Feedback	Neutral	True
213.73	2.773	Control	0.7726999999999999	n/a	No	2.773	n/a	n/a	NoResponse	0	0.0	n/a	3	21	ISIslide	Neutral	True
216.521	0.25	Control	0.7391	0.0	No	2.779	0.021	n/a	NoResponse	0	n/a	n/a	3	22	Cue	Neutral	True
216.772	4.0	Control	0.7391	0.0	No	2.779	0.001	n/a	NoResponse	0	n/a	n/a	3	22	Fixation	Neutral	True
220.767	0.18	Control	0.7391	0.004	No	2.779	-0.004	2.0	NoResponse	0	0.277	220.044	3	22	Target	Neutral	True
220.951	0.52	Control	0.7391	n/a	No	2.779	n/a	n/a	NoResponse	0	n/a	n/a	3	22	Blank	Neutral	True
221.044	0.3	Control	0.7391	0.004	No	2.779	-0.004	2.0	NoResponse	0	0.277	n/a	3	22	ButtonPress	Neutral	True
221.47	1.45	Control	0.7391	n/a	No	2.779	n/a	5.0	NoResponse	0	0.016	220.486	3	22	Feedback	Neutral	True
222.924	2.779	Control	0.7391	n/a	No	2.779	n/a	n/a	NoResponse	0	0.0	n/a	3	22	ISIslide	Neutral	True
225.716	0.25	Control	0.7082999999999999	0.0	No	2.784	0.016	n/a	NoResponse	0	n/a	n/a	3	23	Cue	Neutral	True
225.966	3.9	Control	0.7082999999999999	0.0	No	2.784	0.0	n/a	NoResponse	0	n/a	n/a	3	23	Fixation	Neutral	True
229.878	0.17	Control	0.7082999999999999	0.0	No	2.784	0.012	2.0	NoResponse	0	0.517	229.395	3	23	Target	Neutral	True
230.045	0.53	Control	0.7082999999999999	n/a	No	2.784	n/a	n/a	NoResponse	0	n/a	n/a	3	23	Blank	Neutral	True
230.395	0.3	Control	0.7082999999999999	0.0	No	2.784	0.012	2.0	NoResponse	0	0.517	n/a	3	23	ButtonPress	Neutral	True
230.563	1.45	Control	0.7082999999999999	n/a	No	2.784	n/a	5.0	NoResponse	0	0.045	229.608	3	23	Feedback	Neutral	True
232.018	2.784	Control	0.7082999999999999	n/a	No	2.784	n/a	n/a	NoResponse	0	0.0	n/a	3	23	ISIslide	Neutral	True
234.826	0.25	Win2	0.68	0.0	No	3.124	0.026	n/a	NoResponse	0	n/a	n/a	3	24	Cue	MissedWin	True
235.077	3.95	Win2	0.68	0.0	No	3.124	0.001	n/a	NoResponse	0	n/a	n/a	3	24	Fixation	MissedWin	True
239.022	0.16	Win2	0.68	0.004	No	3.124	-0.004	2.0	NoResponse	0	0.225	238.247	3	24	Target	MissedWin	True
239.189	0.54	Win2	0.68	n/a	No	3.124	n/a	n/a	NoResponse	0	n/a	n/a	3	24	Blank	MissedWin	True
239.247	0.3	Win2	0.68	0.004	No	3.124	-0.004	2.0	NoResponse	0	0.225	n/a	3	24	ButtonPress	MissedWin	True
239.724	1.45	Win2	0.68	n/a	No	3.124	n/a	5.0	NoResponse	0	0.007	238.731	3	24	Feedback	MissedWin	True
241.179	3.124	Win2	0.68	n/a	No	3.124	n/a	n/a	NoResponse	0	0.0	n/a	3	24	ISIslide	MissedWin	True
244.321	0.25	Win2	0.6537999999999999	0.0	No	3.079	0.021	n/a	NoResponse	0	n/a	n/a	3	25	Cue	MissedWin	True
244.572	4.0	Win2	0.6537999999999999	0.0	No	3.079	0.001	n/a	NoResponse	0	n/a	n/a	3	25	Fixation	MissedWin	True
248.567	0.15	Win2	0.6537999999999999	0.004	No	3.079	-0.004	2.0	NoResponse	0	0.208	247.775	3	25	Target	MissedWin	True
248.718	0.55	Win2	0.6537999999999999	n/a	No	3.079	n/a	n/a	NoResponse	0	n/a	n/a	3	25	Blank	MissedWin	True
248.775	0.3	Win2	0.6537999999999999	0.004	No	3.079	-0.004	2.0	NoResponse	0	0.208	n/a	3	25	ButtonPress	MissedWin	True
249.269	1.45	Win2	0.6537999999999999	n/a	No	3.079	n/a	5.0	NoResponse	0	0.022	248.291	3	25	Feedback	MissedWin	True
250.724	3.079	Win2	0.6537999999999999	n/a	No	3.079	n/a	n/a	NoResponse	0	0.0	n/a	3	25	ISIslide	MissedWin	True
253.816	0.25	Win2	0.6296	0.001	No	2.934	0.016	n/a	NoResponse	0	n/a	n/a	3	26	Cue	MissedWin	True
254.067	3.95	Win2	0.6296	0.0	No	2.934	0.001	n/a	NoResponse	0	n/a	n/a	3	26	Fixation	MissedWin	True
258.012	0.16	Win2	0.6296	0.004	No	2.934	-0.004	2.0	NoResponse	0	0.215	257.227	3	26	Target	MissedWin	True
258.18	0.54	Win2	0.6296	n/a	No	2.934	n/a	n/a	NoResponse	0	n/a	n/a	3	26	Blank	MissedWin	True
258.227	0.3	Win2	0.6296	0.004	No	2.934	-0.004	2.0	NoResponse	0	0.215	n/a	3	26	ButtonPress	MissedWin	True
258.714	1.45	Win2	0.6296	n/a	No	2.934	n/a	5.0	NoResponse	0	0.041	257.755	3	26	Feedback	MissedWin	True
260.169	2.934	Win2	0.6296	n/a	No	2.934	n/a	n/a	NoResponse	0	0.0	n/a	3	26	ISIslide	MissedWin	True
263.128	0.25	Lose2	0.6071	0.0	No	2.822	0.028	n/a	NoResponse	-1	n/a	n/a	2	27	Cue	Loss	True
263.378	4.05	Lose2	0.6071	0.001	No	2.822	0.0	n/a	NoResponse	-1	n/a	n/a	2	27	Fixation	Loss	True
267.424	0.17	Lose2	0.6071	0.004	No	2.822	-0.004	2.0	NoResponse	-1	0.219	266.643	2	27	Target	Loss	True
267.608	0.53	Lose2	0.6071	n/a	No	2.822	n/a	n/a	NoResponse	-1	n/a	n/a	2	27	Blank	Loss	True
267.643	0.3	Lose2	0.6071	0.004	No	2.822	-0.004	2.0	NoResponse	-1	0.219	n/a	2	27	ButtonPress	Loss	True
268.126	1.45	Lose2	0.6071	n/a	No	2.822	n/a	5.0	NoResponse	-1	0.043	267.169	2	27	Feedback	Loss	True
269.58	2.822	Lose2	0.6071	n/a	No	2.822	n/a	n/a	NoResponse	-1	0.0	n/a	2	27	ISIslide	Loss	True
272.422	0.25	Control	0.5861999999999999	0.0	No	2.828	0.022	n/a	NoResponse	0	n/a	n/a	2	28	Cue	Neutral	True
272.673	4.05	Control	0.5861999999999999	0.0	No	2.828	0.001	n/a	NoResponse	0	n/a	n/a	2	28	Fixation	Neutral	True
276.718	0.18	Control	0.5861999999999999	0.004	No	2.828	-0.004	2.0	NoResponse	0	0.21	275.928	2	28	Target	Neutral	True
276.902	0.52	Control	0.5861999999999999	n/a	No	2.828	n/a	n/a	NoResponse	0	n/a	n/a	2	28	Blank	Neutral	True
276.928	0.3	Control	0.5861999999999999	0.004	No	2.828	-0.004	2.0	NoResponse	0	0.21	n/a	2	28	ButtonPress	Neutral	True
277.421	1.45	Control	0.5861999999999999	n/a	No	2.828	n/a	5.0	NoResponse	0	0.017	276.438	2	28	Feedback	Neutral	True
278.875	2.828	Control	0.5861999999999999	n/a	No	2.828	n/a	n/a	NoResponse	0	0.0	n/a	2	28	ISIslide	Neutral	True
281.717	0.25	Lose2	0.5667	0.0	No	2.833	0.017	n/a	NoResponse	-1	n/a	n/a	1	29	Cue	Loss	False
281.967	3.95	Lose2	0.5667	0.001	No	2.833	0.0	2.0	NoResponse	-1	3.686	284.653	1	29	Fixation	Loss	False
285.653	0.3	Lose2	0.5667	0.001	No	2.833	0.0	2.0	NoResponse	-1	3.686	n/a	1	29	ButtonPress	Loss	False
285.913	0.19	Lose2	0.5667	0.004	No	2.833	-0.004	2.0	NoResponse	-1	0.277	285.19	1	29	Target	Loss	False
286.113	0.51	Lose2	0.5667	n/a	No	2.833	n/a	n/a	NoResponse	-1	n/a	n/a	1	29	Blank	Loss	False
286.19	0.3	Lose2	0.5667	0.004	No	2.833	-0.004	2.0	NoResponse	-1	0.277	n/a	1	29	ButtonPress	Loss	False
286.615	1.45	Lose2	0.5667	n/a	No	2.833	n/a	5.0	NoResponse	-1	0.041	285.656	1	29	Feedback	Loss	False
288.069	2.833	Lose2	0.5667	n/a	No	2.833	n/a	n/a	NoResponse	-1	0.0	n/a	1	29	ISIslide	Loss	False
290.928	0.25	Win2	0.5484	0.0	No	2.772	0.028	n/a	NoResponse	0	n/a	n/a	1	30	Cue	MissedWin	True
291.178	3.9	Win2	0.5484	0.0	No	2.772	0.0	n/a	NoResponse	0	n/a	n/a	1	30	Fixation	MissedWin	True
295.09	0.2	Win2	0.5484	0.0	No	2.772	0.012	2.0	NoResponse	0	0.214	294.304	1	30	Target	MissedWin	True
295.274	0.5	Win2	0.5484	n/a	No	2.772	n/a	n/a	NoResponse	0	n/a	n/a	1	30	Blank	MissedWin	True
295.304	0.3	Win2	0.5484	0.0	No	2.772	0.012	2.0	NoResponse	0	0.214	n/a	1	30	ButtonPress	MissedWin	True
295.776	1.45	Win2	0.5484	n/a	No	2.772	n/a	5.0	NoResponse	0	0.008	294.784	1	30	Feedback	MissedWin	True
297.23	2.772	Win2	0.5484	n/a	No	2.772	n/a	n/a	NoResponse	0	0.0	n/a	1	30	ISIslide	MissedWin	True
300.022	0.25	Lose2	0.5312	0.0	No	2.828	0.022	n/a	NoResponse	-1	n/a	n/a	0	31	Cue	Loss	True
300.272	4.05	Lose2	0.5312	0.0	No	2.828	0.0	n/a	NoResponse	-1	n/a	n/a	0	31	Fixation	Loss	True
304.318	0.21	Lose2	0.5312	0.004	No	2.828	-0.004	2.0	NoResponse	-1	0.226	303.544	0	31	Target	Loss	True
304.535	0.49	Lose2	0.5312	n/a	No	2.828	n/a	n/a	NoResponse	-1	n/a	n/a	0	31	Blank	Loss	True
304.544	0.3	Lose2	0.5312	0.004	No	2.828	-0.004	2.0	NoResponse	-1	0.226	n/a	0	31	ButtonPress	Loss	True
305.02	1.45	Lose2	0.5312	n/a	No	2.828	n/a	5.0	NoResponse	-1	0.027	304.047	0	31	Feedback	Loss	True
306.474	2.828	Lose2	0.5312	n/a	No	2.828	n/a	n/a	NoResponse	-1	0.0	n/a	0	31	ISIslide	Loss	True
309.316	0.25	Lose2	0.5455	0.0	Yes	2.634	0.016	n/a	GoodResponse	0	n/a	n/a	0	32	Cue	AvoidedLoss	True
309.567	4.15	Lose2	0.5455	0.0	Yes	2.634	0.001	n/a	GoodResponse	0	n/a	n/a	0	32	Fixation	AvoidedLoss	True
313.713	0.22	Lose2	0.5455	0.003	Yes	2.634	-0.003	2.0	GoodResponse	0	0.196	312.909	0	32	Target	AvoidedLoss	True
313.909	0.3	Lose2	0.5455	0.003	Yes	2.634	-0.003	2.0	GoodResponse	0	0.196	n/a	0	32	ButtonPress	AvoidedLoss	True
313.947	0.48	Lose2	0.5455	n/a	Yes	2.634	n/a	n/a	GoodResponse	0	n/a	n/a	0	32	Blank	AvoidedLoss	True
314.415	1.45	Lose2	0.5455	n/a	Yes	2.634	n/a	5.0	GoodResponse	0	0.047	313.462	0	32	Feedback	AvoidedLoss	True
315.869	2.634	Lose2	0.5455	n/a	Yes	2.634	n/a	n/a	GoodResponse	0	0.0	n/a	0	32	ISIslide	AvoidedLoss	True
318.527	0.25	Win2	0.5588000000000001	0.0	Yes	2.673	0.027	n/a	GoodResponse	1	n/a	n/a	1	33	Cue	Win	True
318.778	4.0	Win2	0.5588000000000001	0.0	Yes	2.673	0.001	n/a	GoodResponse	1	n/a	n/a	1	33	Fixation	Win	True
322.773	0.23	Win2	0.5588000000000001	0.004	Yes	2.673	-0.004	2.0	GoodResponse	1	0.201	321.974	1	33	Target	Win	True
322.974	0.3	Win2	0.5588000000000001	0.004	Yes	2.673	-0.004	2.0	GoodResponse	1	0.201	n/a	1	33	ButtonPress	Win	True
323.007	0.47	Win2	0.5588000000000001	n/a	Yes	2.673	n/a	n/a	GoodResponse	1	n/a	n/a	1	33	Blank	Win	True
323.475	1.45	Win2	0.5588000000000001	n/a	Yes	2.673	n/a	5.0	GoodResponse	1	0.011	322.486	1	33	Feedback	Win	True
324.93	2.673	Win2	0.5588000000000001	n/a	Yes	2.673	n/a	n/a	GoodResponse	1	0.0	n/a	1	33	ISIslide	Win	True
327.621	0.25	Lose2	0.5714	0.0	Yes	2.629	0.021	n/a	GoodResponse	0	n/a	n/a	1	34	Cue	AvoidedLoss	True
327.872	4.05	Lose2	0.5714	0.0	Yes	2.629	0.001	n/a	GoodResponse	0	n/a	n/a	1	34	Fixation	AvoidedLoss	True
331.917	0.24	Lose2	0.5714	0.004	Yes	2.629	-0.004	2.0	GoodResponse	0	0.237	331.154	1	34	Target	AvoidedLoss	True
332.154	0.3	Lose2	0.5714	0.004	Yes	2.629	-0.004	2.0	GoodResponse	0	0.237	n/a	1	34	ButtonPress	AvoidedLoss	True
332.168	0.46	Lose2	0.5714	n/a	Yes	2.629	n/a	n/a	GoodResponse	0	n/a	n/a	1	34	Blank	AvoidedLoss	True
332.619	1.45	Lose2	0.5714	n/a	Yes	2.629	n/a	5.0	GoodResponse	0	0.038	331.657	1	34	Feedback	AvoidedLoss	True
334.074	2.629	Lose2	0.5714	n/a	Yes	2.629	n/a	n/a	GoodResponse	0	0.0	n/a	1	34	ISIslide	AvoidedLoss	True
336.715	0.25	Lose2	0.5832999999999999	0.0	Yes	2.685	0.015	n/a	GoodResponse	0	n/a	n/a	1	35	Cue	AvoidedLoss	True
336.966	4.0	Lose2	0.5832999999999999	0.0	Yes	2.685	0.001	n/a	GoodResponse	0	n/a	n/a	1	35	Fixation	AvoidedLoss	True
340.961	0.25	Lose2	0.5832999999999999	0.004	Yes	2.685	-0.004	2.0	GoodResponse	0	0.208	340.169	1	35	Target	AvoidedLoss	True
341.169	0.3	Lose2	0.5832999999999999	0.004	Yes	2.685	-0.004	2.0	GoodResponse	0	0.208	n/a	1	35	ButtonPress	AvoidedLoss	True
341.212	0.45	Lose2	0.5832999999999999	n/a	Yes	2.685	n/a	n/a	GoodResponse	0	n/a	n/a	1	35	Blank	AvoidedLoss	True
341.663	1.45	Lose2	0.5832999999999999	n/a	Yes	2.685	n/a	5.0	GoodResponse	0	0.017	340.68	1	35	Feedback	AvoidedLoss	True
343.117	2.685	Lose2	0.5832999999999999	n/a	Yes	2.685	n/a	n/a	GoodResponse	0	0.0	n/a	1	35	ISIslide	AvoidedLoss	True
345.825	0.25	Control	0.5946	0.001	Yes	2.675	0.025	n/a	GoodResponse	0	n/a	n/a	1	36	Cue	Neutral	True
346.076	4.0	Control	0.5946	0.0	Yes	2.675	0.001	n/a	GoodResponse	0	n/a	n/a	1	36	Fixation	Neutral	True
350.072	0.26	Control	0.5946	0.003	Yes	2.675	-0.003	2.0	GoodResponse	0	0.257	349.329	1	36	Target	Neutral	True
350.329	0.3	Control	0.5946	0.003	Yes	2.675	-0.003	2.0	GoodResponse	0	0.257	n/a	1	36	ButtonPress	Neutral	True
350.339	0.44	Control	0.5946	n/a	Yes	2.675	n/a	n/a	GoodResponse	0	n/a	n/a	1	36	Blank	Neutral	True
350.774	1.45	Control	0.5946	n/a	Yes	2.675	n/a	5.0	GoodResponse	0	0.028	349.802	1	36	Feedback	Neutral	True
352.228	2.675	Control	0.5946	n/a	Yes	2.675	n/a	n/a	GoodResponse	0	0.0	n/a	1	36	ISIslide	Neutral	True
354.919	0.25	Win2	0.6053000000000001	0.0	Yes	2.881	0.019	n/a	GoodResponse	1	n/a	n/a	2	37	Cue	Win	True
355.17	4.0	Win2	0.6053000000000001	0.0	Yes	2.881	0.001	n/a	GoodResponse	1	n/a	n/a	2	37	Fixation	Win	True
359.165	0.27	Win2	0.6053000000000001	0.004	Yes	2.881	-0.004	2.0	GoodResponse	1	0.223	358.388	2	37	Target	Win	True
359.388	0.3	Win2	0.6053000000000001	0.004	Yes	2.881	-0.004	2.0	GoodResponse	1	0.223	n/a	2	37	ButtonPress	Win	True
359.45	0.43	Win2	0.6053000000000001	n/a	Yes	2.881	n/a	n/a	GoodResponse	1	n/a	n/a	2	37	Blank	Win	True
359.868	1.45	Win2	0.6053000000000001	n/a	Yes	2.881	n/a	5.0	GoodResponse	1	0.008	358.876	2	37	Feedback	Win	True
361.322	2.881	Win2	0.6053000000000001	n/a	Yes	2.881	n/a	n/a	GoodResponse	1	0.0	n/a	2	37	ISIslide	Win	True
364.214	0.25	Lose2	0.6154	0.0	Yes	2.836	0.014	n/a	GoodResponse	0	n/a	n/a	2	38	Cue	AvoidedLoss	True
364.465	3.95	Lose2	0.6154	0.0	Yes	2.836	0.001	n/a	GoodResponse	0	n/a	n/a	2	38	Fixation	AvoidedLoss	True
368.41	0.28	Lose2	0.6154	0.004	Yes	2.836	-0.004	2.0	GoodResponse	0	0.222	367.632	2	38	Target	AvoidedLoss	True
368.632	0.3	Lose2	0.6154	0.004	Yes	2.836	-0.004	2.0	GoodResponse	0	0.222	n/a	2	38	ButtonPress	AvoidedLoss	True
368.694	0.42	Lose2	0.6154	n/a	Yes	2.836	n/a	n/a	GoodResponse	0	n/a	n/a	2	38	Blank	AvoidedLoss	True
369.112	1.45	Lose2	0.6154	n/a	Yes	2.836	n/a	5.0	GoodResponse	0	0.032	368.144	2	38	Feedback	AvoidedLoss	True
370.566	2.836	Lose2	0.6154	n/a	Yes	2.836	n/a	n/a	GoodResponse	0	0.0	n/a	2	38	ISIslide	AvoidedLoss	True
373.425	0.25	Win2	0.625	0.0	Yes	2.975	0.025	n/a	GoodResponse	1	n/a	n/a	3	39	Cue	Win	True
373.676	4.1	Win2	0.625	0.0	Yes	2.975	0.001	n/a	GoodResponse	1	n/a	n/a	3	39	Fixation	Win	True
377.771	0.29	Win2	0.625	0.004	Yes	2.975	-0.004	2.0	GoodResponse	1	0.169	376.94	3	39	Target	Win	True
377.94	0.3	Win2	0.625	0.004	Yes	2.975	-0.004	2.0	GoodResponse	1	0.169	n/a	3	39	ButtonPress	Win	True
378.072	0.41	Win2	0.625	n/a	Yes	2.975	n/a	n/a	GoodResponse	1	n/a	n/a	3	39	Blank	Win	True
378.473	1.45	Win2	0.625	n/a	Yes	2.975	n/a	5.0	GoodResponse	1	0.037	377.51	3	39	Feedback	Win	True
379.928	2.975	Win2	0.625	n/a	Yes	2.975	n/a	n/a	GoodResponse	1	0.0	n/a	3	39	ISIslide	Win	True
382.92	0.25	Win2	0.6341	0.0	Yes	2.73	0.02	n/a	GoodResponse	1	n/a	n/a	4	40	Cue	Win	False
383.171	3.95	Win2	0.6341	0.0	Yes	2.73	0.001	2.0	GoodResponse	1	0.141	382.312	4	40	Fixation	Win	False
383.312	0.3	Win2	0.6341	0.0	Yes	2.73	0.001	2.0	GoodResponse	1	0.141	n/a	4	40	ButtonPress	Win	False
387.116	0.3	Win2	0.6341	0.004	Yes	2.73	-0.004	2.0	GoodResponse	1	0.235	386.351	4	40	Target	Win	False
387.351	0.3	Win2	0.6341	0.004	Yes	2.73	-0.004	2.0	GoodResponse	1	0.235	n/a	4	40	ButtonPress	Win	False
387.417	0.4	Win2	0.6341	n/a	Yes	2.73	n/a	n/a	GoodResponse	1	n/a	n/a	4	40	Blank	Win	False
387.818	1.45	Win2	0.6341	n/a	Yes	2.73	n/a	5.0	GoodResponse	1	0.009	386.827	4	40	Feedback	Win	False
389.272	2.73	Win2	0.6341	n/a	Yes	2.73	n/a	n/a	GoodResponse	1	0.0	n/a	4	40	ISIslide	Win	False
392.014	0.25	Win2	0.6429	0.0	Yes	2.786	0.014	n/a	GoodResponse	1	n/a	n/a	5	41	Cue	Win	True
392.265	3.9	Win2	0.6429	0.0	Yes	2.786	0.001	n/a	GoodResponse	1	n/a	n/a	5	41	Fixation	Win	True
396.16	0.31	Win2	0.6429	0.004	Yes	2.786	-0.004	2.0	GoodResponse	1	0.278	395.438	5	41	Target	Win	True
396.438	0.3	Win2	0.6429	0.004	Yes	2.786	-0.004	2.0	GoodResponse	1	0.278	n/a	5	41	ButtonPress	Win	True
396.477	0.39	Win2	0.6429	n/a	Yes	2.786	n/a	n/a	GoodResponse	1	n/a	n/a	5	41	Blank	Win	True
396.862	1.45	Win2	0.6429	n/a	Yes	2.786	n/a	5.0	GoodResponse	1	0.038	395.9	5	41	Feedback	Win	True
398.316	2.786	Win2	0.6429	n/a	Yes	2.786	n/a	n/a	GoodResponse	1	0.0	n/a	5	41	ISIslide	Win	True
401.125	0.25	Control	0.6279	0.0	No	2.925	0.025	n/a	NoResponse	0	n/a	n/a	5	42	Cue	Neutral	True
401.375	3.85	Control	0.6279	0.0	No	2.925	0.0	n/a	NoResponse	0	n/a	n/a	5	42	Fixation	Neutral	True
405.237	0.32	Control	0.6279	0.0	No	2.925	0.012	2.0	NoResponse	0	0.476	404.713	5	42	Target	Neutral	True
405.554	0.38	Control	0.6279	n/a	No	2.925	n/a	n/a	NoResponse	0	n/a	n/a	5	42	Blank	Neutral	True
405.713	0.3	Control	0.6279	0.0	No	2.925	0.012	2.0	NoResponse	0	0.476	n/a	5	42	ButtonPress	Neutral	True
405.922	1.45	Control	0.6279	n/a	No	2.925	n/a	5.0	NoResponse	0	0.002	404.924	5	42	Feedback	Neutral	True
407.377	2.925	Control	0.6279	n/a	No	2.925	n/a	n/a	NoResponse	0	0.0	n/a	5	42	ISIslide	Neutral	True
410.319	0.25	Win2	0.6364	0.0	Yes	3.181	0.019	n/a	GoodResponse	1	n/a	n/a	6	43	Cue	Win	True
410.569	4.0	Win2	0.6364	0.001	Yes	3.181	0.0	n/a	GoodResponse	1	n/a	n/a	6	43	Fixation	Win	True
414.565	0.33	Win2	0.6364	0.004	Yes	3.181	-0.004	2.0	GoodResponse	1	0.19	413.755	6	43	Target	Win	True
414.755	0.3	Win2	0.6364	0.004	Yes	3.181	-0.004	2.0	GoodResponse	1	0.19	n/a	6	43	ButtonPress	Win	True
414.899	0.37	Win2	0.6364	n/a	Yes	3.181	n/a	n/a	GoodResponse	1	n/a	n/a	6	43	Blank	Win	True
415.267	1.45	Win2	0.6364	n/a	Yes	3.181	n/a	5.0	GoodResponse	1	0.023	414.29	6	43	Feedback	Win	True
416.721	3.181	Win2	0.6364	n/a	Yes	3.181	n/a	n/a	GoodResponse	1	0.0	n/a	6	43	ISIslide	Win	True
419.914	0.25	Win2	0.6444	0.0	Yes	2.986	0.014	n/a	GoodResponse	1	n/a	n/a	7	44	Cue	Win	True
420.165	4.0	Win2	0.6444	0.0	Yes	2.986	0.001	n/a	GoodResponse	1	n/a	n/a	7	44	Fixation	Win	True
424.16	0.34	Win2	0.6444	0.004	Yes	2.986	-0.004	2.0	GoodResponse	1	0.212	423.372	7	44	Target	Win	True
424.372	0.3	Win2	0.6444	0.004	Yes	2.986	-0.004	2.0	GoodResponse	1	0.212	n/a	7	44	ButtonPress	Win	True
424.511	0.36	Win2	0.6444	n/a	Yes	2.986	n/a	n/a	GoodResponse	1	n/a	n/a	7	44	Blank	Win	True
424.862	1.45	Win2	0.6444	n/a	Yes	2.986	n/a	5.0	GoodResponse	1	0.038	423.9	7	44	Feedback	Win	True
426.317	2.986	Win2	0.6444	n/a	Yes	2.986	n/a	n/a	GoodResponse	1	0.0	n/a	7	44	ISIslide	Win	True
429.326	0.25	Control	0.6522	0.0	Yes	2.874	0.026	n/a	GoodResponse	0	n/a	n/a	7	45	Cue	Neutral	True
429.576	4.1	Control	0.6522	0.001	Yes	2.874	0.0	n/a	GoodResponse	0	n/a	n/a	7	45	Fixation	Neutral	True
433.672	0.35	Control	0.6522	0.004	Yes	2.874	-0.004	2.0	GoodResponse	0	0.196	432.868	7	45	Target	Neutral	True
433.868	0.3	Control	0.6522	0.004	Yes	2.874	-0.004	2.0	GoodResponse	0	0.196	n/a	7	45	ButtonPress	Neutral	True
434.023	0.35	Control	0.6522	n/a	Yes	2.874	n/a	n/a	GoodResponse	0	n/a	n/a	7	45	Blank	Neutral	True
434.374	1.45	Control	0.6522	n/a	Yes	2.874	n/a	5.0	GoodResponse	0	0.038	433.412	7	45	Feedback	Neutral	True
435.828	2.874	Control	0.6522	n/a	Yes	2.874	n/a	n/a	GoodResponse	0	0.0	n/a	7	45	ISIslide	Neutral	True
438.721	0.25	Lose2	0.6596	0.0	Yes	3.379	0.021	n/a	GoodResponse	0	n/a	n/a	7	46	Cue	AvoidedLoss	True
438.971	4.0	Lose2	0.6596	0.0	Yes	3.379	0.0	n/a	GoodResponse	0	n/a	n/a	7	46	Fixation	AvoidedLoss	True
442.967	0.36	Lose2	0.6596	0.004	Yes	3.379	-0.004	2.0	GoodResponse	0	0.229	442.196	7	46	Target	AvoidedLoss	True
443.196	0.3	Lose2	0.6596	0.004	Yes	3.379	-0.004	2.0	GoodResponse	0	0.229	n/a	7	46	ButtonPress	AvoidedLoss	True
443.334	0.34	Lose2	0.6596	n/a	Yes	3.379	n/a	n/a	GoodResponse	0	n/a	n/a	7	46	Blank	AvoidedLoss	True
443.669	1.45	Lose2	0.6596	n/a	Yes	3.379	n/a	5.0	GoodResponse	0	0.012	442.681	7	46	Feedback	AvoidedLoss	True
445.123	3.379	Lose2	0.6596	n/a	Yes	3.379	n/a	n/a	GoodResponse	0	0.0	n/a	7	46	ISIslide	AvoidedLoss	True
448.517	0.25	Lose2	0.6667000000000001	0.0	Yes	2.683	0.017	n/a	GoodResponse	0	n/a	n/a	7	47	Cue	AvoidedLoss	True
448.767	4.0	Lose2	0.6667000000000001	0.0	Yes	2.683	0.0	n/a	GoodResponse	0	n/a	n/a	7	47	Fixation	AvoidedLoss	True
452.763	0.36	Lose2	0.6667000000000001	0.004	Yes	2.683	-0.004	2.0	GoodResponse	0	0.21	451.973	7	47	Target	AvoidedLoss	True
452.973	0.3	Lose2	0.6667000000000001	0.004	Yes	2.683	-0.004	2.0	GoodResponse	0	0.21	n/a	7	47	ButtonPress	AvoidedLoss	True
453.13	0.34	Lose2	0.6667000000000001	n/a	Yes	2.683	n/a	n/a	GoodResponse	0	n/a	n/a	7	47	Blank	AvoidedLoss	True
453.465	1.45	Lose2	0.6667000000000001	n/a	Yes	2.683	n/a	5.0	GoodResponse	0	0.02	452.485	7	47	Feedback	AvoidedLoss	True
454.919	2.683	Lose2	0.6667000000000001	n/a	Yes	2.683	n/a	n/a	GoodResponse	0	0.0	n/a	7	47	ISIslide	AvoidedLoss	True
457.627	0.25	Lose2	0.6735	0.0	Yes	3.023	0.027	n/a	GoodResponse	0	n/a	n/a	7	48	Cue	AvoidedLoss	True
457.878	3.95	Lose2	0.6735	0.0	Yes	3.023	0.001	n/a	GoodResponse	0	n/a	n/a	7	48	Fixation	AvoidedLoss	True
461.823	0.35	Lose2	0.6735	0.004	Yes	3.023	-0.004	2.0	GoodResponse	0	0.287	461.11	7	48	Target	AvoidedLoss	True
462.11	0.3	Lose2	0.6735	0.004	Yes	3.023	-0.004	2.0	GoodResponse	0	0.287	n/a	7	48	ButtonPress	AvoidedLoss	True
462.174	0.35	Lose2	0.6735	n/a	Yes	3.023	n/a	n/a	GoodResponse	0	n/a	n/a	7	48	Blank	AvoidedLoss	True
462.525	1.45	Lose2	0.6735	n/a	Yes	3.023	n/a	5.0	GoodResponse	0	0.033	461.558	7	48	Feedback	AvoidedLoss	True
463.98	3.023	Lose2	0.6735	n/a	Yes	3.023	n/a	n/a	GoodResponse	0	0.0	n/a	7	48	ISIslide	AvoidedLoss	True
467.022	0.25	Control	0.68	0.0	Yes	2.878	0.022	n/a	GoodResponse	0	n/a	n/a	7	49	Cue	Neutral	True
467.273	4.0	Control	0.68	0.0	Yes	2.878	0.001	n/a	GoodResponse	0	n/a	n/a	7	49	Fixation	Neutral	True
471.268	0.34	Control	0.68	0.004	Yes	2.878	-0.004	2.0	GoodResponse	0	0.234	470.502	7	49	Target	Neutral	True
471.502	0.3	Control	0.68	0.004	Yes	2.878	-0.004	2.0	GoodResponse	0	0.234	n/a	7	49	ButtonPress	Neutral	True
471.619	0.36	Control	0.68	n/a	Yes	2.878	n/a	n/a	GoodResponse	0	n/a	n/a	7	49	Blank	Neutral	True
471.97	1.45	Control	0.68	n/a	Yes	2.878	n/a	5.0	GoodResponse	0	0.004	470.974	7	49	Feedback	Neutral	True
473.424	2.878	Control	0.68	n/a	Yes	2.878	n/a	n/a	GoodResponse	0	0.0	n/a	7	49	ISIslide	Neutral	True
476.316	0.25	Control	0.6862999999999999	0.001	Yes	2.784	0.016	n/a	GoodResponse	0	n/a	n/a	7	50	Cue	Neutral	True
476.567	4.0	Control	0.6862999999999999	0.0	Yes	2.784	0.001	n/a	GoodResponse	0	n/a	n/a	7	50	Fixation	Neutral	True
480.563	0.33	Control	0.6862999999999999	0.003	Yes	2.784	-0.003	2.0	GoodResponse	0	0.192	479.755	7	50	Target	Neutral	True
480.755	0.3	Control	0.6862999999999999	0.003	Yes	2.784	-0.003	2.0	GoodResponse	0	0.192	n/a	7	50	ButtonPress	Neutral	True
480.897	0.37	Control	0.6862999999999999	n/a	Yes	2.784	n/a	n/a	GoodResponse	0	n/a	n/a	7	50	Blank	Neutral	True
481.265	1.45	Control	0.6862999999999999	n/a	Yes	2.784	n/a	5.0	GoodResponse	0	0.025	480.29	7	50	Feedback	Neutral	True
482.719	2.784	Control	0.6862999999999999	n/a	Yes	2.784	n/a	n/a	GoodResponse	0	0.0	n/a	7	50	ISIslide	Neutral	True
485.527	0.25	Control	0.6923	0.0	Yes	2.723	0.027	n/a	GoodResponse	0	n/a	n/a	7	51	Cue	Neutral	True
485.778	3.95	Control	0.6923	0.0	Yes	2.723	0.001	n/a	GoodResponse	0	n/a	n/a	7	51	Fixation	Neutral	True
489.723	0.32	Control	0.6923	0.004	Yes	2.723	-0.004	2.0	GoodResponse	0	0.235	488.958	7	51	Target	Neutral	True
489.958	0.3	Control	0.6923	0.004	Yes	2.723	-0.004	2.0	GoodResponse	0	0.235	n/a	7	51	ButtonPress	Neutral	True
490.058	0.38	Control	0.6923	n/a	Yes	2.723	n/a	n/a	GoodResponse	0	n/a	n/a	7	51	Blank	Neutral	True
490.425	1.45	Control	0.6923	n/a	Yes	2.723	n/a	5.0	GoodResponse	0	0.035	489.46	7	51	Feedback	Neutral	True
491.88	2.723	Control	0.6923	n/a	Yes	2.723	n/a	n/a	GoodResponse	0	0.0	n/a	7	51	ISIslide	Neutral	True
494.621	0.25	Control	0.6792	0.0	No	2.629	0.021	n/a	PrematurePress	0	n/a	n/a	7	52	Cue	Neutral	False
494.872	4.05	Control	0.6792	0.0	No	2.629	0.001	2.0	PrematurePress	0	3.684	497.556	7	52	Fixation	Neutral	False
498.556	0.3	Control	0.6792	0.0	No	2.629	0.001	2.0	PrematurePress	0	3.684	n/a	7	52	ButtonPress	Neutral	False
498.918	0.31	Control	0.6792	0.003	No	2.629	-0.003	2.0	PrematurePress	0	0.025	497.943	7	52	Target	Neutral	False
498.943	0.3	Control	0.6792	0.003	No	2.629	-0.003	2.0	PrematurePress	0	0.025	n/a	7	52	ButtonPress	Neutral	False
499.235	0.39	Control	0.6792	n/a	No	2.629	n/a	n/a	PrematurePress	0	n/a	n/a	7	52	Blank	Neutral	False
499.62	1.45	Control	0.6792	n/a	No	2.629	n/a	5.0	PrematurePress	0	0.011	498.631	7	52	Feedback	Neutral	False
501.074	2.629	Control	0.6792	n/a	No	2.629	n/a	n/a	PrematurePress	0	0.0	n/a	7	52	ISIslide	Neutral	False
503.715	0.25	Win2	0.6851999999999999	0.0	Yes	2.935	0.015	n/a	GoodResponse	1	n/a	n/a	8	53	Cue	Win	True
503.966	4.05	Win2	0.6851999999999999	0.0	Yes	2.935	0.001	n/a	GoodResponse	1	n/a	n/a	8	53	Fixation	Win	True
508.011	0.3	Win2	0.6851999999999999	0.004	Yes	2.935	-0.004	2.0	GoodResponse	1	0.186	507.197	8	53	Target	Win	True
508.197	0.3	Win2	0.6851999999999999	0.004	Yes	2.935	-0.004	2.0	GoodResponse	1	0.186	n/a	8	53	ButtonPress	Win	True
508.312	0.4	Win2	0.6851999999999999	n/a	Yes	2.935	n/a	n/a	GoodResponse	1	n/a	n/a	8	53	Blank	Win	True
508.714	1.45	Win2	0.6851999999999999	n/a	Yes	2.935	n/a	5.0	GoodResponse	1	0.039	507.753	8	53	Feedback	Win	True
510.168	2.935	Win2	0.6851999999999999	n/a	Yes	2.935	n/a	n/a	GoodResponse	1	0.0	n/a	8	53	ISIslide	Win	True
513.127	0.25	Win2	0.6909000000000001	0.0	Yes	2.723	0.027	n/a	GoodResponse	1	n/a	n/a	9	54	Cue	Win	True
513.378	3.95	Win2	0.6909000000000001	0.0	Yes	2.723	0.001	n/a	GoodResponse	1	n/a	n/a	9	54	Fixation	Win	True
517.323	0.29	Win2	0.6909000000000001	0.004	Yes	2.723	-0.004	2.0	GoodResponse	1	0.221	516.544	9	54	Target	Win	True
517.544	0.3	Win2	0.6909000000000001	0.004	Yes	2.723	-0.004	2.0	GoodResponse	1	0.221	n/a	9	54	ButtonPress	Win	True
517.624	0.41	Win2	0.6909000000000001	n/a	Yes	2.723	n/a	n/a	GoodResponse	1	n/a	n/a	9	54	Blank	Win	True
518.025	1.45	Win2	0.6909000000000001	n/a	Yes	2.723	n/a	5.0	GoodResponse	1	0.045	517.07	9	54	Feedback	Win	True
519.479	2.723	Win2	0.6909000000000001	n/a	Yes	2.723	n/a	n/a	GoodResponse	1	0.0	n/a	9	54	ISIslide	Win	True
522.221	0.25	Control	0.6964	0.0	Yes	3.029	0.021	n/a	GoodResponse	0	n/a	n/a	9	55	Cue	Neutral	True
522.471	3.95	Control	0.6964	0.001	Yes	3.029	0.0	n/a	GoodResponse	0	n/a	n/a	9	55	Fixation	Neutral	True
526.417	0.28	Control	0.6964	0.004	Yes	3.029	-0.004	2.0	GoodResponse	0	0.252	525.669	9	55	Target	Neutral	True
526.669	0.3	Control	0.6964	0.004	Yes	3.029	-0.004	2.0	GoodResponse	0	0.252	n/a	9	55	ButtonPress	Neutral	True
526.701	0.42	Control	0.6964	n/a	Yes	3.029	n/a	n/a	GoodResponse	0	n/a	n/a	9	55	Blank	Neutral	True
527.119	1.45	Control	0.6964	n/a	Yes	3.029	n/a	5.0	GoodResponse	0	0.024	526.143	9	55	Feedback	Neutral	True
528.573	3.029	Control	0.6964	n/a	Yes	3.029	n/a	n/a	GoodResponse	0	0.0	n/a	9	55	ISIslide	Neutral	True
531.616	0.25	Control	0.7018000000000001	0.0	Yes	2.834	0.016	n/a	GoodResponse	0	n/a	n/a	9	56	Cue	Neutral	True
531.866	3.95	Control	0.7018000000000001	0.0	Yes	2.834	0.0	n/a	GoodResponse	0	n/a	n/a	9	56	Fixation	Neutral	True
535.828	0.27	Control	0.7018000000000001	0.0	Yes	2.834	0.012	2.0	GoodResponse	0	0.205	535.033	9	56	Target	Neutral	True
536.033	0.3	Control	0.7018000000000001	0.0	Yes	2.834	0.012	2.0	GoodResponse	0	0.205	n/a	9	56	ButtonPress	Neutral	True
536.096	0.43	Control	0.7018000000000001	n/a	Yes	2.834	n/a	n/a	GoodResponse	0	n/a	n/a	9	56	Blank	Neutral	True
536.514	1.45	Control	0.7018000000000001	n/a	Yes	2.834	n/a	5.0	GoodResponse	0	0.044	535.558	9	56	Feedback	Neutral	True
537.968	2.834	Control	0.7018000000000001	n/a	Yes	2.834	n/a	n/a	GoodResponse	0	0.0	n/a	9	56	ISIslide	Neutral	True
540.826	0.25	Control	0.7069	0.001	Yes	3.474	0.026	n/a	GoodResponse	0	n/a	n/a	9	57	Cue	Neutral	True
541.077	4.0	Control	0.7069	0.0	Yes	3.474	0.001	n/a	GoodResponse	0	n/a	n/a	9	57	Fixation	Neutral	True
545.072	0.26	Control	0.7069	0.004	Yes	3.474	-0.004	2.0	GoodResponse	0	0.214	544.286	9	57	Target	Neutral	True
545.286	0.3	Control	0.7069	0.004	Yes	3.474	-0.004	2.0	GoodResponse	0	0.214	n/a	9	57	ButtonPress	Neutral	True
545.34	0.44	Control	0.7069	n/a	Yes	3.474	n/a	n/a	GoodResponse	0	n/a	n/a	9	57	Blank	Neutral	True
545.775	1.45	Control	0.7069	n/a	Yes	3.474	n/a	5.0	GoodResponse	0	0.003	544.778	9	57	Feedback	Neutral	True
547.229	3.474	Control	0.7069	n/a	Yes	3.474	n/a	n/a	GoodResponse	0	0.0	n/a	9	57	ISIslide	Neutral	True
550.723	0.25	Win2	0.7119	0.0	Yes	2.727	0.023	n/a	GoodResponse	1	n/a	n/a	10	58	Cue	Win	True
550.974	4.05	Win2	0.7119	0.0	Yes	2.727	0.001	n/a	GoodResponse	1	n/a	n/a	10	58	Fixation	Win	True
555.019	0.25	Win2	0.7119	0.004	Yes	2.727	-0.004	2.0	GoodResponse	1	0.233	554.252	10	58	Target	Win	True
555.252	0.3	Win2	0.7119	0.004	Yes	2.727	-0.004	2.0	GoodResponse	1	0.233	n/a	10	58	ButtonPress	Win	True
555.27	0.45	Win2	0.7119	n/a	Yes	2.727	n/a	n/a	GoodResponse	1	n/a	n/a	10	58	Blank	Win	True
555.721	1.45	Win2	0.7119	n/a	Yes	2.727	n/a	5.0	GoodResponse	1	0.008	554.729	10	58	Feedback	Win	True
557.175	2.727	Win2	0.7119	n/a	Yes	2.727	n/a	n/a	GoodResponse	1	0.0	n/a	10	58	ISIslide	Win	True
559.917	0.25	Lose2	0.7167	0.0	Yes	2.683	0.017	n/a	GoodResponse	0	n/a	n/a	10	59	Cue	AvoidedLoss	True
560.168	4.0	Lose2	0.7167	0.0	Yes	2.683	0.001	n/a	GoodResponse	0	n/a	n/a	10	59	Fixation	AvoidedLoss	True
564.163	0.24	Lose2	0.7167	0.004	Yes	2.683	-0.004	2.0	GoodResponse	0	0.186	563.349	10	59	Target	AvoidedLoss	True
564.349	0.3	Lose2	0.7167	0.004	Yes	2.683	-0.004	2.0	GoodResponse	0	0.186	n/a	10	59	ButtonPress	AvoidedLoss	True
564.414	0.46	Lose2	0.7167	n/a	Yes	2.683	n/a	n/a	GoodResponse	0	n/a	n/a	10	59	Blank	AvoidedLoss	True
564.865	1.45	Lose2	0.7167	n/a	Yes	2.683	n/a	5.0	GoodResponse	0	0.034	563.899	10	59	Feedback	AvoidedLoss	True
566.319	2.683	Lose2	0.7167	n/a	Yes	2.683	n/a	n/a	GoodResponse	0	0.0	n/a	10	59	ISIslide	AvoidedLoss	True
569.028	0.25	Control	0.7049	0.0	No	2.672	0.028	n/a	NoResponse	0	n/a	n/a	10	60	Cue	Neutral	True
569.278	4.0	Control	0.7049	0.0	No	2.672	0.0	n/a	NoResponse	0	n/a	n/a	10	60	Fixation	Neutral	True
573.274	0.23	Control	0.7049	0.004	No	2.672	-0.004	2.0	NoResponse	0	0.242	572.516	10	60	Target	Neutral	True
573.508	0.47	Control	0.7049	n/a	No	2.672	n/a	n/a	NoResponse	0	n/a	n/a	10	60	Blank	Neutral	True
573.516	0.3	Control	0.7049	0.004	No	2.672	-0.004	2.0	NoResponse	0	0.242	n/a	10	60	ButtonPress	Neutral	True
573.976	1.45	Control	0.7049	n/a	No	2.672	n/a	5.0	NoResponse	0	0.045	573.021	10	60	Feedback	Neutral	True
575.43	2.672	Control	0.7049	n/a	No	2.672	n/a	n/a	NoResponse	0	0.0	n/a	10	60	ISIslide	Neutral	True
578.122	0.25	Lose2	0.6934999999999999	0.0	No	2.978	0.022	n/a	LatePress	-1	n/a	n/a	9	61	Cue	Loss	True
578.372	4.0	Lose2	0.6934999999999999	0.0	No	2.978	0.0	n/a	LatePress	-1	n/a	n/a	9	61	Fixation	Loss	True
582.368	0.22	Lose2	0.6934999999999999	0.004	No	2.978	-0.004	2.0	LatePress	-1	0.221	581.589	9	61	Target	Loss	True
582.589	0.3	Lose2	0.6934999999999999	0.004	No	2.978	-0.004	2.0	LatePress	-1	0.221	n/a	9	61	ButtonPress	Loss	True
582.602	0.48	Lose2	0.6934999999999999	n/a	No	2.978	n/a	n/a	LatePress	-1	n/a	n/a	9	61	Blank	Loss	True
583.07	1.45	Lose2	0.6934999999999999	n/a	No	2.978	n/a	5.0	LatePress	-1	0.024	582.094	9	61	Feedback	Loss	True
584.524	2.978	Lose2	0.6934999999999999	n/a	No	2.978	n/a	n/a	LatePress	-1	0.0	n/a	9	61	ISIslide	Loss	True
587.516	0.25	Lose2	0.6825	0.0	No	2.884	0.016	n/a	NoResponse	-1	n/a	n/a	8	62	Cue	Loss	True
587.767	3.9	Lose2	0.6825	0.0	No	2.884	0.001	n/a	NoResponse	-1	n/a	n/a	8	62	Fixation	Loss	True
591.662	0.21	Lose2	0.6825	0.004	No	2.884	-0.004	2.0	NoResponse	-1	0.254	590.916	8	62	Target	Loss	True
591.879	0.49	Lose2	0.6825	n/a	No	2.884	n/a	n/a	NoResponse	-1	n/a	n/a	8	62	Blank	Loss	True
591.916	0.3	Lose2	0.6825	0.004	No	2.884	-0.004	2.0	NoResponse	-1	0.254	n/a	8	62	ButtonPress	Loss	True
592.364	1.45	Lose2	0.6825	n/a	No	2.884	n/a	5.0	NoResponse	-1	0.047	591.411	8	62	Feedback	Loss	True
593.819	2.884	Lose2	0.6825	n/a	No	2.884	n/a	n/a	NoResponse	-1	0.0	n/a	8	62	ISIslide	Loss	True
596.727	0.25	Lose2	0.6875	0.0	Yes	2.623	0.027	n/a	GoodResponse	0	n/a	n/a	8	63	Cue	AvoidedLoss	True
596.978	4.05	Lose2	0.6875	0.0	Yes	2.623	0.001	n/a	GoodResponse	0	n/a	n/a	8	63	Fixation	AvoidedLoss	True
601.024	0.2	Lose2	0.6875	0.003	Yes	2.623	-0.003	2.0	GoodResponse	0	0.191	600.215	8	63	Target	AvoidedLoss	True
601.215	0.3	Lose2	0.6875	0.003	Yes	2.623	-0.003	2.0	GoodResponse	0	0.191	n/a	8	63	ButtonPress	AvoidedLoss	True
601.224	0.5	Lose2	0.6875	n/a	Yes	2.623	n/a	n/a	GoodResponse	0	n/a	n/a	8	63	Blank	AvoidedLoss	True
601.726	1.45	Lose2	0.6875	n/a	Yes	2.623	n/a	5.0	GoodResponse	0	0.004	600.73	8	63	Feedback	AvoidedLoss	True
603.18	2.623	Lose2	0.6875	n/a	Yes	2.623	n/a	n/a	GoodResponse	0	0.0	n/a	8	63	ISIslide	AvoidedLoss	True
605.821	0.25	Win2	0.6769	0.0	No	3.129	0.021	n/a	NoResponse	0	n/a	n/a	8	64	Cue	MissedWin	True
606.072	4.15	Win2	0.6769	0.0	No	3.129	0.001	n/a	NoResponse	0	n/a	n/a	8	64	Fixation	MissedWin	True
610.218	0.19	Win2	0.6769	0.003	No	3.129	-0.003	2.0	NoResponse	0	0.228	609.446	8	64	Target	MissedWin	True
610.418	0.51	Win2	0.6769	n/a	No	3.129	n/a	n/a	NoResponse	0	n/a	n/a	8	64	Blank	MissedWin	True
610.446	0.3	Win2	0.6769	0.003	No	3.129	-0.003	2.0	NoResponse	0	0.228	n/a	8	64	ButtonPress	MissedWin	True
610.92	1.45	Win2	0.6769	n/a	No	3.129	n/a	5.0	NoResponse	0	0.028	609.948	8	64	Feedback	MissedWin	True
612.374	3.129	Win2	0.6769	n/a	No	3.129	n/a	n/a	NoResponse	0	0.0	n/a	8	64	ISIslide	MissedWin	True
615.517	0.25	Control	0.6667000000000001	0.0	No	2.783	0.017	n/a	NoResponse	0	n/a	n/a	8	65	Cue	Neutral	True
615.768	4.0	Control	0.6667000000000001	0.0	No	2.783	0.001	n/a	NoResponse	0	n/a	n/a	8	65	Fixation	Neutral	True
619.763	0.18	Control	0.6667000000000001	0.004	No	2.783	-0.004	2.0	NoResponse	0	0.266	619.029	8	65	Target	Neutral	True
619.947	0.52	Control	0.6667000000000001	n/a	No	2.783	n/a	n/a	NoResponse	0	n/a	n/a	8	65	Blank	Neutral	True
620.029	0.3	Control	0.6667000000000001	0.004	No	2.783	-0.004	2.0	NoResponse	0	0.266	n/a	8	65	ButtonPress	Neutral	True
620.465	1.45	Control	0.6667000000000001	n/a	No	2.783	n/a	5.0	NoResponse	0	0.044	619.509	8	65	Feedback	Neutral	True
621.919	2.783	Control	0.6667000000000001	n/a	No	2.783	n/a	n/a	NoResponse	0	0.0	n/a	8	65	ISIslide	Neutral	True
624.728	0.25	Win2	0.6716	0.0	Yes	2.772	0.028	n/a	GoodResponse	1	n/a	n/a	9	66	Cue	Win	True
624.979	3.9	Win2	0.6716	0.0	Yes	2.772	0.001	n/a	GoodResponse	1	n/a	n/a	9	66	Fixation	Win	True
628.874	0.17	Win2	0.6716	0.004	Yes	2.772	-0.004	2.0	GoodResponse	1	0.16	628.034	9	66	Target	Win	True
629.034	0.3	Win2	0.6716	0.004	Yes	2.772	-0.004	2.0	GoodResponse	1	0.16	n/a	9	66	ButtonPress	Win	True
629.057	0.53	Win2	0.6716	n/a	Yes	2.772	n/a	n/a	GoodResponse	1	n/a	n/a	9	66	Blank	Win	True
629.576	1.45	Win2	0.6716	n/a	Yes	2.772	n/a	5.0	GoodResponse	1	0.006	628.582	9	66	Feedback	Win	True
631.03	2.772	Win2	0.6716	n/a	Yes	2.772	n/a	n/a	GoodResponse	1	0.0	n/a	9	66	ISIslide	Win	True
633.822	0.25	Control	0.6618	0.0	No	2.728	0.022	n/a	NoResponse	0	n/a	n/a	9	67	Cue	Neutral	True
634.073	3.95	Control	0.6618	0.0	No	2.728	0.001	n/a	NoResponse	0	n/a	n/a	9	67	Fixation	Neutral	True
638.018	0.16	Control	0.6618	0.004	No	2.728	-0.004	2.0	NoResponse	0	0.245	637.263	9	67	Target	Neutral	True
638.185	0.54	Control	0.6618	n/a	No	2.728	n/a	n/a	NoResponse	0	n/a	n/a	9	67	Blank	Neutral	True
638.263	0.3	Control	0.6618	0.004	No	2.728	-0.004	2.0	NoResponse	0	0.245	n/a	9	67	ButtonPress	Neutral	True
638.72	1.45	Control	0.6618	n/a	No	2.728	n/a	5.0	NoResponse	0	0.032	637.752	9	67	Feedback	Neutral	True
640.174	2.728	Control	0.6618	n/a	No	2.728	n/a	n/a	NoResponse	0	0.0	n/a	9	67	ISIslide	Neutral	True
642.916	0.25	Win2	0.6522	0.0	No	3.084	0.016	n/a	NoResponse	0	n/a	n/a	9	68	Cue	MissedWin	True
643.166	4.0	Win2	0.6522	0.001	No	3.084	0.0	n/a	NoResponse	0	n/a	n/a	9	68	Fixation	MissedWin	True
647.162	0.16	Win2	0.6522	0.004	No	3.084	-0.004	2.0	NoResponse	0	0.225	646.387	9	68	Target	MissedWin	True
647.329	0.54	Win2	0.6522	n/a	No	3.084	n/a	n/a	NoResponse	0	n/a	n/a	9	68	Blank	MissedWin	True
647.387	0.3	Win2	0.6522	0.004	No	3.084	-0.004	2.0	NoResponse	0	0.225	n/a	9	68	ButtonPress	MissedWin	True
647.864	1.45	Win2	0.6522	n/a	No	3.084	n/a	5.0	NoResponse	0	0.01	646.874	9	68	Feedback	MissedWin	True
649.318	3.084	Win2	0.6522	n/a	No	3.084	n/a	n/a	NoResponse	0	0.0	n/a	9	68	ISIslide	MissedWin	True
652.428	0.25	Win2	0.6429	0.0	No	3.222	0.028	n/a	NoResponse	0	n/a	n/a	9	69	Cue	MissedWin	True
652.678	3.95	Win2	0.6429	0.0	No	3.222	0.0	n/a	NoResponse	0	n/a	n/a	9	69	Fixation	MissedWin	True
656.64	0.17	Win2	0.6429	0.0	No	3.222	0.012	2.0	NoResponse	0	0.187	655.827	9	69	Target	MissedWin	True
656.807	0.53	Win2	0.6429	n/a	No	3.222	n/a	n/a	NoResponse	0	n/a	n/a	9	69	Blank	MissedWin	True
656.827	0.3	Win2	0.6429	0.0	No	3.222	0.012	2.0	NoResponse	0	0.187	n/a	9	69	ButtonPress	MissedWin	True
657.326	1.45	Win2	0.6429	n/a	No	3.222	n/a	5.0	NoResponse	0	0.011	656.337	9	69	Feedback	MissedWin	True
658.78	3.222	Win2	0.6429	n/a	No	3.222	n/a	n/a	NoResponse	0	0.0	n/a	9	69	ISIslide	MissedWin	True
662.023	0.25	Lose2	0.6338	0.0	No	3.027	0.023	n/a	NoResponse	-1	n/a	n/a	8	70	Cue	Loss	True
662.274	4.05	Lose2	0.6338	0.0	No	3.027	0.001	n/a	NoResponse	-1	n/a	n/a	8	70	Fixation	Loss	True
666.319	0.18	Lose2	0.6338	0.004	No	3.027	-0.004	2.0	NoResponse	-1	0.21	665.529	8	70	Target	Loss	True
666.503	0.52	Lose2	0.6338	n/a	No	3.027	n/a	n/a	NoResponse	-1	n/a	n/a	8	70	Blank	Loss	True
666.529	0.3	Lose2	0.6338	0.004	No	3.027	-0.004	2.0	NoResponse	-1	0.21	n/a	8	70	ButtonPress	Loss	True
667.021	1.45	Lose2	0.6338	n/a	No	3.027	n/a	5.0	NoResponse	-1	0.024	666.045	8	70	Feedback	Loss	True
668.476	3.027	Lose2	0.6338	n/a	No	3.027	n/a	n/a	NoResponse	-1	0.0	n/a	8	70	ISIslide	Loss	True
671.518	0.25	Win2	0.625	0.0	No	2.732	0.018	n/a	NoResponse	0	n/a	n/a	8	71	Cue	MissedWin	True
671.769	4.05	Win2	0.625	0.0	No	2.732	0.001	n/a	NoResponse	0	n/a	n/a	8	71	Fixation	MissedWin	True
675.814	0.19	Win2	0.625	0.004	No	2.732	-0.004	2.0	NoResponse	0	0.21	675.024	8	71	Target	MissedWin	True
676.015	0.51	Win2	0.625	n/a	No	2.732	n/a	n/a	NoResponse	0	n/a	n/a	8	71	Blank	MissedWin	True
676.024	0.3	Win2	0.625	0.004	No	2.732	-0.004	2.0	NoResponse	0	0.21	n/a	8	71	ButtonPress	MissedWin	True
676.516	1.45	Win2	0.625	n/a	No	2.732	n/a	5.0	NoResponse	0	0.041	675.557	8	71	Feedback	MissedWin	True
677.971	2.732	Win2	0.625	n/a	No	2.732	n/a	n/a	NoResponse	0	0.0	n/a	8	71	ISIslide	MissedWin	True
680.729	0.25	Win2	0.6164000000000001	0.0	No	2.771	0.029	n/a	NoResponse	0	n/a	n/a	8	72	Cue	MissedWin	True
680.98	4.1	Win2	0.6164000000000001	0.0	No	2.771	0.001	n/a	NoResponse	0	n/a	n/a	8	72	Fixation	MissedWin	True
685.075	0.2	Win2	0.6164000000000001	0.004	No	2.771	-0.004	2.0	NoResponse	0	0.233	684.308	8	72	Target	MissedWin	True
685.276	0.5	Win2	0.6164000000000001	n/a	No	2.771	n/a	n/a	NoResponse	0	n/a	n/a	8	72	Blank	MissedWin	True
685.308	0.3	Win2	0.6164000000000001	0.004	No	2.771	-0.004	2.0	NoResponse	0	0.233	n/a	8	72	ButtonPress	MissedWin	True
685.777	1.45	Win2	0.6164000000000001	n/a	No	2.771	n/a	5.0	NoResponse	0	0.048	684.825	8	72	Feedback	MissedWin	True
687.232	2.771	Win2	0.6164000000000001	n/a	No	2.771	n/a	n/a	NoResponse	0	0.0	n/a	8	72	ISIslide	MissedWin	True
690.024	0.25	Win2	0.6215999999999999	0.0	Yes	2.676	0.024	n/a	GoodResponse	1	n/a	n/a	9	73	Cue	Win	True
690.274	4.0	Win2	0.6215999999999999	0.0	Yes	2.676	0.0	n/a	GoodResponse	1	n/a	n/a	9	73	Fixation	Win	True
694.27	0.21	Win2	0.6215999999999999	0.004	Yes	2.676	-0.004	2.0	GoodResponse	1	0.196	693.466	9	73	Target	Win	True
694.466	0.3	Win2	0.6215999999999999	0.004	Yes	2.676	-0.004	2.0	GoodResponse	1	0.196	n/a	9	73	ButtonPress	Win	True
694.487	0.49	Win2	0.6215999999999999	n/a	Yes	2.676	n/a	n/a	GoodResponse	1	n/a	n/a	9	73	Blank	Win	True
694.972	1.45	Win2	0.6215999999999999	n/a	Yes	2.676	n/a	5.0	GoodResponse	1	0.024	693.996	9	73	Feedback	Win	True
696.426	2.676	Win2	0.6215999999999999	n/a	Yes	2.676	n/a	n/a	GoodResponse	1	0.0	n/a	9	73	ISIslide	Win	True
699.117	0.25	Lose2	0.6133	0.001	No	2.633	0.017	n/a	NoResponse	-1	n/a	n/a	8	74	Cue	Loss	True
699.368	4.05	Lose2	0.6133	0.0	No	2.633	0.001	n/a	NoResponse	-1	n/a	n/a	8	74	Fixation	Loss	True
703.414	0.22	Lose2	0.6133	0.003	No	2.633	-0.003	2.0	NoResponse	-1	0.287	702.701	8	74	Target	Loss	True
703.648	0.48	Lose2	0.6133	n/a	No	2.633	n/a	n/a	NoResponse	-1	n/a	n/a	8	74	Blank	Loss	True
703.701	0.3	Lose2	0.6133	0.003	No	2.633	-0.003	2.0	NoResponse	-1	0.287	n/a	8	74	ButtonPress	Loss	True
704.116	1.45	Lose2	0.6133	n/a	No	2.633	n/a	5.0	NoResponse	-1	0.004	703.12	8	74	Feedback	Loss	True
705.57	2.633	Lose2	0.6133	n/a	No	2.633	n/a	n/a	NoResponse	-1	0.0	n/a	8	74	ISIslide	Loss	True
708.228	0.25	Lose2	0.6184000000000001	0.0	Yes	2.922	0.028	n/a	GoodResponse	0	n/a	n/a	8	75	Cue	AvoidedLoss	True
708.479	3.95	Lose2	0.6184000000000001	0.0	Yes	2.922	0.001	n/a	GoodResponse	0	n/a	n/a	8	75	Fixation	AvoidedLoss	True
712.424	0.23	Lose2	0.6184000000000001	0.004	Yes	2.922	-0.004	2.0	GoodResponse	0	0.226	711.65	8	75	Target	AvoidedLoss	True
712.65	0.3	Lose2	0.6184000000000001	0.004	Yes	2.922	-0.004	2.0	GoodResponse	0	0.226	n/a	8	75	ButtonPress	AvoidedLoss	True
712.658	0.47	Lose2	0.6184000000000001	n/a	Yes	2.922	n/a	n/a	GoodResponse	0	n/a	n/a	8	75	Blank	AvoidedLoss	True
713.126	1.45	Lose2	0.6184000000000001	n/a	Yes	2.922	n/a	5.0	GoodResponse	0	0.016	712.142	8	75	Feedback	AvoidedLoss	True
714.58	2.922	Lose2	0.6184000000000001	n/a	Yes	2.922	n/a	n/a	GoodResponse	0	0.0	n/a	8	75	ISIslide	AvoidedLoss	True
717.523	0.25	Control	0.6234000000000001	0.0	Yes	3.227	0.023	n/a	GoodResponse	0	n/a	n/a	8	76	Cue	Neutral	True
717.773	4.05	Control	0.6234000000000001	0.0	Yes	3.227	0.0	n/a	GoodResponse	0	n/a	n/a	8	76	Fixation	Neutral	True
721.819	0.24	Control	0.6234000000000001	0.004	Yes	3.227	-0.004	2.0	GoodResponse	0	0.206	721.025	8	76	Target	Neutral	True
722.025	0.3	Control	0.6234000000000001	0.004	Yes	3.227	-0.004	2.0	GoodResponse	0	0.206	n/a	8	76	ButtonPress	Neutral	True
722.07	0.46	Control	0.6234000000000001	n/a	Yes	3.227	n/a	n/a	GoodResponse	0	n/a	n/a	8	76	Blank	Neutral	True
722.521	1.45	Control	0.6234000000000001	n/a	Yes	3.227	n/a	5.0	GoodResponse	0	0.036	721.557	8	76	Feedback	Neutral	True
723.975	3.227	Control	0.6234000000000001	n/a	Yes	3.227	n/a	n/a	GoodResponse	0	0.0	n/a	8	76	ISIslide	Neutral	True
727.218	0.25	Lose2	0.6282	0.0	Yes	2.582	0.018	n/a	GoodResponse	0	n/a	n/a	8	77	Cue	AvoidedLoss	True
727.469	3.95	Lose2	0.6282	0.0	Yes	2.582	0.001	n/a	GoodResponse	0	n/a	n/a	8	77	Fixation	AvoidedLoss	True
731.414	0.25	Lose2	0.6282	0.004	Yes	2.582	-0.004	2.0	GoodResponse	0	0.208	730.622	8	77	Target	AvoidedLoss	True
731.622	0.3	Lose2	0.6282	0.004	Yes	2.582	-0.004	2.0	GoodResponse	0	0.208	n/a	8	77	ButtonPress	AvoidedLoss	True
731.665	0.45	Lose2	0.6282	n/a	Yes	2.582	n/a	n/a	GoodResponse	0	n/a	n/a	8	77	Blank	AvoidedLoss	True
732.116	1.45	Lose2	0.6282	n/a	Yes	2.582	n/a	5.0	GoodResponse	0	0.002	731.118	8	77	Feedback	AvoidedLoss	True
733.571	2.582	Lose2	0.6282	n/a	Yes	2.582	n/a	n/a	GoodResponse	0	0.0	n/a	8	77	ISIslide	AvoidedLoss	True
