onset	duration	cue_type	current_mean_accuracy	duration_error	is_hit	isi_adjusted	onset_delay	response	response_type	reward	rt	rt_time	total_reward	trial_number	trial_phase	trial_type	one_press
11.107	0.25	Control	1.0	0.0	Yes	2.943	0.007	n/a	GoodResponse	0	n/a	n/a	0	0	Cue	Neutral	True
11.357	3.85	Control	1.0	0.0	Yes	2.943	0.0	n/a	GoodResponse	0	n/a	n/a	0	0	Fixation	Neutral	True
15.205	0.4	Control	1.0	0.002	Yes	2.943	-0.002	2.0	GoodResponse	0	0.27	14.475	0	0	Target	Neutral	True
15.475	0.3	Control	1.0	0.002	Yes	2.943	-0.002	2.0	GoodResponse	0	0.27	n/a	0	0	ButtonPress	Neutral	True
15.605	0.3	Control	1.0	n/a	Yes	2.943	n/a	n/a	GoodResponse	0	n/a	n/a	0	0	Blank	Neutral	True
15.905	1.45	Control	1.0	n/a	Yes	2.943	n/a	5.0	GoodResponse	0	0.024	14.929	0	0	Feedback	Neutral	True
17.355	2.943	Control	1.0	n/a	Yes	2.943	n/a	n/a	GoodResponse	0	0.0	n/a	0	0	ISIslide	Neutral	True
20.32	0.25	Lose2	1.0	0.0	Yes	2.78	0.02	n/a	GoodResponse	0	n/a	n/a	0	1	Cue	AvoidedLoss	True
20.57	4.0	Lose2	1.0	0.0	Yes	2.78	0.0	n/a	GoodResponse	0	n/a	n/a	0	1	Fixation	AvoidedLoss	True
24.569	0.39	Lose2	1.0	0.001	Yes	2.78	-0.001	2.0	GoodResponse	0	0.259	23.828	0	1	Target	AvoidedLoss	True
24.828	0.3	Lose2	1.0	0.001	Yes	2.78	-0.001	2.0	GoodResponse	0	0.259	n/a	0	1	ButtonPress	AvoidedLoss	True
24.969	0.31	Lose2	1.0	n/a	Yes	2.78	n/a	n/a	GoodResponse	0	n/a	n/a	0	1	Blank	AvoidedLoss	True
25.268	1.45	Lose2	1.0	n/a	Yes	2.78	n/a	5.0	GoodResponse	0	0.027	24.295	0	1	Feedback	AvoidedLoss	True
26.718	2.78	Lose2	1.0	n/a	Yes	2.78	n/a	n/a	GoodResponse	0	0.0	n/a	0	1	ISIslide	AvoidedLoss	True
29.517	0.25	Control	1.0	0.0	Yes	2.583	0.017	n/a	GoodResponse	0	n/a	n/a	0	2	Cue	Neutral	True
29.767	4.1	Control	1.0	0.0	Yes	2.583	0.0	n/a	GoodResponse	0	n/a	n/a	0	2	Fixation	Neutral	True
33.865	0.38	Control	1.0	0.002	Yes	2.583	-0.002	2.0	GoodResponse	0	0.225	33.09	0	2	Target	Neutral	True
34.09	0.3	Control	1.0	0.002	Yes	2.583	-0.002	2.0	GoodResponse	0	0.225	n/a	0	2	ButtonPress	Neutral	True
34.249	0.32	Control	1.0	n/a	Yes	2.583	n/a	n/a	GoodResponse	0	n/a	n/a	0	2	Blank	Neutral	True
34.565	1.45	Control	1.0	n/a	Yes	2.583	n/a	5.0	GoodResponse	0	0.047	33.612	0	2	Feedback	Neutral	True
36.015	2.583	Control	1.0	n/a	Yes	2.583	n/a	n/a	GoodResponse	0	0.0	n/a	0	2	ISIslide	Neutral	True
38.614	0.25	Win2	1.0	0.0	Yes	2.836	0.014	n/a	GoodResponse	1	n/a	n/a	1	3	Cue	Win	True
38.864	3.95	Win2	1.0	0.0	Yes	2.836	0.0	n/a	GoodResponse	1	n/a	n/a	1	3	Fixation	Win	True
42.812	0.37	Win2	1.0	0.002	Yes	2.836	-0.002	2.0	GoodResponse	1	0.199	42.011	1	3	Target	Win	True
43.011	0.3	Win2	1.0	0.002	Yes	2.836	-0.002	2.0	GoodResponse	1	0.199	n/a	1	3	ButtonPress	Win	True
43.195	0.33	Win2	1.0	n/a	Yes	2.836	n/a	n/a	GoodResponse	1	n/a	n/a	1	3	Blank	Win	True
43.512	1.45	Win2	1.0	n/a	Yes	2.836	n/a	5.0	GoodResponse	1	0.026	42.538	1	3	Feedback	Win	True
44.961	2.836	Win2	1.0	n/a	Yes	2.836	n/a	n/a	GoodResponse	1	0.0	n/a	1	3	ISIslide	Win	True
47.827	0.25	Win2	1.0	0.0	Yes	3.273	0.027	n/a	GoodResponse	1	n/a	n/a	2	4	Cue	Win	True
48.077	4.0	Win2	1.0	0.0	Yes	3.273	0.0	n/a	GoodResponse	1	n/a	n/a	2	4	Fixation	Win	True
52.076	0.36	Win2	1.0	0.001	Yes	3.273	-0.001	2.0	GoodResponse	1	0.205	51.281	2	4	Target	Win	True
52.281	0.3	Win2	1.0	0.001	Yes	3.273	-0.001	2.0	GoodResponse	1	0.205	n/a	2	4	ButtonPress	Win	True
52.442	0.34	Win2	1.0	n/a	Yes	3.273	n/a	n/a	GoodResponse	1	n/a	n/a	2	4	Blank	Win	True
52.775	1.45	Win2	1.0	n/a	Yes	3.273	n/a	5.0	GoodResponse	1	0.032	51.807	2	4	Feedback	Win	True
54.225	3.273	Win2	1.0	n/a	Yes	3.273	n/a	n/a	GoodResponse	1	0.0	n/a	2	4	ISIslide	Win	True
57.524	0.25	Win2	1.0	0.0	Yes	2.776	0.024	n/a	GoodResponse	1	n/a	n/a	3	5	Cue	Win	True
57.774	4.0	Win2	1.0	0.0	Yes	2.776	0.0	n/a	GoodResponse	1	n/a	n/a	3	5	Fixation	Win	True
61.772	0.35	Win2	1.0	0.002	Yes	2.776	-0.002	2.0	GoodResponse	1	0.207	60.979	3	5	Target	Win	True
61.979	0.3	Win2	1.0	0.002	Yes	2.776	-0.002	2.0	GoodResponse	1	0.207	n/a	3	5	ButtonPress	Win	True
62.122	0.35	Win2	1.0	n/a	Yes	2.776	n/a	n/a	GoodResponse	1	n/a	n/a	3	5	Blank	Win	True
62.472	1.45	Win2	1.0	n/a	Yes	2.776	n/a	5.0	GoodResponse	1	0.001	61.473	3	5	Feedback	Win	True
63.921	2.776	Win2	1.0	n/a	Yes	2.776	n/a	n/a	GoodResponse	1	0.0	n/a	3	5	ISIslide	Win	True
66.72	0.25	Lose2	1.0	0.001	Yes	2.73	0.02	n/a	GoodResponse	0	n/a	n/a	3	6	Cue	AvoidedLoss	True
66.97	3.95	Lose2	1.0	0.0	Yes	2.73	0.0	n/a	GoodResponse	0	n/a	n/a	3	6	Fixation	AvoidedLoss	True
70.919	0.34	Lose2	1.0	0.001	Yes	2.73	-0.001	2.0	GoodResponse	0	0.187	70.106	3	6	Target	AvoidedLoss	True
71.106	0.3	Lose2	1.0	0.001	Yes	2.73	-0.001	2.0	GoodResponse	0	0.187	n/a	3	6	ButtonPress	AvoidedLoss	True
71.269	0.36	Lose2	1.0	n/a	Yes	2.73	n/a	n/a	GoodResponse	0	n/a	n/a	3	6	Blank	AvoidedLoss	True
71.619	1.45	Lose2	1.0	n/a	Yes	2.73	n/a	5.0	GoodResponse	0	0.017	70.636	3	6	Feedback	AvoidedLoss	True
73.068	2.73	Lose2	1.0	n/a	Yes	2.73	n/a	n/a	GoodResponse	0	0.0	n/a	3	6	ISIslide	AvoidedLoss	True
75.817	0.25	Lose2	1.0	0.0	Yes	4.033	0.017	n/a	GoodResponse	0	n/a	n/a	3	7	Cue	AvoidedLoss	True
76.067	4.05	Lose2	1.0	0.0	Yes	4.033	0.0	n/a	GoodResponse	0	n/a	n/a	3	7	Fixation	AvoidedLoss	True
80.116	0.33	Lose2	1.0	0.001	Yes	4.033	-0.001	2.0	GoodResponse	0	0.198	79.314	3	7	Target	AvoidedLoss	True
80.314	0.3	Lose2	1.0	0.001	Yes	4.033	-0.001	2.0	GoodResponse	0	0.198	n/a	3	7	ButtonPress	AvoidedLoss	True
80.449	0.37	Lose2	1.0	n/a	Yes	4.033	n/a	n/a	GoodResponse	0	n/a	n/a	3	7	Blank	AvoidedLoss	True
80.816	1.45	Lose2	1.0	n/a	Yes	4.033	n/a	5.0	GoodResponse	0	0.039	79.855	3	7	Feedback	AvoidedLoss	True
82.265	4.033	Lose2	1.0	n/a	Yes	4.033	n/a	n/a	GoodResponse	0	0.0	n/a	3	7	ISIslide	AvoidedLoss	True
86.314	0.25	Lose2	1.0	0.0	Yes	3.036	0.014	n/a	GoodResponse	0	n/a	n/a	3	8	Cue	AvoidedLoss	True
86.563	3.95	Lose2	1.0	0.001	Yes	3.036	-0.001	n/a	GoodResponse	0	n/a	n/a	3	8	Fixation	AvoidedLoss	True
90.512	0.32	Lose2	1.0	0.002	Yes	3.036	-0.002	2.0	GoodResponse	0	0.246	89.758	3	8	Target	AvoidedLoss	True
90.758	0.3	Lose2	1.0	0.002	Yes	3.036	-0.002	2.0	GoodResponse	0	0.246	n/a	3	8	ButtonPress	AvoidedLoss	True
90.845	0.38	Lose2	1.0	n/a	Yes	3.036	n/a	n/a	GoodResponse	0	n/a	n/a	3	8	Blank	AvoidedLoss	True
91.212	1.45	Lose2	1.0	n/a	Yes	3.036	n/a	5.0	GoodResponse	0	0.033	90.245	3	8	Feedback	AvoidedLoss	True
92.661	3.036	Lose2	1.0	n/a	Yes	3.036	n/a	n/a	GoodResponse	0	0.0	n/a	3	8	ISIslide	AvoidedLoss	True
95.727	0.25	Lose2	1.0	0.0	Yes	3.123	0.027	n/a	GoodResponse	0	n/a	n/a	3	9	Cue	AvoidedLoss	True
95.977	3.95	Lose2	1.0	0.0	Yes	3.123	0.0	n/a	GoodResponse	0	n/a	n/a	3	9	Fixation	AvoidedLoss	True
99.925	0.31	Lose2	1.0	0.002	Yes	3.123	-0.002	2.0	GoodResponse	0	0.194	99.119	3	9	Target	AvoidedLoss	True
100.119	0.3	Lose2	1.0	0.002	Yes	3.123	-0.002	2.0	GoodResponse	0	0.194	n/a	3	9	ButtonPress	AvoidedLoss	True
100.242	0.39	Lose2	1.0	n/a	Yes	3.123	n/a	n/a	GoodResponse	0	n/a	n/a	3	9	Blank	AvoidedLoss	True
100.625	1.45	Lose2	1.0	n/a	Yes	3.123	n/a	5.0	GoodResponse	0	0.035	99.66	3	9	Feedback	AvoidedLoss	True
102.075	3.123	Lose2	1.0	n/a	Yes	3.123	n/a	n/a	GoodResponse	0	0.0	n/a	3	9	ISIslide	AvoidedLoss	True
105.224	0.25	Control	1.0	0.0	Yes	3.276	0.024	n/a	GoodResponse	0	n/a	n/a	3	10	Cue	Neutral	True
105.474	4.0	Control	1.0	0.0	Yes	3.276	0.0	n/a	GoodResponse	0	n/a	n/a	3	10	Fixation	Neutral	True
109.472	0.3	Control	1.0	0.002	Yes	3.276	-0.002	2.0	GoodResponse	0	0.211	108.683	3	10	Target	Neutral	True
109.683	0.3	Control	1.0	0.002	Yes	3.276	-0.002	2.0	GoodResponse	0	0.211	n/a	3	10	ButtonPress	Neutral	True
109.772	0.4	Control	1.0	n/a	Yes	3.276	n/a	n/a	GoodResponse	0	n/a	n/a	3	10	Blank	Neutral	True
110.172	1.45	Control	1.0	n/a	Yes	3.276	n/a	5.0	GoodResponse	0	0.0	109.172	3	10	Feedback	Neutral	True
111.621	3.276	Control	1.0	n/a	Yes	3.276	n/a	n/a	GoodResponse	0	0.0	n/a	3	10	ISIslide	Neutral	True
114.92	0.25	Lose2	1.0	0.0	Yes	2.73	0.02	n/a	GoodResponse	0	n/a	n/a	3	11	Cue	AvoidedLoss	True
115.17	4.05	Lose2	1.0	0.0	Yes	2.73	0.0	n/a	GoodResponse	0	n/a	n/a	3	11	Fixation	AvoidedLoss	True
119.219	0.29	Lose2	1.0	0.001	Yes	2.73	-0.001	2.0	GoodResponse	0	0.215	118.434	3	11	Target	AvoidedLoss	True
119.434	0.3	Lose2	1.0	0.001	Yes	2.73	-0.001	2.0	GoodResponse	0	0.215	n/a	3	11	ButtonPress	AvoidedLoss	True
119.519	0.41	Lose2	1.0	n/a	Yes	2.73	n/a	n/a	GoodResponse	0	n/a	n/a	3	11	Blank	AvoidedLoss	True
119.918	1.45	Lose2	1.0	n/a	Yes	2.73	n/a	5.0	GoodResponse	0	0.01	118.928	3	11	Feedback	AvoidedLoss	True
121.368	2.73	Lose2	1.0	n/a	Yes	2.73	n/a	n/a	GoodResponse	0	0.0	n/a	3	11	ISIslide	AvoidedLoss	True
124.117	0.25	Control	1.0	0.0	Yes	2.983	0.017	n/a	GoodResponse	0	n/a	n/a	3	12	Cue	Neutral	True
124.367	3.9	Control	1.0	0.0	Yes	2.983	0.0	n/a	GoodResponse	0	n/a	n/a	3	12	Fixation	Neutral	True
128.265	0.28	Control	1.0	0.002	Yes	2.983	-0.002	2.0	GoodResponse	0	0.211	127.476	3	12	Target	Neutral	True
128.476	0.3	Control	1.0	0.002	Yes	2.983	-0.002	2.0	GoodResponse	0	0.211	n/a	3	12	ButtonPress	Neutral	True
128.549	0.42	Control	1.0	n/a	Yes	2.983	n/a	n/a	GoodResponse	0	n/a	n/a	3	12	Blank	Neutral	True
128.965	1.45	Control	1.0	n/a	Yes	2.983	n/a	5.0	GoodResponse	0	0.036	128.001	3	12	Feedback	Neutral	True
130.415	2.983	Control	1.0	n/a	Yes	2.983	n/a	n/a	GoodResponse	0	0.0	n/a	3	12	ISIslide	Neutral	True
133.414	0.25	Control	1.0	0.0	Yes	2.786	0.014	n/a	GoodResponse	0	n/a	n/a	3	13	Cue	Neutral	True
133.664	4.0	Control	1.0	0.0	Yes	2.786	0.0	n/a	GoodResponse	0	n/a	n/a	3	13	Fixation	Neutral	True
137.662	0.27	Control	1.0	0.002	Yes	2.786	-0.002	2.0	GoodResponse	0	0.218	136.88	3	13	Target	Neutral	True
137.88	0.3	Control	1.0	0.002	Yes	2.786	-0.002	2.0	GoodResponse	0	0.218	n/a	3	13	ButtonPress	Neutral	True
137.945	0.43	Control	1.0	n/a	Yes	2.786	n/a	n/a	GoodResponse	0	n/a	n/a	3	13	Blank	Neutral	True
138.362	1.45	Control	1.0	n/a	Yes	2.786	n/a	5.0	GoodResponse	0	0.005	137.367	3	13	Feedback	Neutral	True
139.811	2.786	Control	1.0	n/a	Yes	2.786	n/a	n/a	GoodResponse	0	0.0	n/a	3	13	ISIslide	Neutral	True
142.627	0.25	Win2	1.0	0.0	Yes	2.673	0.027	n/a	GoodResponse	1	n/a	n/a	4	14	Cue	Win	True
142.877	4.1	Win2	1.0	0.0	Yes	2.673	0.0	n/a	GoodResponse	1	n/a	n/a	4	14	Fixation	Win	True
146.976	0.26	Win2	1.0	0.001	Yes	2.673	-0.001	2.0	GoodResponse	1	0.204	146.18	4	14	Target	Win	True
147.18	0.3	Win2	1.0	0.001	Yes	2.673	-0.001	2.0	GoodResponse	1	0.204	n/a	4	14	ButtonPress	Win	True
147.242	0.44	Win2	1.0	n/a	Yes	2.673	n/a	n/a	GoodResponse	1	n/a	n/a	4	14	Blank	Win	True
147.675	1.45	Win2	1.0	n/a	Yes	2.673	n/a	5.0	GoodResponse	1	0.009	146.684	4	14	Feedback	Win	True
149.125	2.673	Win2	1.0	n/a	Yes	2.673	n/a	n/a	GoodResponse	1	0.0	n/a	4	14	ISIslide	Win	True
151.824	0.25	Control	1.0	0.0	Yes	2.976	0.024	n/a	GoodResponse	0	n/a	n/a	4	15	Cue	Neutral	True
152.074	4.0	Control	1.0	0.0	Yes	2.976	0.0	n/a	GoodResponse	0	n/a	n/a	4	15	Fixation	Neutral	True
156.072	0.25	Control	1.0	0.002	Yes	2.976	-0.002	2.0	GoodResponse	0	0.188	155.26	4	15	Target	Neutral	True
156.26	0.3	Control	1.0	0.002	Yes	2.976	-0.002	2.0	GoodResponse	0	0.188	n/a	4	15	ButtonPress	Neutral	True
156.322	0.45	Control	1.0	n/a	Yes	2.976	n/a	n/a	GoodResponse	0	n/a	n/a	4	15	Blank	Neutral	True
156.772	1.45	Control	1.0	n/a	Yes	2.976	n/a	5.0	GoodResponse	0	0.034	155.806	4	15	Feedback	Neutral	True
158.222	2.976	Control	1.0	n/a	Yes	2.976	n/a	n/a	GoodResponse	0	0.0	n/a	4	15	ISIslide	Neutral	True
161.221	0.25	Win2	1.0	0.0	Yes	2.879	0.021	n/a	GoodResponse	1	n/a	n/a	5	16	Cue	Win	True
161.47	4.0	Win2	1.0	0.001	Yes	2.879	-0.001	n/a	GoodResponse	1	n/a	n/a	5	16	Fixation	Win	True
165.469	0.24	Win2	1.0	0.002	Yes	2.879	-0.002	2.0	GoodResponse	1	0.202	164.671	5	16	Target	Win	True
165.671	0.3	Win2	1.0	0.002	Yes	2.879	-0.002	2.0	GoodResponse	1	0.202	n/a	5	16	ButtonPress	Win	True
165.719	0.46	Win2	1.0	n/a	Yes	2.879	n/a	n/a	GoodResponse	1	n/a	n/a	5	16	Blank	Win	True
166.169	1.45	Win2	1.0	n/a	Yes	2.879	n/a	5.0	GoodResponse	1	0.005	165.174	5	16	Feedback	Win	True
167.618	2.879	Win2	1.0	n/a	Yes	2.879	n/a	n/a	GoodResponse	1	0.0	n/a	5	16	ISIslide	Win	True
170.517	0.25	Lose2	0.9444	0.0	No	2.733	0.017	n/a	NoResponse	-1	n/a	n/a	4	17	Cue	Loss	True
170.767	3.95	Lose2	0.9444	0.0	No	2.733	0.0	n/a	NoResponse	-1	n/a	n/a	4	17	Fixation	Loss	True
174.716	0.23	Lose2	0.9444	0.001	No	2.733	-0.001	2.0	NoResponse	-1	0.25	173.966	4	17	Target	Loss	True
174.949	0.47	Lose2	0.9444	n/a	No	2.733	n/a	n/a	NoResponse	-1	n/a	n/a	4	17	Blank	Loss	True
174.966	0.3	Lose2	0.9444	0.001	No	2.733	-0.001	2.0	NoResponse	-1	0.25	n/a	4	17	ButtonPress	Loss	True
175.416	1.45	Lose2	0.9444	n/a	No	2.733	n/a	5.0	NoResponse	-1	0.023	174.439	4	17	Feedback	Loss	True
176.865	2.733	Lose2	0.9444	n/a	No	2.733	n/a	n/a	NoResponse	-1	0.0	n/a	4	17	ISIslide	Loss	True
179.614	0.25	Lose2	0.9473999999999999	0.0	Yes	2.736	0.014	n/a	GoodResponse	0	n/a	n/a	4	18	Cue	AvoidedLoss	True
179.864	4.05	Lose2	0.9473999999999999	0.0	Yes	2.736	0.0	n/a	GoodResponse	0	n/a	n/a	4	18	Fixation	AvoidedLoss	True
183.913	0.22	Lose2	0.9473999999999999	0.001	Yes	2.736	-0.001	2.0	GoodResponse	0	0.195	183.108	4	18	Target	AvoidedLoss	True
184.108	0.3	Lose2	0.9473999999999999	0.001	Yes	2.736	-0.001	2.0	GoodResponse	0	0.195	n/a	4	18	ButtonPress	AvoidedLoss	True
184.146	0.48	Lose2	0.9473999999999999	n/a	Yes	2.736	n/a	n/a	GoodResponse	0	n/a	n/a	4	18	Blank	AvoidedLoss	True
184.612	1.45	Lose2	0.9473999999999999	n/a	Yes	2.736	n/a	5.0	GoodResponse	0	0.047	183.659	4	18	Feedback	AvoidedLoss	True
186.062	2.736	Lose2	0.9473999999999999	n/a	Yes	2.736	n/a	n/a	GoodResponse	0	0.0	n/a	4	18	ISIslide	AvoidedLoss	True
188.827	0.25	Control	0.95	0.001	Yes	2.923	0.027	n/a	GoodResponse	0	n/a	n/a	4	19	Cue	Neutral	True
189.077	3.95	Control	0.95	0.0	Yes	2.923	0.0	n/a	GoodResponse	0	n/a	n/a	4	19	Fixation	Neutral	True
193.026	0.21	Control	0.95	0.001	Yes	2.923	-0.001	2.0	GoodResponse	0	0.208	192.234	4	19	Target	Neutral	True
193.234	0.3	Control	0.95	0.001	Yes	2.923	-0.001	2.0	GoodResponse	0	0.208	n/a	4	19	ButtonPress	Neutral	True
193.243	0.49	Control	0.95	n/a	Yes	2.923	n/a	n/a	GoodResponse	0	n/a	n/a	4	19	Blank	Neutral	True
193.726	1.45	Control	0.95	n/a	Yes	2.923	n/a	5.0	GoodResponse	0	0.006	192.732	4	19	Feedback	Neutral	True
195.175	2.923	Control	0.95	n/a	Yes	2.923	n/a	n/a	GoodResponse	0	0.0	n/a	4	19	ISIslide	Neutral	True
198.124	0.25	Control	0.9048	0.0	No	2.626	0.024	n/a	NoResponse	0	n/a	n/a	4	20	Cue	Neutral	True
198.374	4.05	Control	0.9048	0.0	No	2.626	0.0	n/a	NoResponse	0	n/a	n/a	4	20	Fixation	Neutral	True
202.423	0.2	Control	0.9048	0.001	No	2.626	-0.001	2.0	NoResponse	0	0.225	201.648	4	20	Target	Neutral	True
202.623	0.5	Control	0.9048	n/a	No	2.626	n/a	n/a	NoResponse	0	n/a	n/a	4	20	Blank	Neutral	True
202.648	0.3	Control	0.9048	0.001	No	2.626	-0.001	2.0	NoResponse	0	0.225	n/a	4	20	ButtonPress	Neutral	True
203.122	1.45	Control	0.9048	n/a	No	2.626	n/a	5.0	NoResponse	0	0.025	202.147	4	20	Feedback	Neutral	True
204.572	2.626	Control	0.9048	n/a	No	2.626	n/a	n/a	NoResponse	0	0.0	n/a	4	20	ISIslide	Neutral	True
207.221	0.25	Control	0.8636	0.0	No	2.779	0.021	n/a	NoResponse	0	n/a	n/a	4	21	Cue	Neutral	True
207.471	4.1	Control	0.8636	0.0	No	2.779	0.0	n/a	NoResponse	0	n/a	n/a	4	21	Fixation	Neutral	True
211.569	0.19	Control	0.8636	0.002	No	2.779	-0.002	2.0	NoResponse	0	0.207	210.776	4	21	Target	Neutral	True
211.769	0.51	Control	0.8636	n/a	No	2.779	n/a	n/a	NoResponse	0	n/a	n/a	4	21	Blank	Neutral	True
211.776	0.3	Control	0.8636	0.002	No	2.779	-0.002	2.0	NoResponse	0	0.207	n/a	4	21	ButtonPress	Neutral	True
212.269	1.45	Control	0.8636	n/a	No	2.779	n/a	5.0	NoResponse	0	0.048	211.317	4	21	Feedback	Neutral	True
213.719	2.779	Control	0.8636	n/a	No	2.779	n/a	n/a	NoResponse	0	0.0	n/a	4	21	ISIslide	Neutral	True
216.518	0.25	Control	0.8261	0.0	No	2.782	0.018	n/a	NoResponse	0	n/a	n/a	4	22	Cue	Neutral	True
216.768	4.0	Control	0.8261	0.0	No	2.782	0.0	n/a	NoResponse	0	n/a	n/a	4	22	Fixation	Neutral	True
220.766	0.18	Control	0.8261	0.002	No	2.782	-0.002	2.0	NoResponse	0	0.219	219.985	4	22	Target	Neutral	True
220.949	0.52	Control	0.8261	n/a	No	2.782	n/a	n/a	NoResponse	0	n/a	n/a	4	22	Blank	Neutral	True
220.985	0.3	Control	0.8261	0.002	No	2.782	-0.002	2.0	NoResponse	0	0.219	n/a	4	22	ButtonPress	Neutral	True
221.466	1.45	Control	0.8261	n/a	No	2.782	n/a	5.0	NoResponse	0	0.022	220.488	4	22	Feedback	Neutral	True
222.915	2.782	Control	0.8261	n/a	No	2.782	n/a	n/a	NoResponse	0	0.0	n/a	4	22	ISIslide	Neutral	True
225.714	0.25	Control	0.7917000000000001	0.001	No	2.786	0.014	n/a	NoResponse	0	n/a	n/a	4	23	Cue	Neutral	True
225.964	3.9	Control	0.7917000000000001	0.0	No	2.786	0.0	n/a	NoResponse	0	n/a	n/a	4	23	Fixation	Neutral	True
229.863	0.17	Control	0.7917000000000001	0.001	No	2.786	-0.001	2.0	NoResponse	0	0.284	229.147	4	23	Target	Neutral	True
230.03	0.53	Control	0.7917000000000001	n/a	No	2.786	n/a	n/a	NoResponse	0	n/a	n/a	4	23	Blank	Neutral	True
230.147	0.3	Control	0.7917000000000001	0.001	No	2.786	-0.001	2.0	NoResponse	0	0.284	n/a	4	23	ButtonPress	Neutral	True
230.563	1.45	Control	0.7917000000000001	n/a	No	2.786	n/a	5.0	NoResponse	0	0.047	229.61	4	23	Feedback	Neutral	True
232.012	2.786	Control	0.7917000000000001	n/a	No	2.786	n/a	n/a	NoResponse	0	0.0	n/a	4	23	ISIslide	Neutral	True
234.828	0.25	Win2	0.76	0.0	No	3.122	0.028	n/a	NoResponse	0	n/a	n/a	4	24	Cue	MissedWin	True
235.078	3.95	Win2	0.76	0.0	No	3.122	0.0	n/a	NoResponse	0	n/a	n/a	4	24	Fixation	MissedWin	True
239.026	0.16	Win2	0.76	0.002	No	3.122	-0.002	2.0	NoResponse	0	0.193	238.219	4	24	Target	MissedWin	True
239.193	0.54	Win2	0.76	n/a	No	3.122	n/a	n/a	NoResponse	0	n/a	n/a	4	24	Blank	MissedWin	True
239.219	0.3	Win2	0.76	0.002	No	3.122	-0.002	2.0	NoResponse	0	0.193	n/a	4	24	ButtonPress	MissedWin	True
239.726	1.45	Win2	0.76	n/a	No	3.122	n/a	5.0	NoResponse	0	0.006	238.732	4	24	Feedback	MissedWin	True
241.176	3.122	Win2	0.76	n/a	No	3.122	n/a	n/a	NoResponse	0	0.0	n/a	4	24	ISIslide	MissedWin	True
244.325	0.25	Win2	0.7308	0.0	No	3.075	0.025	n/a	NoResponse	0	n/a	n/a	4	25	Cue	MissedWin	False
244.575	4.0	Win2	0.7308	0.0	No	3.075	0.0	2.0	NoResponse	0	3.393	246.968	4	25	Fixation	MissedWin	False
247.968	0.3	Win2	0.7308	0.0	No	3.075	0.0	2.0	NoResponse	0	3.393	n/a	4	25	ButtonPress	MissedWin	False
248.573	0.15	Win2	0.7308	0.002	No	3.075	-0.002	2.0	NoResponse	0	0.203	247.776	4	25	Target	MissedWin	False
248.723	0.55	Win2	0.7308	n/a	No	3.075	n/a	n/a	NoResponse	0	n/a	n/a	4	25	Blank	MissedWin	False
248.776	0.3	Win2	0.7308	0.002	No	3.075	-0.002	2.0	NoResponse	0	0.203	n/a	4	25	ButtonPress	MissedWin	False
249.273	1.45	Win2	0.7308	n/a	No	3.075	n/a	5.0	NoResponse	0	0.02	248.293	4	25	Feedback	MissedWin	False
250.722	3.075	Win2	0.7308	n/a	No	3.075	n/a	n/a	NoResponse	0	0.0	n/a	4	25	ISIslide	MissedWin	False
253.821	0.25	Win2	0.7037	0.0	No	2.929	0.021	n/a	NoResponse	0	n/a	n/a	4	26	Cue	MissedWin	True
254.071	3.95	Win2	0.7037	0.0	No	2.929	0.0	n/a	NoResponse	0	n/a	n/a	4	26	Fixation	MissedWin	True
258.02	0.15	Win2	0.7037	0.001	No	2.929	-0.001	2.0	NoResponse	0	0.22	257.24	4	26	Target	MissedWin	True
258.17	0.55	Win2	0.7037	n/a	No	2.929	n/a	n/a	NoResponse	0	n/a	n/a	4	26	Blank	MissedWin	True
258.24	0.3	Win2	0.7037	0.001	No	2.929	-0.001	2.0	NoResponse	0	0.22	n/a	4	26	ButtonPress	MissedWin	True
258.72	1.45	Win2	0.7037	n/a	No	2.929	n/a	5.0	NoResponse	0	0.035	257.755	4	26	Feedback	MissedWin	True
260.169	2.929	Win2	0.7037	n/a	No	2.929	n/a	n/a	NoResponse	0	0.0	n/a	4	26	ISIslide	MissedWin	True
263.118	0.25	Lose2	0.6786	0.0	No	2.832	0.018	n/a	NoResponse	-1	n/a	n/a	3	27	Cue	Loss	True
263.368	4.05	Lose2	0.6786	0.0	No	2.832	0.0	n/a	NoResponse	-1	n/a	n/a	3	27	Fixation	Loss	True
267.416	0.15	Lose2	0.6786	0.002	No	2.832	-0.002	2.0	NoResponse	-1	0.2	266.616	3	27	Target	Loss	True
267.566	0.55	Lose2	0.6786	n/a	No	2.832	n/a	n/a	NoResponse	-1	n/a	n/a	3	27	Blank	Loss	True
267.616	0.3	Lose2	0.6786	0.002	No	2.832	-0.002	2.0	NoResponse	-1	0.2	n/a	3	27	ButtonPress	Loss	True
268.116	1.45	Lose2	0.6786	n/a	No	2.832	n/a	5.0	NoResponse	-1	0.006	267.122	3	27	Feedback	Loss	True
269.566	2.832	Lose2	0.6786	n/a	No	2.832	n/a	n/a	NoResponse	-1	0.0	n/a	3	27	ISIslide	Loss	True
272.415	0.25	Control	0.6552	0.0	No	2.835	0.015	n/a	NoResponse	0	n/a	n/a	3	28	Cue	Neutral	True
272.665	4.05	Control	0.6552	0.0	No	2.835	0.0	n/a	NoResponse	0	n/a	n/a	3	28	Fixation	Neutral	True
276.713	0.15	Control	0.6552	0.002	No	2.835	-0.002	2.0	NoResponse	0	0.243	275.956	3	28	Target	Neutral	True
276.863	0.55	Control	0.6552	n/a	No	2.835	n/a	n/a	NoResponse	0	n/a	n/a	3	28	Blank	Neutral	True
276.956	0.3	Control	0.6552	0.002	No	2.835	-0.002	2.0	NoResponse	0	0.243	n/a	3	28	ButtonPress	Neutral	True
277.413	1.45	Control	0.6552	n/a	No	2.835	n/a	5.0	NoResponse	0	0.025	276.438	3	28	Feedback	Neutral	True
278.862	2.835	Control	0.6552	n/a	No	2.835	n/a	n/a	NoResponse	0	0.0	n/a	3	28	ISIslide	Neutral	True
281.728	0.25	Lose2	0.6333	0.0	No	2.822	0.028	n/a	NoResponse	-1	n/a	n/a	2	29	Cue	Loss	True
281.978	3.95	Lose2	0.6333	0.0	No	2.822	0.0	n/a	NoResponse	-1	n/a	n/a	2	29	Fixation	Loss	True
285.927	0.15	Lose2	0.6333	0.001	No	2.822	-0.001	2.0	NoResponse	-1	0.196	285.123	2	29	Target	Loss	True
286.077	0.55	Lose2	0.6333	n/a	No	2.822	n/a	n/a	NoResponse	-1	n/a	n/a	2	29	Blank	Loss	True
286.123	0.3	Lose2	0.6333	0.001	No	2.822	-0.001	2.0	NoResponse	-1	0.196	n/a	2	29	ButtonPress	Loss	True
286.626	1.45	Lose2	0.6333	n/a	No	2.822	n/a	5.0	NoResponse	-1	0.032	285.658	2	29	Feedback	Loss	True
288.076	2.822	Lose2	0.6333	n/a	No	2.822	n/a	n/a	NoResponse	-1	0.0	n/a	2	29	ISIslide	Loss	True
290.925	0.25	Win2	0.6129	0.0	No	2.775	0.025	n/a	NoResponse	0	n/a	n/a	2	30	Cue	MissedWin	True
291.175	3.9	Win2	0.6129	0.0	No	2.775	0.0	n/a	NoResponse	0	n/a	n/a	2	30	Fixation	MissedWin	True
295.073	0.16	Win2	0.6129	0.002	No	2.775	-0.002	2.0	NoResponse	0	0.181	294.254	2	30	Target	MissedWin	True
295.24	0.54	Win2	0.6129	n/a	No	2.775	n/a	n/a	NoResponse	0	n/a	n/a	2	30	Blank	MissedWin	True
295.254	0.3	Win2	0.6129	0.002	No	2.775	-0.002	2.0	NoResponse	0	0.181	n/a	2	30	ButtonPress	MissedWin	True
295.773	1.45	Win2	0.6129	n/a	No	2.775	n/a	5.0	NoResponse	0	0.007	294.78	2	30	Feedback	MissedWin	True
297.223	2.775	Win2	0.6129	n/a	No	2.775	n/a	n/a	NoResponse	0	0.0	n/a	2	30	ISIslide	MissedWin	True
300.022	0.25	Lose2	0.5938	0.0	No	2.828	0.022	n/a	NoResponse	-1	n/a	n/a	1	31	Cue	Loss	True
300.272	4.05	Lose2	0.5938	0.0	No	2.828	0.0	2.0	NoResponse	-1	4.031	303.303	1	31	Fixation	Loss	True
304.303	0.3	Lose2	0.5938	0.0	No	2.828	0.0	2.0	NoResponse	-1	4.031	n/a	1	31	ButtonPress	Loss	True
304.32	0.17	Lose2	0.5938	0.002	No	2.828	-0.002	n/a	NoResponse	-1	n/a	n/a	1	31	Target	Loss	True
304.503	0.53	Lose2	0.5938	n/a	No	2.828	n/a	n/a	NoResponse	-1	n/a	n/a	1	31	Blank	Loss	True
305.02	1.45	Lose2	0.5938	n/a	No	2.828	n/a	5.0	NoResponse	-1	0.028	304.048	1	31	Feedback	Loss	True
306.469	2.828	Lose2	0.5938	n/a	No	2.828	n/a	n/a	NoResponse	-1	0.0	n/a	1	31	ISIslide	Loss	True
309.318	0.25	Lose2	0.5758	0.0	No	2.632	0.018	n/a	NoResponse	-1	n/a	n/a	0	32	Cue	Loss	True
309.568	4.15	Lose2	0.5758	0.0	No	2.632	0.0	n/a	NoResponse	-1	n/a	n/a	0	32	Fixation	Loss	True
313.717	0.18	Lose2	0.5758	0.001	No	2.632	-0.001	2.0	NoResponse	-1	0.207	312.924	0	32	Target	Loss	True
313.9	0.52	Lose2	0.5758	n/a	No	2.632	n/a	n/a	NoResponse	-1	n/a	n/a	0	32	Blank	Loss	True
313.924	0.3	Lose2	0.5758	0.001	No	2.632	-0.001	2.0	NoResponse	-1	0.207	n/a	0	32	ButtonPress	Loss	True
314.417	1.45	Lose2	0.5758	n/a	No	2.632	n/a	5.0	NoResponse	-1	0.0	313.417	0	32	Feedback	Loss	True
315.866	2.632	Lose2	0.5758	n/a	No	2.632	n/a	n/a	NoResponse	-1	0.0	n/a	0	32	ISIslide	Loss	True
318.515	0.25	Win2	0.5588000000000001	0.0	No	2.685	0.015	n/a	NoResponse	0	n/a	n/a	0	33	Cue	MissedWin	True
318.765	4.0	Win2	0.5588000000000001	0.0	No	2.685	0.0	n/a	NoResponse	0	n/a	n/a	0	33	Fixation	MissedWin	True
322.764	0.19	Win2	0.5588000000000001	0.001	No	2.685	-0.001	2.0	NoResponse	0	0.217	321.981	0	33	Target	MissedWin	True
322.964	0.51	Win2	0.5588000000000001	n/a	No	2.685	n/a	n/a	NoResponse	0	n/a	n/a	0	33	Blank	MissedWin	True
322.981	0.3	Win2	0.5588000000000001	0.001	No	2.685	-0.001	2.0	NoResponse	0	0.217	n/a	0	33	ButtonPress	MissedWin	True
323.463	1.45	Win2	0.5588000000000001	n/a	No	2.685	n/a	5.0	NoResponse	0	0.024	322.487	0	33	Feedback	MissedWin	True
324.913	2.685	Win2	0.5588000000000001	n/a	No	2.685	n/a	n/a	NoResponse	0	0.0	n/a	0	33	ISIslide	MissedWin	True
327.629	0.25	Lose2	0.5714	0.0	Yes	2.621	0.029	n/a	GoodResponse	0	n/a	n/a	0	34	Cue	AvoidedLoss	True
327.878	4.05	Lose2	0.5714	0.001	Yes	2.621	-0.001	n/a	GoodResponse	0	n/a	n/a	0	34	Fixation	AvoidedLoss	True
331.927	0.2	Lose2	0.5714	0.002	Yes	2.621	-0.002	2.0	GoodResponse	0	0.181	331.108	0	34	Target	AvoidedLoss	True
332.108	0.3	Lose2	0.5714	0.002	Yes	2.621	-0.002	2.0	GoodResponse	0	0.181	n/a	0	34	ButtonPress	AvoidedLoss	True
332.127	0.5	Lose2	0.5714	n/a	Yes	2.621	n/a	n/a	GoodResponse	0	n/a	n/a	0	34	Blank	AvoidedLoss	True
332.627	1.45	Lose2	0.5714	n/a	Yes	2.621	n/a	5.0	GoodResponse	0	0.031	331.658	0	34	Feedback	AvoidedLoss	True
334.076	2.621	Lose2	0.5714	n/a	Yes	2.621	n/a	n/a	GoodResponse	0	0.0	n/a	0	34	ISIslide	AvoidedLoss	True
336.725	0.25	Lose2	0.5832999999999999	0.001	Yes	2.675	0.025	n/a	GoodResponse	0	n/a	n/a	0	35	Cue	AvoidedLoss	True
336.975	4.0	Lose2	0.5832999999999999	0.0	Yes	2.675	0.0	n/a	GoodResponse	0	n/a	n/a	0	35	Fixation	AvoidedLoss	True
340.974	0.21	Lose2	0.5832999999999999	0.001	Yes	2.675	-0.001	2.0	GoodResponse	0	0.192	340.166	0	35	Target	AvoidedLoss	True
341.166	0.3	Lose2	0.5832999999999999	0.001	Yes	2.675	-0.001	2.0	GoodResponse	0	0.192	n/a	0	35	ButtonPress	AvoidedLoss	True
341.19	0.49	Lose2	0.5832999999999999	n/a	Yes	2.675	n/a	n/a	GoodResponse	0	n/a	n/a	0	35	Blank	AvoidedLoss	True
341.674	1.45	Lose2	0.5832999999999999	n/a	Yes	2.675	n/a	5.0	GoodResponse	0	0.007	340.681	0	35	Feedback	AvoidedLoss	True
343.123	2.675	Lose2	0.5832999999999999	n/a	Yes	2.675	n/a	n/a	GoodResponse	0	0.0	n/a	0	35	ISIslide	AvoidedLoss	True
345.822	0.25	Control	0.5946	0.0	Yes	2.678	0.022	n/a	GoodResponse	0	n/a	n/a	0	36	Cue	Neutral	True
346.072	4.0	Control	0.5946	0.0	Yes	2.678	0.0	n/a	GoodResponse	0	n/a	n/a	0	36	Fixation	Neutral	True
350.071	0.22	Control	0.5946	0.001	Yes	2.678	-0.001	2.0	GoodResponse	0	0.208	349.279	0	36	Target	Neutral	True
350.279	0.3	Control	0.5946	0.001	Yes	2.678	-0.001	2.0	GoodResponse	0	0.208	n/a	0	36	ButtonPress	Neutral	True
350.304	0.48	Control	0.5946	n/a	Yes	2.678	n/a	n/a	GoodResponse	0	n/a	n/a	0	36	Blank	Neutral	True
350.77	1.45	Control	0.5946	n/a	Yes	2.678	n/a	5.0	GoodResponse	0	0.033	349.803	0	36	Feedback	Neutral	True
352.22	2.678	Control	0.5946	n/a	Yes	2.678	n/a	n/a	GoodResponse	0	0.0	n/a	0	36	ISIslide	Neutral	True
354.919	0.25	Win2	0.6053000000000001	0.0	Yes	2.881	0.019	n/a	GoodResponse	1	n/a	n/a	1	37	Cue	Win	True
355.169	4.0	Win2	0.6053000000000001	0.0	Yes	2.881	0.0	n/a	GoodResponse	1	n/a	n/a	1	37	Fixation	Win	True
359.167	0.23	Win2	0.6053000000000001	0.002	Yes	2.881	-0.002	2.0	GoodResponse	1	0.213	358.38	1	37	Target	Win	True
359.38	0.3	Win2	0.6053000000000001	0.002	Yes	2.881	-0.002	2.0	GoodResponse	1	0.213	n/a	1	37	ButtonPress	Win	True
359.401	0.47	Win2	0.6053000000000001	n/a	Yes	2.881	n/a	n/a	GoodResponse	1	n/a	n/a	1	37	Blank	Win	True
359.867	1.45	Win2	0.6053000000000001	n/a	Yes	2.881	n/a	5.0	GoodResponse	1	0.01	358.877	1	37	Feedback	Win	True
361.317	2.881	Win2	0.6053000000000001	n/a	Yes	2.881	n/a	n/a	GoodResponse	1	0.0	n/a	1	37	ISIslide	Win	True
364.216	0.25	Lose2	0.6154	0.0	Yes	2.834	0.016	n/a	GoodResponse	0	n/a	n/a	1	38	Cue	AvoidedLoss	True
364.466	3.95	Lose2	0.6154	0.0	Yes	2.834	0.0	n/a	GoodResponse	0	n/a	n/a	1	38	Fixation	AvoidedLoss	True
368.414	0.24	Lose2	0.6154	0.002	Yes	2.834	-0.002	2.0	GoodResponse	0	0.201	367.615	1	38	Target	AvoidedLoss	True
368.615	0.3	Lose2	0.6154	0.002	Yes	2.834	-0.002	2.0	GoodResponse	0	0.201	n/a	1	38	ButtonPress	AvoidedLoss	True
368.664	0.46	Lose2	0.6154	n/a	Yes	2.834	n/a	n/a	GoodResponse	0	n/a	n/a	1	38	Blank	AvoidedLoss	True
369.114	1.45	Lose2	0.6154	n/a	Yes	2.834	n/a	5.0	GoodResponse	0	0.031	368.145	1	38	Feedback	AvoidedLoss	True
370.563	2.834	Lose2	0.6154	n/a	Yes	2.834	n/a	n/a	GoodResponse	0	0.0	n/a	1	38	ISIslide	AvoidedLoss	True
373.412	0.25	Win2	0.625	0.001	Yes	2.988	0.012	n/a	GoodResponse	1	n/a	n/a	2	39	Cue	Win	True
373.662	4.1	Win2	0.625	0.0	Yes	2.988	0.0	n/a	GoodResponse	1	n/a	n/a	2	39	Fixation	Win	True
377.761	0.25	Win2	0.625	0.001	Yes	2.988	-0.001	2.0	GoodResponse	1	0.234	376.995	2	39	Target	Win	True
377.995	0.3	Win2	0.625	0.001	Yes	2.988	-0.001	2.0	GoodResponse	1	0.234	n/a	2	39	ButtonPress	Win	True
378.011	0.45	Win2	0.625	n/a	Yes	2.988	n/a	n/a	GoodResponse	1	n/a	n/a	2	39	Blank	Win	True
378.461	1.45	Win2	0.625	n/a	Yes	2.988	n/a	5.0	GoodResponse	1	0.001	377.462	2	39	Feedback	Win	True
379.91	2.988	Win2	0.625	n/a	Yes	2.988	n/a	n/a	GoodResponse	1	0.0	n/a	2	39	ISIslide	Win	True
382.926	0.25	Win2	0.6341	0.0	Yes	2.724	0.026	n/a	GoodResponse	1	n/a	n/a	3	40	Cue	Win	True
383.176	3.95	Win2	0.6341	0.0	Yes	2.724	0.0	n/a	GoodResponse	1	n/a	n/a	3	40	Fixation	Win	True
387.124	0.26	Win2	0.6341	0.002	Yes	2.724	-0.002	2.0	GoodResponse	1	0.201	386.325	3	40	Target	Win	True
387.325	0.3	Win2	0.6341	0.002	Yes	2.724	-0.002	2.0	GoodResponse	1	0.201	n/a	3	40	ButtonPress	Win	True
387.391	0.44	Win2	0.6341	n/a	Yes	2.724	n/a	n/a	GoodResponse	1	n/a	n/a	3	40	Blank	Win	True
387.824	1.45	Win2	0.6341	n/a	Yes	2.724	n/a	5.0	GoodResponse	1	0.006	386.83	3	40	Feedback	Win	True
389.274	2.724	Win2	0.6341	n/a	Yes	2.724	n/a	n/a	GoodResponse	1	0.0	n/a	3	40	ISIslide	Win	True
392.023	0.25	Win2	0.6429	0.0	Yes	2.777	0.023	n/a	GoodResponse	1	n/a	n/a	4	41	Cue	Win	True
392.272	3.9	Win2	0.6429	0.001	Yes	2.777	-0.001	n/a	GoodResponse	1	n/a	n/a	4	41	Fixation	Win	True
396.171	0.27	Win2	0.6429	0.002	Yes	2.777	-0.002	2.0	GoodResponse	1	0.196	395.367	4	41	Target	Win	True
396.367	0.3	Win2	0.6429	0.002	Yes	2.777	-0.002	2.0	GoodResponse	1	0.196	n/a	4	41	ButtonPress	Win	True
396.454	0.43	Win2	0.6429	n/a	Yes	2.777	n/a	n/a	GoodResponse	1	n/a	n/a	4	41	Blank	Win	True
396.871	1.45	Win2	0.6429	n/a	Yes	2.777	n/a	5.0	GoodResponse	1	0.029	395.9	4	41	Feedback	Win	True
398.32	2.777	Win2	0.6429	n/a	Yes	2.777	n/a	n/a	GoodResponse	1	0.0	n/a	4	41	ISIslide	Win	True
401.119	0.25	Control	0.6279	0.0	No	2.931	0.019	n/a	LatePress	0	n/a	n/a	4	42	Cue	Neutral	True
401.369	3.85	Control	0.6279	0.0	No	2.931	0.0	n/a	LatePress	0	n/a	n/a	4	42	Fixation	Neutral	True
405.218	0.28	Control	0.6279	0.001	No	2.931	-0.001	2.0	LatePress	0	0.28	404.498	4	42	Target	Neutral	True
405.498	0.3	Control	0.6279	0.001	No	2.931	-0.001	2.0	LatePress	0	0.28	n/a	4	42	ButtonPress	Neutral	True
405.501	0.42	Control	0.6279	n/a	No	2.931	n/a	n/a	LatePress	0	n/a	n/a	4	42	Blank	Neutral	True
405.918	1.45	Control	0.6279	n/a	No	2.931	n/a	5.0	LatePress	0	0.007	404.925	4	42	Feedback	Neutral	True
407.367	2.931	Control	0.6279	n/a	No	2.931	n/a	n/a	LatePress	0	0.0	n/a	4	42	ISIslide	Neutral	True
410.316	0.25	Win2	0.6364	0.0	Yes	3.184	0.016	n/a	GoodResponse	1	n/a	n/a	5	43	Cue	Win	True
410.566	4.0	Win2	0.6364	0.0	Yes	3.184	0.0	n/a	GoodResponse	1	n/a	n/a	5	43	Fixation	Win	True
414.565	0.29	Win2	0.6364	0.001	Yes	3.184	-0.001	2.0	GoodResponse	1	0.214	413.779	5	43	Target	Win	True
414.779	0.3	Win2	0.6364	0.001	Yes	3.184	-0.001	2.0	GoodResponse	1	0.214	n/a	5	43	ButtonPress	Win	True
414.865	0.41	Win2	0.6364	n/a	Yes	3.184	n/a	n/a	GoodResponse	1	n/a	n/a	5	43	Blank	Win	True
415.264	1.45	Win2	0.6364	n/a	Yes	3.184	n/a	5.0	GoodResponse	1	0.027	414.291	5	43	Feedback	Win	True
416.714	3.184	Win2	0.6364	n/a	Yes	3.184	n/a	n/a	GoodResponse	1	0.0	n/a	5	43	ISIslide	Win	True
419.929	0.25	Win2	0.6444	0.001	Yes	2.971	0.029	n/a	GoodResponse	1	n/a	n/a	6	44	Cue	Win	True
420.179	4.0	Win2	0.6444	0.0	Yes	2.971	0.0	n/a	GoodResponse	1	n/a	n/a	6	44	Fixation	Win	True
424.178	0.3	Win2	0.6444	0.001	Yes	2.971	-0.001	2.0	GoodResponse	1	0.188	423.366	6	44	Target	Win	True
424.366	0.3	Win2	0.6444	0.001	Yes	2.971	-0.001	2.0	GoodResponse	1	0.188	n/a	6	44	ButtonPress	Win	True
424.478	0.4	Win2	0.6444	n/a	Yes	2.971	n/a	n/a	GoodResponse	1	n/a	n/a	6	44	Blank	Win	True
424.878	1.45	Win2	0.6444	n/a	Yes	2.971	n/a	5.0	GoodResponse	1	0.023	423.901	6	44	Feedback	Win	True
426.327	2.971	Win2	0.6444	n/a	Yes	2.971	n/a	n/a	GoodResponse	1	0.0	n/a	6	44	ISIslide	Win	True
429.326	0.25	Control	0.6522	0.0	Yes	2.874	0.026	n/a	GoodResponse	0	n/a	n/a	6	45	Cue	Neutral	True
429.576	4.1	Control	0.6522	0.0	Yes	2.874	0.0	n/a	GoodResponse	0	n/a	n/a	6	45	Fixation	Neutral	True
433.675	0.31	Control	0.6522	0.001	Yes	2.874	-0.001	2.0	GoodResponse	0	0.193	432.868	6	45	Target	Neutral	True
433.868	0.3	Control	0.6522	0.001	Yes	2.874	-0.001	2.0	GoodResponse	0	0.193	n/a	6	45	ButtonPress	Neutral	True
433.991	0.39	Control	0.6522	n/a	Yes	2.874	n/a	n/a	GoodResponse	0	n/a	n/a	6	45	Blank	Neutral	True
434.374	1.45	Control	0.6522	n/a	Yes	2.874	n/a	5.0	GoodResponse	0	0.038	433.412	6	45	Feedback	Neutral	True
435.824	2.874	Control	0.6522	n/a	Yes	2.874	n/a	n/a	GoodResponse	0	0.0	n/a	6	45	ISIslide	Neutral	True
438.723	0.25	Lose2	0.6596	0.0	Yes	3.377	0.023	n/a	GoodResponse	0	n/a	n/a	6	46	Cue	AvoidedLoss	True
438.973	4.0	Lose2	0.6596	0.0	Yes	3.377	0.0	n/a	GoodResponse	0	n/a	n/a	6	46	Fixation	AvoidedLoss	True
442.971	0.32	Lose2	0.6596	0.002	Yes	3.377	-0.002	2.0	GoodResponse	0	0.217	442.188	6	46	Target	AvoidedLoss	True
443.188	0.3	Lose2	0.6596	0.002	Yes	3.377	-0.002	2.0	GoodResponse	0	0.217	n/a	6	46	ButtonPress	AvoidedLoss	True
443.304	0.38	Lose2	0.6596	n/a	Yes	3.377	n/a	n/a	GoodResponse	0	n/a	n/a	6	46	Blank	AvoidedLoss	True
443.671	1.45	Lose2	0.6596	n/a	Yes	3.377	n/a	5.0	GoodResponse	0	0.009	442.68	6	46	Feedback	AvoidedLoss	True
445.121	3.377	Lose2	0.6596	n/a	Yes	3.377	n/a	n/a	GoodResponse	0	0.0	n/a	6	46	ISIslide	AvoidedLoss	True
448.519	0.25	Lose2	0.6667000000000001	0.0	Yes	2.681	0.019	n/a	GoodResponse	0	n/a	n/a	6	47	Cue	AvoidedLoss	True
448.769	4.0	Lose2	0.6667000000000001	0.0	Yes	2.681	0.0	n/a	GoodResponse	0	n/a	n/a	6	47	Fixation	AvoidedLoss	True
452.768	0.32	Lose2	0.6667000000000001	0.001	Yes	2.681	-0.001	2.0	GoodResponse	0	0.197	451.965	6	47	Target	AvoidedLoss	True
452.965	0.3	Lose2	0.6667000000000001	0.001	Yes	2.681	-0.001	2.0	GoodResponse	0	0.197	n/a	6	47	ButtonPress	AvoidedLoss	True
453.084	0.38	Lose2	0.6667000000000001	n/a	Yes	2.681	n/a	n/a	GoodResponse	0	n/a	n/a	6	47	Blank	AvoidedLoss	True
453.468	1.45	Lose2	0.6667000000000001	n/a	Yes	2.681	n/a	5.0	GoodResponse	0	0.017	452.485	6	47	Feedback	AvoidedLoss	True
454.917	2.681	Lose2	0.6667000000000001	n/a	Yes	2.681	n/a	n/a	GoodResponse	0	0.0	n/a	6	47	ISIslide	AvoidedLoss	True
457.616	0.25	Lose2	0.6735	0.0	Yes	3.034	0.016	n/a	GoodResponse	0	n/a	n/a	6	48	Cue	AvoidedLoss	True
457.866	3.95	Lose2	0.6735	0.0	Yes	3.034	0.0	n/a	GoodResponse	0	n/a	n/a	6	48	Fixation	AvoidedLoss	True
461.815	0.31	Lose2	0.6735	0.001	Yes	3.034	-0.001	2.0	GoodResponse	0	0.28	461.095	6	48	Target	AvoidedLoss	True
462.095	0.3	Lose2	0.6735	0.001	Yes	3.034	-0.001	2.0	GoodResponse	0	0.28	n/a	6	48	ButtonPress	AvoidedLoss	True
462.131	0.39	Lose2	0.6735	n/a	Yes	3.034	n/a	n/a	GoodResponse	0	n/a	n/a	6	48	Blank	AvoidedLoss	True
462.514	1.45	Lose2	0.6735	n/a	Yes	3.034	n/a	5.0	GoodResponse	0	0.045	461.559	6	48	Feedback	AvoidedLoss	True
463.964	3.034	Lose2	0.6735	n/a	Yes	3.034	n/a	n/a	GoodResponse	0	0.0	n/a	6	48	ISIslide	AvoidedLoss	True
467.029	0.25	Control	0.68	0.001	Yes	2.871	0.029	n/a	GoodResponse	0	n/a	n/a	6	49	Cue	Neutral	True
467.279	4.0	Control	0.68	0.0	Yes	2.871	0.0	n/a	GoodResponse	0	n/a	n/a	6	49	Fixation	Neutral	True
471.278	0.3	Control	0.68	0.001	Yes	2.871	-0.001	2.0	GoodResponse	0	0.268	470.546	6	49	Target	Neutral	True
471.546	0.3	Control	0.68	0.001	Yes	2.871	-0.001	2.0	GoodResponse	0	0.268	n/a	6	49	ButtonPress	Neutral	True
471.578	0.4	Control	0.68	n/a	Yes	2.871	n/a	n/a	GoodResponse	0	n/a	n/a	6	49	Blank	Neutral	True
471.978	1.45	Control	0.68	n/a	Yes	2.871	n/a	5.0	GoodResponse	0	0.043	471.021	6	49	Feedback	Neutral	True
473.427	2.871	Control	0.68	n/a	Yes	2.871	n/a	n/a	GoodResponse	0	0.0	n/a	6	49	ISIslide	Neutral	True
476.326	0.25	Control	0.6862999999999999	0.0	Yes	2.774	0.026	n/a	GoodResponse	0	n/a	n/a	6	50	Cue	Neutral	True
476.576	4.0	Control	0.6862999999999999	0.0	Yes	2.774	0.0	n/a	GoodResponse	0	n/a	n/a	6	50	Fixation	Neutral	True
480.575	0.29	Control	0.6862999999999999	0.001	Yes	2.774	-0.001	2.0	GoodResponse	0	0.204	479.779	6	50	Target	Neutral	True
480.779	0.3	Control	0.6862999999999999	0.001	Yes	2.774	-0.001	2.0	GoodResponse	0	0.204	n/a	6	50	ButtonPress	Neutral	True
480.875	0.41	Control	0.6862999999999999	n/a	Yes	2.774	n/a	n/a	GoodResponse	0	n/a	n/a	6	50	Blank	Neutral	True
481.274	1.45	Control	0.6862999999999999	n/a	Yes	2.774	n/a	5.0	GoodResponse	0	0.016	480.29	6	50	Feedback	Neutral	True
482.724	2.774	Control	0.6862999999999999	n/a	Yes	2.774	n/a	n/a	GoodResponse	0	0.0	n/a	6	50	ISIslide	Neutral	True
485.523	0.25	Control	0.6923	0.0	Yes	2.727	0.023	n/a	GoodResponse	0	n/a	n/a	6	51	Cue	Neutral	True
485.773	3.95	Control	0.6923	0.0	Yes	2.727	0.0	n/a	GoodResponse	0	n/a	n/a	6	51	Fixation	Neutral	True
489.721	0.28	Control	0.6923	0.002	Yes	2.727	-0.002	2.0	GoodResponse	0	0.204	488.925	6	51	Target	Neutral	True
489.925	0.3	Control	0.6923	0.002	Yes	2.727	-0.002	2.0	GoodResponse	0	0.204	n/a	6	51	ButtonPress	Neutral	True
490.005	0.42	Control	0.6923	n/a	Yes	2.727	n/a	n/a	GoodResponse	0	n/a	n/a	6	51	Blank	Neutral	True
490.421	1.45	Control	0.6923	n/a	Yes	2.727	n/a	5.0	GoodResponse	0	0.039	489.46	6	51	Feedback	Neutral	True
491.871	2.727	Control	0.6923	n/a	Yes	2.727	n/a	n/a	GoodResponse	0	0.0	n/a	6	51	ISIslide	Neutral	True
494.62	0.25	Control	0.6981	0.0	Yes	2.63	0.02	n/a	GoodResponse	0	n/a	n/a	6	52	Cue	Neutral	True
494.87	4.05	Control	0.6981	0.0	Yes	2.63	0.0	n/a	GoodResponse	0	n/a	n/a	6	52	Fixation	Neutral	True
498.918	0.27	Control	0.6981	0.002	Yes	2.63	-0.002	2.0	GoodResponse	0	0.236	498.154	6	52	Target	Neutral	True
499.154	0.3	Control	0.6981	0.002	Yes	2.63	-0.002	2.0	GoodResponse	0	0.236	n/a	6	52	ButtonPress	Neutral	True
499.201	0.43	Control	0.6981	n/a	Yes	2.63	n/a	n/a	GoodResponse	0	n/a	n/a	6	52	Blank	Neutral	True
499.618	1.45	Control	0.6981	n/a	Yes	2.63	n/a	5.0	GoodResponse	0	0.013	498.631	6	52	Feedback	Neutral	True
501.067	2.63	Control	0.6981	n/a	Yes	2.63	n/a	n/a	GoodResponse	0	0.0	n/a	6	52	ISIslide	Neutral	True
503.717	0.25	Win2	0.7037	0.0	Yes	2.933	0.017	n/a	GoodResponse	1	n/a	n/a	7	53	Cue	Win	True
503.966	4.05	Win2	0.7037	0.001	Yes	2.933	-0.001	n/a	GoodResponse	1	n/a	n/a	7	53	Fixation	Win	True
508.015	0.26	Win2	0.7037	0.002	Yes	2.933	-0.002	2.0	GoodResponse	1	0.214	507.229	7	53	Target	Win	True
508.229	0.3	Win2	0.7037	0.002	Yes	2.933	-0.002	2.0	GoodResponse	1	0.214	n/a	7	53	ButtonPress	Win	True
508.282	0.44	Win2	0.7037	n/a	Yes	2.933	n/a	n/a	GoodResponse	1	n/a	n/a	7	53	Blank	Win	True
508.715	1.45	Win2	0.7037	n/a	Yes	2.933	n/a	5.0	GoodResponse	1	0.037	507.752	7	53	Feedback	Win	True
510.164	2.933	Win2	0.7037	n/a	Yes	2.933	n/a	n/a	GoodResponse	1	0.0	n/a	7	53	ISIslide	Win	True
513.113	0.25	Win2	0.7091	0.0	Yes	2.737	0.013	n/a	GoodResponse	1	n/a	n/a	8	54	Cue	Win	True
513.363	3.95	Win2	0.7091	0.0	Yes	2.737	0.0	n/a	GoodResponse	1	n/a	n/a	8	54	Fixation	Win	True
517.312	0.25	Win2	0.7091	0.001	Yes	2.737	-0.001	2.0	GoodResponse	1	0.186	516.498	8	54	Target	Win	True
517.498	0.3	Win2	0.7091	0.001	Yes	2.737	-0.001	2.0	GoodResponse	1	0.186	n/a	8	54	ButtonPress	Win	True
517.562	0.45	Win2	0.7091	n/a	Yes	2.737	n/a	n/a	GoodResponse	1	n/a	n/a	8	54	Blank	Win	True
518.011	1.45	Win2	0.7091	n/a	Yes	2.737	n/a	5.0	GoodResponse	1	0.01	517.021	8	54	Feedback	Win	True
519.461	2.737	Win2	0.7091	n/a	Yes	2.737	n/a	n/a	GoodResponse	1	0.0	n/a	8	54	ISIslide	Win	True
522.227	0.25	Control	0.7143	0.0	Yes	3.023	0.027	n/a	GoodResponse	0	n/a	n/a	8	55	Cue	Neutral	True
522.477	3.95	Control	0.7143	0.0	Yes	3.023	0.0	n/a	GoodResponse	0	n/a	n/a	8	55	Fixation	Neutral	True
526.425	0.24	Control	0.7143	0.002	Yes	3.023	-0.002	2.0	GoodResponse	0	0.202	525.627	8	55	Target	Neutral	True
526.627	0.3	Control	0.7143	0.002	Yes	3.023	-0.002	2.0	GoodResponse	0	0.202	n/a	8	55	ButtonPress	Neutral	True
526.675	0.46	Control	0.7143	n/a	Yes	3.023	n/a	n/a	GoodResponse	0	n/a	n/a	8	55	Blank	Neutral	True
527.125	1.45	Control	0.7143	n/a	Yes	3.023	n/a	5.0	GoodResponse	0	0.018	526.143	8	55	Feedback	Neutral	True
528.574	3.023	Control	0.7143	n/a	Yes	3.023	n/a	n/a	GoodResponse	0	0.0	n/a	8	55	ISIslide	Neutral	True
531.623	0.25	Control	0.7193	0.0	Yes	2.827	0.023	n/a	GoodResponse	0	n/a	n/a	8	56	Cue	Neutral	True
531.873	3.95	Control	0.7193	0.0	Yes	2.827	0.0	n/a	GoodResponse	0	n/a	n/a	8	56	Fixation	Neutral	True
535.822	0.23	Control	0.7193	0.001	Yes	2.827	-0.001	2.0	GoodResponse	0	0.182	535.004	8	56	Target	Neutral	True
536.004	0.3	Control	0.7193	0.001	Yes	2.827	-0.001	2.0	GoodResponse	0	0.182	n/a	8	56	ButtonPress	Neutral	True
536.055	0.47	Control	0.7193	n/a	Yes	2.827	n/a	n/a	GoodResponse	0	n/a	n/a	8	56	Blank	Neutral	True
536.522	1.45	Control	0.7193	n/a	Yes	2.827	n/a	5.0	GoodResponse	0	0.036	535.558	8	56	Feedback	Neutral	True
537.971	2.827	Control	0.7193	n/a	Yes	2.827	n/a	n/a	GoodResponse	0	0.0	n/a	8	56	ISIslide	Neutral	True
540.82	0.25	Control	0.7241	0.0	Yes	3.48	0.02	n/a	GoodResponse	0	n/a	n/a	8	57	Cue	Neutral	True
541.07	4.0	Control	0.7241	0.0	Yes	3.48	0.0	n/a	GoodResponse	0	n/a	n/a	8	57	Fixation	Neutral	True
545.069	0.22	Control	0.7241	0.001	Yes	3.48	-0.001	2.0	GoodResponse	0	0.203	544.272	8	57	Target	Neutral	True
545.272	0.3	Control	0.7241	0.001	Yes	3.48	-0.001	2.0	GoodResponse	0	0.203	n/a	8	57	ButtonPress	Neutral	True
545.302	0.48	Control	0.7241	n/a	Yes	3.48	n/a	n/a	GoodResponse	0	n/a	n/a	8	57	Blank	Neutral	True
545.768	1.45	Control	0.7241	n/a	Yes	3.48	n/a	5.0	GoodResponse	0	0.009	544.777	8	57	Feedback	Neutral	True
547.218	3.48	Control	0.7241	n/a	Yes	3.48	n/a	n/a	GoodResponse	0	0.0	n/a	8	57	ISIslide	Neutral	True
550.717	0.25	Win2	0.7288	0.0	Yes	2.733	0.017	n/a	GoodResponse	1	n/a	n/a	9	58	Cue	Win	True
550.967	4.05	Win2	0.7288	0.0	Yes	2.733	0.0	n/a	GoodResponse	1	n/a	n/a	9	58	Fixation	Win	True
555.015	0.21	Win2	0.7288	0.002	Yes	2.733	-0.002	2.0	GoodResponse	1	0.207	554.222	9	58	Target	Win	True
555.222	0.3	Win2	0.7288	0.002	Yes	2.733	-0.002	2.0	GoodResponse	1	0.207	n/a	9	58	ButtonPress	Win	True
555.232	0.49	Win2	0.7288	n/a	Yes	2.733	n/a	n/a	GoodResponse	1	n/a	n/a	9	58	Blank	Win	True
555.715	1.45	Win2	0.7288	n/a	Yes	2.733	n/a	5.0	GoodResponse	1	0.013	554.728	9	58	Feedback	Win	True
557.164	2.733	Win2	0.7288	n/a	Yes	2.733	n/a	n/a	GoodResponse	1	0.0	n/a	9	58	ISIslide	Win	True
559.913	0.25	Lose2	0.7167	0.0	No	2.687	0.013	n/a	NoResponse	-1	n/a	n/a	8	59	Cue	Loss	True
560.163	4.0	Lose2	0.7167	0.0	No	2.687	0.0	n/a	NoResponse	-1	n/a	n/a	8	59	Fixation	Loss	True
564.162	0.2	Lose2	0.7167	0.001	No	2.687	-0.001	2.0	NoResponse	-1	0.208	563.37	8	59	Target	Loss	True
564.362	0.5	Lose2	0.7167	n/a	No	2.687	n/a	n/a	NoResponse	-1	n/a	n/a	8	59	Blank	Loss	True
564.37	0.3	Lose2	0.7167	0.001	No	2.687	-0.001	2.0	NoResponse	-1	0.208	n/a	8	59	ButtonPress	Loss	True
564.862	1.45	Lose2	0.7167	n/a	No	2.687	n/a	5.0	NoResponse	-1	0.036	563.898	8	59	Feedback	Loss	True
566.311	2.687	Lose2	0.7167	n/a	No	2.687	n/a	n/a	NoResponse	-1	0.0	n/a	8	59	ISIslide	Loss	True
569.027	0.25	Control	0.7049	0.0	No	2.673	0.027	n/a	NoResponse	0	n/a	n/a	8	60	Cue	Neutral	True
569.277	4.0	Control	0.7049	0.0	No	2.673	0.0	n/a	NoResponse	0	n/a	n/a	8	60	Fixation	Neutral	True
573.275	0.19	Control	0.7049	0.002	No	2.673	-0.002	2.0	NoResponse	0	0.308	572.583	8	60	Target	Neutral	True
573.475	0.51	Control	0.7049	n/a	No	2.673	n/a	n/a	NoResponse	0	n/a	n/a	8	60	Blank	Neutral	True
573.583	0.3	Control	0.7049	0.002	No	2.673	-0.002	2.0	NoResponse	0	0.308	n/a	8	60	ButtonPress	Neutral	True
573.975	1.45	Control	0.7049	n/a	No	2.673	n/a	5.0	NoResponse	0	0.046	573.021	8	60	Feedback	Neutral	True
575.425	2.673	Control	0.7049	n/a	No	2.673	n/a	n/a	NoResponse	0	0.0	n/a	8	60	ISIslide	Neutral	True
578.124	0.25	Lose2	0.6934999999999999	0.0	No	2.976	0.024	n/a	NoResponse	-1	n/a	n/a	7	61	Cue	Loss	True
578.374	4.0	Lose2	0.6934999999999999	0.0	No	2.976	0.0	n/a	NoResponse	-1	n/a	n/a	7	61	Fixation	Loss	True
582.372	0.18	Lose2	0.6934999999999999	0.002	No	2.976	-0.002	2.0	NoResponse	-1	0.19	581.562	7	61	Target	Loss	True
582.555	0.52	Lose2	0.6934999999999999	n/a	No	2.976	n/a	n/a	NoResponse	-1	n/a	n/a	7	61	Blank	Loss	True
582.562	0.3	Lose2	0.6934999999999999	0.002	No	2.976	-0.002	2.0	NoResponse	-1	0.19	n/a	7	61	ButtonPress	Loss	True
583.072	1.45	Lose2	0.6934999999999999	n/a	No	2.976	n/a	5.0	NoResponse	-1	0.022	582.094	7	61	Feedback	Loss	True
584.521	2.976	Lose2	0.6934999999999999	n/a	No	2.976	n/a	n/a	NoResponse	-1	0.0	n/a	7	61	ISIslide	Loss	True
587.52	0.25	Lose2	0.6825	0.0	No	2.88	0.02	n/a	LatePress	-1	n/a	n/a	6	62	Cue	Loss	True
587.77	3.9	Lose2	0.6825	0.0	No	2.88	0.0	n/a	LatePress	-1	n/a	n/a	6	62	Fixation	Loss	True
591.669	0.17	Lose2	0.6825	0.001	No	2.88	-0.001	2.0	LatePress	-1	0.171	590.84	6	62	Target	Loss	True
591.835	0.53	Lose2	0.6825	n/a	No	2.88	n/a	n/a	LatePress	-1	n/a	n/a	6	62	Blank	Loss	True
591.84	0.3	Lose2	0.6825	0.001	No	2.88	-0.001	2.0	LatePress	-1	0.171	n/a	6	62	ButtonPress	Loss	True
592.369	1.45	Lose2	0.6825	n/a	No	2.88	n/a	5.0	LatePress	-1	0.042	591.411	6	62	Feedback	Loss	True
593.818	2.88	Lose2	0.6825	n/a	No	2.88	n/a	n/a	LatePress	-1	0.0	n/a	6	62	ISIslide	Loss	True
596.717	0.25	Lose2	0.6718999999999999	0.0	No	2.633	0.017	n/a	NoResponse	-1	n/a	n/a	5	63	Cue	Loss	True
596.967	4.05	Lose2	0.6718999999999999	0.0	No	2.633	0.0	n/a	NoResponse	-1	n/a	n/a	5	63	Fixation	Loss	True
601.016	0.16	Lose2	0.6718999999999999	0.001	No	2.633	-0.001	2.0	NoResponse	-1	0.173	600.189	5	63	Target	Loss	True
601.182	0.54	Lose2	0.6718999999999999	n/a	No	2.633	n/a	n/a	NoResponse	-1	n/a	n/a	5	63	Blank	Loss	True
601.189	0.3	Lose2	0.6718999999999999	0.001	No	2.633	-0.001	2.0	NoResponse	-1	0.173	n/a	5	63	ButtonPress	Loss	True
601.715	1.45	Lose2	0.6718999999999999	n/a	No	2.633	n/a	5.0	NoResponse	-1	0.012	600.727	5	63	Feedback	Loss	True
603.165	2.633	Lose2	0.6718999999999999	n/a	No	2.633	n/a	n/a	NoResponse	-1	0.0	n/a	5	63	ISIslide	Loss	True
605.814	0.25	Win2	0.6615000000000001	0.0	No	3.136	0.014	n/a	NoResponse	0	n/a	n/a	5	64	Cue	MissedWin	True
606.064	4.15	Win2	0.6615000000000001	0.0	No	3.136	0.0	n/a	NoResponse	0	n/a	n/a	5	64	Fixation	MissedWin	True
610.212	0.15	Win2	0.6615000000000001	0.002	No	3.136	-0.002	2.0	NoResponse	0	0.238	609.45	5	64	Target	MissedWin	True
610.362	0.55	Win2	0.6615000000000001	n/a	No	3.136	n/a	n/a	NoResponse	0	n/a	n/a	5	64	Blank	MissedWin	True
610.45	0.3	Win2	0.6615000000000001	0.002	No	3.136	-0.002	2.0	NoResponse	0	0.238	n/a	5	64	ButtonPress	MissedWin	True
610.912	1.45	Win2	0.6615000000000001	n/a	No	3.136	n/a	5.0	NoResponse	0	0.035	609.947	5	64	Feedback	MissedWin	True
612.362	3.136	Win2	0.6615000000000001	n/a	No	3.136	n/a	n/a	NoResponse	0	0.0	n/a	5	64	ISIslide	MissedWin	True
615.527	0.25	Control	0.6515000000000001	0.0	No	2.773	0.027	n/a	NoResponse	0	n/a	n/a	5	65	Cue	Neutral	True
615.777	4.0	Control	0.6515000000000001	0.0	No	2.773	0.0	n/a	NoResponse	0	n/a	n/a	5	65	Fixation	Neutral	True
619.776	0.15	Control	0.6515000000000001	0.001	No	2.773	-0.001	2.0	NoResponse	0	0.194	618.97	5	65	Target	Neutral	True
619.926	0.55	Control	0.6515000000000001	n/a	No	2.773	n/a	n/a	NoResponse	0	n/a	n/a	5	65	Blank	Neutral	True
619.97	0.3	Control	0.6515000000000001	0.001	No	2.773	-0.001	2.0	NoResponse	0	0.194	n/a	5	65	ButtonPress	Neutral	True
620.475	1.45	Control	0.6515000000000001	n/a	No	2.773	n/a	5.0	NoResponse	0	0.033	619.508	5	65	Feedback	Neutral	True
621.925	2.773	Control	0.6515000000000001	n/a	No	2.773	n/a	n/a	NoResponse	0	0.0	n/a	5	65	ISIslide	Neutral	True
624.724	0.25	Win2	0.6418	0.0	No	2.776	0.024	n/a	NoResponse	0	n/a	n/a	5	66	Cue	MissedWin	False
624.974	3.9	Win2	0.6418	0.0	No	2.776	0.0	2.0	NoResponse	0	3.786	627.76	5	66	Fixation	MissedWin	False
628.76	0.3	Win2	0.6418	0.0	No	2.776	0.0	2.0	NoResponse	0	3.786	n/a	5	66	ButtonPress	MissedWin	False
628.872	0.16	Win2	0.6418	0.002	No	2.776	-0.002	2.0	NoResponse	0	0.273	628.145	5	66	Target	MissedWin	False
629.039	0.54	Win2	0.6418	n/a	No	2.776	n/a	n/a	NoResponse	0	n/a	n/a	5	66	Blank	MissedWin	False
629.145	0.3	Win2	0.6418	0.002	No	2.776	-0.002	2.0	NoResponse	0	0.273	n/a	5	66	ButtonPress	MissedWin	False
629.572	1.45	Win2	0.6418	n/a	No	2.776	n/a	5.0	NoResponse	0	0.009	628.581	5	66	Feedback	MissedWin	False
631.022	2.776	Win2	0.6418	n/a	No	2.776	n/a	n/a	NoResponse	0	0.0	n/a	5	66	ISIslide	MissedWin	False
633.821	0.25	Control	0.6324000000000001	0.0	No	2.729	0.021	n/a	NoResponse	0	n/a	n/a	5	67	Cue	Neutral	True
634.071	3.95	Control	0.6324000000000001	0.0	No	2.729	0.0	n/a	NoResponse	0	n/a	n/a	5	67	Fixation	Neutral	True
638.019	0.17	Control	0.6324000000000001	0.002	No	2.729	-0.002	2.0	NoResponse	0	0.192	637.211	5	67	Target	Neutral	True
638.203	0.53	Control	0.6324000000000001	n/a	No	2.729	n/a	n/a	NoResponse	0	n/a	n/a	5	67	Blank	Neutral	True
638.211	0.3	Control	0.6324000000000001	0.002	No	2.729	-0.002	2.0	NoResponse	0	0.192	n/a	5	67	ButtonPress	Neutral	True
638.719	1.45	Control	0.6324000000000001	n/a	No	2.729	n/a	5.0	NoResponse	0	0.032	637.751	5	67	Feedback	Neutral	True
640.168	2.729	Control	0.6324000000000001	n/a	No	2.729	n/a	n/a	NoResponse	0	0.0	n/a	5	67	ISIslide	Neutral	True
642.918	0.25	Win2	0.6377	0.0	Yes	3.082	0.018	n/a	GoodResponse	1	n/a	n/a	6	68	Cue	Win	True
643.167	4.0	Win2	0.6377	0.001	Yes	3.082	-0.001	n/a	GoodResponse	1	n/a	n/a	6	68	Fixation	Win	True
647.166	0.18	Win2	0.6377	0.002	Yes	3.082	-0.002	2.0	GoodResponse	1	0.172	646.338	6	68	Target	Win	True
647.338	0.3	Win2	0.6377	0.002	Yes	3.082	-0.002	2.0	GoodResponse	1	0.172	n/a	6	68	ButtonPress	Win	True
647.349	0.52	Win2	0.6377	n/a	Yes	3.082	n/a	n/a	GoodResponse	1	n/a	n/a	6	68	Blank	Win	True
647.866	1.45	Win2	0.6377	n/a	Yes	3.082	n/a	5.0	GoodResponse	1	0.007	646.873	6	68	Feedback	Win	True
649.315	3.082	Win2	0.6377	n/a	Yes	3.082	n/a	n/a	GoodResponse	1	0.0	n/a	6	68	ISIslide	Win	True
652.414	0.25	Win2	0.6286	0.0	No	3.236	0.014	n/a	LatePress	0	n/a	n/a	6	69	Cue	MissedWin	True
652.664	3.95	Win2	0.6286	0.0	No	3.236	0.0	n/a	LatePress	0	n/a	n/a	6	69	Fixation	MissedWin	True
656.613	0.19	Win2	0.6286	0.001	No	3.236	-0.001	2.0	LatePress	0	0.194	655.807	6	69	Target	MissedWin	True
656.807	0.3	Win2	0.6286	0.001	No	3.236	-0.001	2.0	LatePress	0	0.194	n/a	6	69	ButtonPress	MissedWin	True
656.813	0.51	Win2	0.6286	n/a	No	3.236	n/a	n/a	LatePress	0	n/a	n/a	6	69	Blank	MissedWin	True
657.312	1.45	Win2	0.6286	n/a	No	3.236	n/a	5.0	LatePress	0	0.025	656.337	6	69	Feedback	MissedWin	True
658.762	3.236	Win2	0.6286	n/a	No	3.236	n/a	n/a	LatePress	0	0.0	n/a	6	69	ISIslide	MissedWin	True
662.027	0.25	Lose2	0.6197	0.001	No	3.023	0.027	n/a	NoResponse	-1	n/a	n/a	5	70	Cue	Loss	True
662.277	4.05	Lose2	0.6197	0.0	No	3.023	0.0	2.0	NoResponse	-1	4.034	665.311	5	70	Fixation	Loss	True
666.311	0.3	Lose2	0.6197	0.0	No	3.023	0.0	2.0	NoResponse	-1	4.034	n/a	5	70	ButtonPress	Loss	True
666.326	0.2	Lose2	0.6197	0.001	No	3.023	-0.001	n/a	NoResponse	-1	n/a	n/a	5	70	Target	Loss	True
666.526	0.5	Lose2	0.6197	n/a	No	3.023	n/a	n/a	NoResponse	-1	n/a	n/a	5	70	Blank	Loss	True
667.026	1.45	Lose2	0.6197	n/a	No	3.023	n/a	5.0	NoResponse	-1	0.018	666.044	5	70	Feedback	Loss	True
668.475	3.023	Lose2	0.6197	n/a	No	3.023	n/a	n/a	NoResponse	-1	0.0	n/a	5	70	ISIslide	Loss	True
671.524	0.25	Win2	0.6111	0.0	No	2.726	0.024	n/a	NoResponse	0	n/a	n/a	5	71	Cue	MissedWin	True
671.774	4.05	Win2	0.6111	0.0	No	2.726	0.0	n/a	NoResponse	0	n/a	n/a	5	71	Fixation	MissedWin	True
675.823	0.21	Win2	0.6111	0.001	No	2.726	-0.001	2.0	NoResponse	0	0.344	675.167	5	71	Target	MissedWin	True
676.039	0.49	Win2	0.6111	n/a	No	2.726	n/a	n/a	NoResponse	0	n/a	n/a	5	71	Blank	MissedWin	True
676.167	0.3	Win2	0.6111	0.001	No	2.726	-0.001	2.0	NoResponse	0	0.344	n/a	5	71	ButtonPress	MissedWin	True
676.522	1.45	Win2	0.6111	n/a	No	2.726	n/a	5.0	NoResponse	0	0.034	675.556	5	71	Feedback	MissedWin	True
677.972	2.726	Win2	0.6111	n/a	No	2.726	n/a	n/a	NoResponse	0	0.0	n/a	5	71	ISIslide	MissedWin	True
680.721	0.25	Win2	0.6164000000000001	0.0	Yes	2.779	0.021	n/a	GoodResponse	1	n/a	n/a	6	72	Cue	Win	True
680.971	4.1	Win2	0.6164000000000001	0.0	Yes	2.779	0.0	n/a	GoodResponse	1	n/a	n/a	6	72	Fixation	Win	True
685.069	0.22	Win2	0.6164000000000001	0.002	Yes	2.779	-0.002	2.0	GoodResponse	1	0.206	684.275	6	72	Target	Win	True
685.275	0.3	Win2	0.6164000000000001	0.002	Yes	2.779	-0.002	2.0	GoodResponse	1	0.206	n/a	6	72	ButtonPress	Win	True
685.303	0.48	Win2	0.6164000000000001	n/a	Yes	2.779	n/a	n/a	GoodResponse	1	n/a	n/a	6	72	Blank	Win	True
685.769	1.45	Win2	0.6164000000000001	n/a	Yes	2.779	n/a	5.0	GoodResponse	1	0.007	684.776	6	72	Feedback	Win	True
687.219	2.779	Win2	0.6164000000000001	n/a	Yes	2.779	n/a	n/a	GoodResponse	1	0.0	n/a	6	72	ISIslide	Win	True
690.018	0.25	Win2	0.6081	0.0	No	2.682	0.018	n/a	NoResponse	0	n/a	n/a	6	73	Cue	MissedWin	True
690.267	4.0	Win2	0.6081	0.001	No	2.682	-0.001	n/a	NoResponse	0	n/a	n/a	6	73	Fixation	MissedWin	True
694.266	0.23	Win2	0.6081	0.002	No	2.682	-0.002	2.0	NoResponse	0	0.26	693.526	6	73	Target	MissedWin	True
694.499	0.47	Win2	0.6081	n/a	No	2.682	n/a	n/a	NoResponse	0	n/a	n/a	6	73	Blank	MissedWin	True
694.526	0.3	Win2	0.6081	0.002	No	2.682	-0.002	2.0	NoResponse	0	0.26	n/a	6	73	ButtonPress	MissedWin	True
694.966	1.45	Win2	0.6081	n/a	No	2.682	n/a	5.0	NoResponse	0	0.029	693.995	6	73	Feedback	MissedWin	True
696.415	2.682	Win2	0.6081	n/a	No	2.682	n/a	n/a	NoResponse	0	0.0	n/a	6	73	ISIslide	MissedWin	True
699.114	0.25	Lose2	0.6133	0.0	Yes	2.636	0.014	n/a	GoodResponse	0	n/a	n/a	6	74	Cue	AvoidedLoss	True
699.364	4.05	Lose2	0.6133	0.0	Yes	2.636	0.0	n/a	GoodResponse	0	n/a	n/a	6	74	Fixation	AvoidedLoss	True
703.413	0.24	Lose2	0.6133	0.001	Yes	2.636	-0.001	2.0	GoodResponse	0	0.21	702.623	6	74	Target	AvoidedLoss	True
703.623	0.3	Lose2	0.6133	0.001	Yes	2.636	-0.001	2.0	GoodResponse	0	0.21	n/a	6	74	ButtonPress	AvoidedLoss	True
703.663	0.46	Lose2	0.6133	n/a	Yes	2.636	n/a	n/a	GoodResponse	0	n/a	n/a	6	74	Blank	AvoidedLoss	True
704.113	1.45	Lose2	0.6133	n/a	Yes	2.636	n/a	5.0	GoodResponse	0	0.005	703.118	6	74	Feedback	AvoidedLoss	True
705.562	2.636	Lose2	0.6133	n/a	Yes	2.636	n/a	n/a	GoodResponse	0	0.0	n/a	6	74	ISIslide	AvoidedLoss	True
708.228	0.25	Lose2	0.6184000000000001	0.0	Yes	2.922	0.028	n/a	GoodResponse	0	n/a	n/a	6	75	Cue	AvoidedLoss	True
708.478	3.95	Lose2	0.6184000000000001	0.0	Yes	2.922	0.0	n/a	GoodResponse	0	n/a	n/a	6	75	Fixation	AvoidedLoss	True
712.426	0.25	Lose2	0.6184000000000001	0.002	Yes	2.922	-0.002	2.0	GoodResponse	0	0.198	711.624	6	75	Target	AvoidedLoss	True
712.624	0.3	Lose2	0.6184000000000001	0.002	Yes	2.922	-0.002	2.0	GoodResponse	0	0.198	n/a	6	75	ButtonPress	AvoidedLoss	True
712.676	0.45	Lose2	0.6184000000000001	n/a	Yes	2.922	n/a	n/a	GoodResponse	0	n/a	n/a	6	75	Blank	AvoidedLoss	True
713.126	1.45	Lose2	0.6184000000000001	n/a	Yes	2.922	n/a	5.0	GoodResponse	0	0.015	712.141	6	75	Feedback	AvoidedLoss	True
714.576	2.922	Lose2	0.6184000000000001	n/a	Yes	2.922	n/a	n/a	GoodResponse	0	0.0	n/a	6	75	ISIslide	AvoidedLoss	True
717.525	0.25	Control	0.6234000000000001	0.0	Yes	3.225	0.025	n/a	GoodResponse	0	n/a	n/a	6	76	Cue	Neutral	True
717.774	4.05	Control	0.6234000000000001	0.001	Yes	3.225	-0.001	n/a	GoodResponse	0	n/a	n/a	6	76	Fixation	Neutral	True
721.823	0.26	Control	0.6234000000000001	0.002	Yes	3.225	-0.002	2.0	GoodResponse	0	0.211	721.034	6	76	Target	Neutral	True
722.034	0.3	Control	0.6234000000000001	0.002	Yes	3.225	-0.002	2.0	GoodResponse	0	0.211	n/a	6	76	ButtonPress	Neutral	True
722.09	0.44	Control	0.6234000000000001	n/a	Yes	3.225	n/a	n/a	GoodResponse	0	n/a	n/a	6	76	Blank	Neutral	True
722.523	1.45	Control	0.6234000000000001	n/a	Yes	3.225	n/a	5.0	GoodResponse	0	0.033	721.556	6	76	Feedback	Neutral	True
723.972	3.225	Control	0.6234000000000001	n/a	Yes	3.225	n/a	n/a	GoodResponse	0	0.0	n/a	6	76	ISIslide	Neutral	True
727.221	0.25	Lose2	0.6282	0.0	Yes	2.579	0.021	n/a	GoodResponse	0	n/a	n/a	6	77	Cue	AvoidedLoss	True
727.471	3.95	Lose2	0.6282	0.0	Yes	2.579	0.0	n/a	GoodResponse	0	n/a	n/a	6	77	Fixation	AvoidedLoss	True
731.42	0.27	Lose2	0.6282	0.001	Yes	2.579	-0.001	2.0	GoodResponse	0	0.198	730.618	6	77	Target	AvoidedLoss	True
731.618	0.3	Lose2	0.6282	0.001	Yes	2.579	-0.001	2.0	GoodResponse	0	0.198	n/a	6	77	ButtonPress	AvoidedLoss	True
731.703	0.43	Lose2	0.6282	n/a	Yes	2.579	n/a	n/a	GoodResponse	0	n/a	n/a	6	77	Blank	AvoidedLoss	True
732.119	1.45	Lose2	0.6282	n/a	Yes	2.579	n/a	5.0	GoodResponse	0	0.001	731.12	6	77	Feedback	AvoidedLoss	True
733.569	2.579	Lose2	0.6282	n/a	Yes	2.579	n/a	n/a	GoodResponse	0	0.0	n/a	6	77	ISIslide	AvoidedLoss	True
