onset	duration	cue_type	current_mean_accuracy	duration_error	is_hit	isi_adjusted	onset_delay	response	response_type	reward	rt	rt_time	total_reward	trial_number	trial_phase	trial_type	one_press
11.097	0.25	Control	1.0	0.0	Yes	2.953	-0.003	n/a	GoodResponse	0	n/a	n/a	0	0	Cue	Neutral	True
11.348	3.85	Control	1.0	0.0	Yes	2.953	0.001	n/a	GoodResponse	0	n/a	n/a	0	0	Fixation	Neutral	True
15.193	0.4	Control	1.0	0.004	Yes	2.953	-0.004	2.0	GoodResponse	0	0.269	14.462	0	0	Target	Neutral	True
15.462	0.3	Control	1.0	0.004	Yes	2.953	-0.004	2.0	GoodResponse	0	0.269	n/a	0	0	ButtonPress	Neutral	True
15.594	0.3	Control	1.0	n/a	Yes	2.953	n/a	n/a	GoodResponse	0	n/a	n/a	0	0	Blank	Neutral	True
15.895	1.45	Control	1.0	n/a	Yes	2.953	n/a	5.0	GoodResponse	0	0.031	14.926	0	0	Feedback	Neutral	True
17.349	2.953	Control	1.0	n/a	Yes	2.953	n/a	n/a	GoodResponse	0	0.0	n/a	0	0	ISIslide	Neutral	True
20.325	0.25	Lose2	1.0	0.0	Yes	2.775	0.025	n/a	GoodResponse	0	n/a	n/a	0	1	Cue	AvoidedLoss	True
20.576	4.0	Lose2	1.0	0.0	Yes	2.775	0.001	n/a	GoodResponse	0	n/a	n/a	0	1	Fixation	AvoidedLoss	True
24.571	0.39	Lose2	1.0	0.004	Yes	2.775	-0.004	2.0	GoodResponse	0	0.207	23.778	0	1	Target	AvoidedLoss	True
24.778	0.3	Lose2	1.0	0.004	Yes	2.775	-0.004	2.0	GoodResponse	0	0.207	n/a	0	1	ButtonPress	AvoidedLoss	True
24.972	0.31	Lose2	1.0	n/a	Yes	2.775	n/a	n/a	GoodResponse	0	n/a	n/a	0	1	Blank	AvoidedLoss	True
25.273	1.45	Lose2	1.0	n/a	Yes	2.775	n/a	5.0	GoodResponse	0	0.019	24.292	0	1	Feedback	AvoidedLoss	True
26.727	2.775	Lose2	1.0	n/a	Yes	2.775	n/a	n/a	GoodResponse	0	0.0	n/a	0	1	ISIslide	AvoidedLoss	True
29.519	0.25	Control	1.0	0.0	Yes	2.581	0.019	n/a	GoodResponse	0	n/a	n/a	0	2	Cue	Neutral	True
29.77	4.1	Control	1.0	0.0	Yes	2.581	0.001	n/a	GoodResponse	0	n/a	n/a	0	2	Fixation	Neutral	True
33.865	0.38	Control	1.0	0.004	Yes	2.581	-0.004	2.0	GoodResponse	0	0.186	33.051	0	2	Target	Neutral	True
34.051	0.3	Control	1.0	0.004	Yes	2.581	-0.004	2.0	GoodResponse	0	0.186	n/a	0	2	ButtonPress	Neutral	True
34.25	0.32	Control	1.0	n/a	Yes	2.581	n/a	n/a	GoodResponse	0	n/a	n/a	0	2	Blank	Neutral	True
34.567	1.45	Control	1.0	n/a	Yes	2.581	n/a	5.0	GoodResponse	0	0.041	33.608	0	2	Feedback	Neutral	True
36.022	2.581	Control	1.0	n/a	Yes	2.581	n/a	n/a	GoodResponse	0	0.0	n/a	0	2	ISIslide	Neutral	True
38.63	0.25	Win2	1.0	0.0	Yes	2.82	0.03	n/a	GoodResponse	1	n/a	n/a	1	3	Cue	Win	True
38.88	3.95	Win2	1.0	0.0	Yes	2.82	0.0	n/a	GoodResponse	1	n/a	n/a	1	3	Fixation	Win	True
42.842	0.37	Win2	1.0	0.0	Yes	2.82	0.012	2.0	GoodResponse	1	0.214	42.056	1	3	Target	Win	True
43.056	0.3	Win2	1.0	0.0	Yes	2.82	0.012	2.0	GoodResponse	1	0.214	n/a	1	3	ButtonPress	Win	True
43.21	0.33	Win2	1.0	n/a	Yes	2.82	n/a	n/a	GoodResponse	1	n/a	n/a	1	3	Blank	Win	True
43.528	1.45	Win2	1.0	n/a	Yes	2.82	n/a	5.0	GoodResponse	1	0.007	42.535	1	3	Feedback	Win	True
44.982	2.82	Win2	1.0	n/a	Yes	2.82	n/a	n/a	GoodResponse	1	0.0	n/a	1	3	ISIslide	Win	True
47.824	0.25	Win2	1.0	0.0	Yes	3.276	0.024	n/a	GoodResponse	1	n/a	n/a	2	4	Cue	Win	True
48.074	4.0	Win2	1.0	0.001	Yes	3.276	0.0	n/a	GoodResponse	1	n/a	n/a	2	4	Fixation	Win	True
52.07	0.36	Win2	1.0	0.004	Yes	3.276	-0.004	2.0	GoodResponse	1	0.211	51.281	2	4	Target	Win	True
52.281	0.3	Win2	1.0	0.004	Yes	3.276	-0.004	2.0	GoodResponse	1	0.211	n/a	2	4	ButtonPress	Win	True
52.437	0.34	Win2	1.0	n/a	Yes	3.276	n/a	n/a	GoodResponse	1	n/a	n/a	2	4	Blank	Win	True
52.772	1.45	Win2	1.0	n/a	Yes	3.276	n/a	5.0	GoodResponse	1	0.032	51.804	2	4	Feedback	Win	True
54.226	3.276	Win2	1.0	n/a	Yes	3.276	n/a	n/a	GoodResponse	1	0.0	n/a	2	4	ISIslide	Win	True
57.519	0.25	Win2	1.0	0.0	Yes	2.781	0.019	n/a	GoodResponse	1	n/a	n/a	3	5	Cue	Win	True
57.77	4.0	Win2	1.0	0.0	Yes	2.781	0.001	n/a	GoodResponse	1	n/a	n/a	3	5	Fixation	Win	True
61.765	0.35	Win2	1.0	0.004	Yes	2.781	-0.004	2.0	GoodResponse	1	0.194	60.959	3	5	Target	Win	True
61.959	0.3	Win2	1.0	0.004	Yes	2.781	-0.004	2.0	GoodResponse	1	0.194	n/a	3	5	ButtonPress	Win	True
62.116	0.35	Win2	1.0	n/a	Yes	2.781	n/a	n/a	GoodResponse	1	n/a	n/a	3	5	Blank	Win	True
62.467	1.45	Win2	1.0	n/a	Yes	2.781	n/a	5.0	GoodResponse	1	0.044	61.511	3	5	Feedback	Win	True
63.922	2.781	Win2	1.0	n/a	Yes	2.781	n/a	n/a	GoodResponse	1	0.0	n/a	3	5	ISIslide	Win	True
66.73	0.25	Lose2	1.0	0.0	Yes	2.72	0.03	n/a	GoodResponse	0	n/a	n/a	3	6	Cue	AvoidedLoss	True
66.981	3.95	Lose2	1.0	0.0	Yes	2.72	0.001	n/a	GoodResponse	0	n/a	n/a	3	6	Fixation	AvoidedLoss	True
70.926	0.34	Lose2	1.0	0.004	Yes	2.72	-0.004	2.0	GoodResponse	0	0.204	70.13	3	6	Target	AvoidedLoss	True
71.13	0.3	Lose2	1.0	0.004	Yes	2.72	-0.004	2.0	GoodResponse	0	0.204	n/a	3	6	ButtonPress	AvoidedLoss	True
71.277	0.36	Lose2	1.0	n/a	Yes	2.72	n/a	n/a	GoodResponse	0	n/a	n/a	3	6	Blank	AvoidedLoss	True
71.628	1.45	Lose2	1.0	n/a	Yes	2.72	n/a	5.0	GoodResponse	0	0.007	70.635	3	6	Feedback	AvoidedLoss	True
73.082	2.72	Lose2	1.0	n/a	Yes	2.72	n/a	n/a	GoodResponse	0	0.0	n/a	3	6	ISIslide	AvoidedLoss	True
75.824	0.25	Lose2	1.0	0.0	Yes	4.026	0.024	n/a	GoodResponse	0	n/a	n/a	3	7	Cue	AvoidedLoss	True
76.075	4.05	Lose2	1.0	0.0	Yes	4.026	0.001	n/a	GoodResponse	0	n/a	n/a	3	7	Fixation	AvoidedLoss	True
80.12	0.33	Lose2	1.0	0.004	Yes	4.026	-0.004	2.0	GoodResponse	0	0.206	79.326	3	7	Target	AvoidedLoss	True
80.326	0.3	Lose2	1.0	0.004	Yes	4.026	-0.004	2.0	GoodResponse	0	0.206	n/a	3	7	ButtonPress	AvoidedLoss	True
80.454	0.37	Lose2	1.0	n/a	Yes	4.026	n/a	n/a	GoodResponse	0	n/a	n/a	3	7	Blank	AvoidedLoss	True
80.822	1.45	Lose2	1.0	n/a	Yes	4.026	n/a	5.0	GoodResponse	0	0.03	79.852	3	7	Feedback	AvoidedLoss	True
82.277	4.026	Lose2	1.0	n/a	Yes	4.026	n/a	n/a	GoodResponse	0	0.0	n/a	3	7	ISIslide	AvoidedLoss	True
86.322	0.25	Lose2	1.0	0.0	Yes	3.028	0.022	n/a	GoodResponse	0	n/a	n/a	3	8	Cue	AvoidedLoss	True
86.573	3.95	Lose2	1.0	0.0	Yes	3.028	0.001	n/a	GoodResponse	0	n/a	n/a	3	8	Fixation	AvoidedLoss	True
90.518	0.32	Lose2	1.0	0.004	Yes	3.028	-0.004	2.0	GoodResponse	0	0.195	89.713	3	8	Target	AvoidedLoss	True
90.713	0.3	Lose2	1.0	0.004	Yes	3.028	-0.004	2.0	GoodResponse	0	0.195	n/a	3	8	ButtonPress	AvoidedLoss	True
90.852	0.38	Lose2	1.0	n/a	Yes	3.028	n/a	n/a	GoodResponse	0	n/a	n/a	3	8	Blank	AvoidedLoss	True
91.22	1.45	Lose2	1.0	n/a	Yes	3.028	n/a	5.0	GoodResponse	0	0.022	90.242	3	8	Feedback	AvoidedLoss	True
92.674	3.028	Lose2	1.0	n/a	Yes	3.028	n/a	n/a	GoodResponse	0	0.0	n/a	3	8	ISIslide	AvoidedLoss	True
95.717	0.25	Lose2	1.0	0.0	Yes	3.133	0.017	n/a	GoodResponse	0	n/a	n/a	3	9	Cue	AvoidedLoss	True
95.967	3.95	Lose2	1.0	0.001	Yes	3.133	0.0	n/a	GoodResponse	0	n/a	n/a	3	9	Fixation	AvoidedLoss	True
99.913	0.31	Lose2	1.0	0.004	Yes	3.133	-0.004	2.0	GoodResponse	0	0.191	99.104	3	9	Target	AvoidedLoss	True
100.104	0.3	Lose2	1.0	0.004	Yes	3.133	-0.004	2.0	GoodResponse	0	0.191	n/a	3	9	ButtonPress	AvoidedLoss	True
100.23	0.39	Lose2	1.0	n/a	Yes	3.133	n/a	n/a	GoodResponse	0	n/a	n/a	3	9	Blank	AvoidedLoss	True
100.615	1.45	Lose2	1.0	n/a	Yes	3.133	n/a	5.0	GoodResponse	0	0.042	99.657	3	9	Feedback	AvoidedLoss	True
102.069	3.133	Lose2	1.0	n/a	Yes	3.133	n/a	n/a	GoodResponse	0	0.0	n/a	3	9	ISIslide	AvoidedLoss	True
105.228	0.25	Control	1.0	0.001	Yes	3.272	0.028	n/a	GoodResponse	0	n/a	n/a	3	10	Cue	Neutral	True
105.479	4.0	Control	1.0	0.0	Yes	3.272	0.001	n/a	GoodResponse	0	n/a	n/a	3	10	Fixation	Neutral	True
109.474	0.3	Control	1.0	0.004	Yes	3.272	-0.004	2.0	GoodResponse	0	0.212	108.686	3	10	Target	Neutral	True
109.686	0.3	Control	1.0	0.004	Yes	3.272	-0.004	2.0	GoodResponse	0	0.212	n/a	3	10	ButtonPress	Neutral	True
109.775	0.4	Control	1.0	n/a	Yes	3.272	n/a	n/a	GoodResponse	0	n/a	n/a	3	10	Blank	Neutral	True
110.177	1.45	Control	1.0	n/a	Yes	3.272	n/a	5.0	GoodResponse	0	0.04	109.217	3	10	Feedback	Neutral	True
111.631	3.272	Control	1.0	n/a	Yes	3.272	n/a	n/a	GoodResponse	0	0.0	n/a	3	10	ISIslide	Neutral	True
114.924	0.25	Lose2	1.0	0.0	Yes	2.726	0.024	n/a	GoodResponse	0	n/a	n/a	3	11	Cue	AvoidedLoss	True
115.175	4.05	Lose2	1.0	0.0	Yes	2.726	0.001	n/a	GoodResponse	0	n/a	n/a	3	11	Fixation	AvoidedLoss	True
119.22	0.29	Lose2	1.0	0.004	Yes	2.726	-0.004	2.0	GoodResponse	0	0.195	118.415	3	11	Target	AvoidedLoss	True
119.415	0.3	Lose2	1.0	0.004	Yes	2.726	-0.004	2.0	GoodResponse	0	0.195	n/a	3	11	ButtonPress	AvoidedLoss	True
119.521	0.41	Lose2	1.0	n/a	Yes	2.726	n/a	n/a	GoodResponse	0	n/a	n/a	3	11	Blank	AvoidedLoss	True
119.922	1.45	Lose2	1.0	n/a	Yes	2.726	n/a	5.0	GoodResponse	0	0.002	118.924	3	11	Feedback	AvoidedLoss	True
121.377	2.726	Lose2	1.0	n/a	Yes	2.726	n/a	n/a	GoodResponse	0	0.0	n/a	3	11	ISIslide	AvoidedLoss	True
124.118	0.25	Control	1.0	0.0	Yes	2.982	0.018	n/a	GoodResponse	0	n/a	n/a	3	12	Cue	Neutral	True
124.369	3.9	Control	1.0	0.0	Yes	2.982	0.001	n/a	GoodResponse	0	n/a	n/a	3	12	Fixation	Neutral	True
128.264	0.28	Control	1.0	0.004	Yes	2.982	-0.004	2.0	GoodResponse	0	0.237	127.501	3	12	Target	Neutral	True
128.501	0.3	Control	1.0	0.004	Yes	2.982	-0.004	2.0	GoodResponse	0	0.237	n/a	3	12	ButtonPress	Neutral	True
128.548	0.42	Control	1.0	n/a	Yes	2.982	n/a	n/a	GoodResponse	0	n/a	n/a	3	12	Blank	Neutral	True
128.966	1.45	Control	1.0	n/a	Yes	2.982	n/a	5.0	GoodResponse	0	0.032	127.998	3	12	Feedback	Neutral	True
130.42	2.982	Control	1.0	n/a	Yes	2.982	n/a	n/a	GoodResponse	0	0.0	n/a	3	12	ISIslide	Neutral	True
133.429	0.25	Control	0.9286	0.0	No	2.771	0.029	n/a	LatePress	0	n/a	n/a	3	13	Cue	Neutral	True
133.68	4.0	Control	0.9286	0.0	No	2.771	0.001	n/a	LatePress	0	n/a	n/a	3	13	Fixation	Neutral	True
137.675	0.27	Control	0.9286	0.004	No	2.771	-0.004	2.0	LatePress	0	0.271	136.946	3	13	Target	Neutral	True
137.946	0.3	Control	0.9286	0.004	No	2.771	-0.004	2.0	LatePress	0	0.271	n/a	3	13	ButtonPress	Neutral	True
137.96	0.43	Control	0.9286	n/a	No	2.771	n/a	n/a	LatePress	0	n/a	n/a	3	13	Blank	Neutral	True
138.377	1.45	Control	0.9286	n/a	No	2.771	n/a	5.0	LatePress	0	0.035	137.412	3	13	Feedback	Neutral	True
139.832	2.771	Control	0.9286	n/a	No	2.771	n/a	n/a	LatePress	0	0.0	n/a	3	13	ISIslide	Neutral	True
142.623	0.25	Win2	0.9333	0.001	Yes	2.677	0.023	n/a	GoodResponse	1	n/a	n/a	4	14	Cue	Win	True
142.874	4.1	Win2	0.9333	0.0	Yes	2.677	0.001	n/a	GoodResponse	1	n/a	n/a	4	14	Fixation	Win	True
146.97	0.26	Win2	0.9333	0.003	Yes	2.677	-0.003	2.0	GoodResponse	1	0.214	146.184	4	14	Target	Win	True
147.184	0.3	Win2	0.9333	0.003	Yes	2.677	-0.003	2.0	GoodResponse	1	0.214	n/a	4	14	ButtonPress	Win	True
147.237	0.44	Win2	0.9333	n/a	Yes	2.677	n/a	n/a	GoodResponse	1	n/a	n/a	4	14	Blank	Win	True
147.672	1.45	Win2	0.9333	n/a	Yes	2.677	n/a	5.0	GoodResponse	1	0.008	146.68	4	14	Feedback	Win	True
149.126	2.677	Win2	0.9333	n/a	Yes	2.677	n/a	n/a	GoodResponse	1	0.0	n/a	4	14	ISIslide	Win	True
151.818	0.25	Control	0.9375	0.0	Yes	2.982	0.018	n/a	GoodResponse	0	n/a	n/a	4	15	Cue	Neutral	True
152.068	4.0	Control	0.9375	0.0	Yes	2.982	0.0	n/a	GoodResponse	0	n/a	n/a	4	15	Fixation	Neutral	True
156.064	0.25	Control	0.9375	0.004	Yes	2.982	-0.004	2.0	GoodResponse	0	0.24	155.304	4	15	Target	Neutral	True
156.304	0.3	Control	0.9375	0.004	Yes	2.982	-0.004	2.0	GoodResponse	0	0.24	n/a	4	15	ButtonPress	Neutral	True
156.314	0.45	Control	0.9375	n/a	Yes	2.982	n/a	n/a	GoodResponse	0	n/a	n/a	4	15	Blank	Neutral	True
156.766	1.45	Control	0.9375	n/a	Yes	2.982	n/a	5.0	GoodResponse	0	0.036	155.802	4	15	Feedback	Neutral	True
158.22	2.982	Control	0.9375	n/a	Yes	2.982	n/a	n/a	GoodResponse	0	0.0	n/a	4	15	ISIslide	Neutral	True
161.229	0.25	Win2	0.9412	0.0	Yes	2.871	0.029	n/a	GoodResponse	1	n/a	n/a	5	16	Cue	Win	True
161.48	4.0	Win2	0.9412	0.0	Yes	2.871	0.001	n/a	GoodResponse	1	n/a	n/a	5	16	Fixation	Win	True
165.475	0.24	Win2	0.9412	0.004	Yes	2.871	-0.004	2.0	GoodResponse	1	0.178	164.653	5	16	Target	Win	True
165.653	0.3	Win2	0.9412	0.004	Yes	2.871	-0.004	2.0	GoodResponse	1	0.178	n/a	5	16	ButtonPress	Win	True
165.726	0.46	Win2	0.9412	n/a	Yes	2.871	n/a	n/a	GoodResponse	1	n/a	n/a	5	16	Blank	Win	True
166.177	1.45	Win2	0.9412	n/a	Yes	2.871	n/a	5.0	GoodResponse	1	0.04	165.217	5	16	Feedback	Win	True
167.632	2.871	Win2	0.9412	n/a	Yes	2.871	n/a	n/a	GoodResponse	1	0.0	n/a	5	16	ISIslide	Win	True
170.523	0.25	Lose2	0.9444	0.001	Yes	2.727	0.023	n/a	GoodResponse	0	n/a	n/a	5	17	Cue	AvoidedLoss	True
170.774	3.95	Lose2	0.9444	0.0	Yes	2.727	0.001	n/a	GoodResponse	0	n/a	n/a	5	17	Fixation	AvoidedLoss	True
174.719	0.23	Lose2	0.9444	0.004	Yes	2.727	-0.004	2.0	GoodResponse	0	0.22	173.939	5	17	Target	AvoidedLoss	True
174.939	0.3	Lose2	0.9444	0.004	Yes	2.727	-0.004	2.0	GoodResponse	0	0.22	n/a	5	17	ButtonPress	AvoidedLoss	True
174.953	0.47	Lose2	0.9444	n/a	Yes	2.727	n/a	n/a	GoodResponse	0	n/a	n/a	5	17	Blank	AvoidedLoss	True
175.421	1.45	Lose2	0.9444	n/a	Yes	2.727	n/a	5.0	GoodResponse	0	0.015	174.436	5	17	Feedback	AvoidedLoss	True
176.876	2.727	Lose2	0.9444	n/a	Yes	2.727	n/a	n/a	GoodResponse	0	0.0	n/a	5	17	ISIslide	AvoidedLoss	True
179.617	0.25	Lose2	0.9473999999999999	0.0	Yes	2.733	0.017	n/a	GoodResponse	0	n/a	n/a	5	18	Cue	AvoidedLoss	True
179.868	4.05	Lose2	0.9473999999999999	0.0	Yes	2.733	0.001	n/a	GoodResponse	0	n/a	n/a	5	18	Fixation	AvoidedLoss	True
183.913	0.22	Lose2	0.9473999999999999	0.004	Yes	2.733	-0.004	2.0	GoodResponse	0	0.189	183.102	5	18	Target	AvoidedLoss	True
184.102	0.3	Lose2	0.9473999999999999	0.004	Yes	2.733	-0.004	2.0	GoodResponse	0	0.189	n/a	5	18	ButtonPress	AvoidedLoss	True
184.148	0.48	Lose2	0.9473999999999999	n/a	Yes	2.733	n/a	n/a	GoodResponse	0	n/a	n/a	5	18	Blank	AvoidedLoss	True
184.616	1.45	Lose2	0.9473999999999999	n/a	Yes	2.733	n/a	5.0	GoodResponse	0	0.039	183.655	5	18	Feedback	AvoidedLoss	True
186.07	2.733	Lose2	0.9473999999999999	n/a	Yes	2.733	n/a	n/a	GoodResponse	0	0.0	n/a	5	18	ISIslide	AvoidedLoss	True
188.828	0.25	Control	0.9	0.0	No	2.922	0.028	n/a	NoResponse	0	n/a	n/a	5	19	Cue	Neutral	True
189.079	3.95	Control	0.9	0.0	No	2.922	0.001	n/a	NoResponse	0	n/a	n/a	5	19	Fixation	Neutral	True
193.024	0.21	Control	0.9	0.004	No	2.922	-0.004	2.0	NoResponse	0	0.248	192.272	5	19	Target	Neutral	True
193.241	0.49	Control	0.9	n/a	No	2.922	n/a	n/a	NoResponse	0	n/a	n/a	5	19	Blank	Neutral	True
193.272	0.3	Control	0.9	0.004	No	2.922	-0.004	2.0	NoResponse	0	0.248	n/a	5	19	ButtonPress	Neutral	True
193.726	1.45	Control	0.9	n/a	No	2.922	n/a	5.0	NoResponse	0	0.002	192.728	5	19	Feedback	Neutral	True
195.18	2.922	Control	0.9	n/a	No	2.922	n/a	n/a	NoResponse	0	0.0	n/a	5	19	ISIslide	Neutral	True
198.123	0.25	Control	0.8571	0.0	No	2.627	0.023	n/a	NoResponse	0	n/a	n/a	5	20	Cue	Neutral	True
198.373	4.05	Control	0.8571	0.0	No	2.627	0.0	n/a	NoResponse	0	n/a	n/a	5	20	Fixation	Neutral	True
202.419	0.2	Control	0.8571	0.004	No	2.627	-0.004	2.0	NoResponse	0	0.204	201.623	5	20	Target	Neutral	True
202.619	0.5	Control	0.8571	n/a	No	2.627	n/a	n/a	NoResponse	0	n/a	n/a	5	20	Blank	Neutral	True
202.623	0.3	Control	0.8571	0.004	No	2.627	-0.004	2.0	NoResponse	0	0.204	n/a	5	20	ButtonPress	Neutral	True
203.121	1.45	Control	0.8571	n/a	No	2.627	n/a	5.0	NoResponse	0	0.022	202.143	5	20	Feedback	Neutral	True
204.575	2.627	Control	0.8571	n/a	No	2.627	n/a	n/a	NoResponse	0	0.0	n/a	5	20	ISIslide	Neutral	True
207.216	0.25	Control	0.8181999999999999	0.001	No	2.784	0.016	n/a	NoResponse	0	n/a	n/a	5	21	Cue	Neutral	True
207.467	4.1	Control	0.8181999999999999	0.0	No	2.784	0.001	n/a	NoResponse	0	n/a	n/a	5	21	Fixation	Neutral	True
211.563	0.19	Control	0.8181999999999999	0.003	No	2.784	-0.003	2.0	NoResponse	0	0.234	210.797	5	21	Target	Neutral	True
211.763	0.51	Control	0.8181999999999999	n/a	No	2.784	n/a	n/a	NoResponse	0	n/a	n/a	5	21	Blank	Neutral	True
211.797	0.3	Control	0.8181999999999999	0.003	No	2.784	-0.003	2.0	NoResponse	0	0.234	n/a	5	21	ButtonPress	Neutral	True
212.265	1.45	Control	0.8181999999999999	n/a	No	2.784	n/a	5.0	NoResponse	0	0.049	211.314	5	21	Feedback	Neutral	True
213.719	2.784	Control	0.8181999999999999	n/a	No	2.784	n/a	n/a	NoResponse	0	0.0	n/a	5	21	ISIslide	Neutral	True
216.528	0.25	Control	0.7826000000000001	0.0	No	2.772	0.028	n/a	NoResponse	0	n/a	n/a	5	22	Cue	Neutral	True
216.778	4.0	Control	0.7826000000000001	0.0	No	2.772	0.0	n/a	NoResponse	0	n/a	n/a	5	22	Fixation	Neutral	True
220.774	0.18	Control	0.7826000000000001	0.004	No	2.772	-0.004	2.0	NoResponse	0	0.198	219.972	5	22	Target	Neutral	True
220.957	0.52	Control	0.7826000000000001	n/a	No	2.772	n/a	n/a	NoResponse	0	n/a	n/a	5	22	Blank	Neutral	True
220.972	0.3	Control	0.7826000000000001	0.004	No	2.772	-0.004	2.0	NoResponse	0	0.198	n/a	5	22	ButtonPress	Neutral	True
221.476	1.45	Control	0.7826000000000001	n/a	No	2.772	n/a	5.0	NoResponse	0	0.007	220.483	5	22	Feedback	Neutral	True
222.93	2.772	Control	0.7826000000000001	n/a	No	2.772	n/a	n/a	NoResponse	0	0.0	n/a	5	22	ISIslide	Neutral	True
225.722	0.25	Control	0.75	0.0	No	2.778	0.022	n/a	NoResponse	0	n/a	n/a	5	23	Cue	Neutral	True
225.972	3.9	Control	0.75	0.001	No	2.778	0.0	n/a	NoResponse	0	n/a	n/a	5	23	Fixation	Neutral	True
229.867	0.17	Control	0.75	0.005	No	2.778	-0.005	2.0	NoResponse	0	0.245	229.112	5	23	Target	Neutral	True
230.051	0.53	Control	0.75	n/a	No	2.778	n/a	n/a	NoResponse	0	n/a	n/a	5	23	Blank	Neutral	True
230.112	0.3	Control	0.75	0.005	No	2.778	-0.005	2.0	NoResponse	0	0.245	n/a	5	23	ButtonPress	Neutral	True
230.569	1.45	Control	0.75	n/a	No	2.778	n/a	5.0	NoResponse	0	0.037	229.606	5	23	Feedback	Neutral	True
232.024	2.778	Control	0.75	n/a	No	2.778	n/a	n/a	NoResponse	0	0.0	n/a	5	23	ISIslide	Neutral	True
234.815	0.25	Win2	0.72	0.001	No	3.135	0.015	n/a	NoResponse	0	n/a	n/a	5	24	Cue	MissedWin	True
235.066	3.95	Win2	0.72	0.0	No	3.135	0.001	n/a	NoResponse	0	n/a	n/a	5	24	Fixation	MissedWin	True
239.011	0.16	Win2	0.72	0.004	No	3.135	-0.004	2.0	NoResponse	0	0.194	238.205	5	24	Target	MissedWin	True
239.179	0.54	Win2	0.72	n/a	No	3.135	n/a	n/a	NoResponse	0	n/a	n/a	5	24	Blank	MissedWin	True
239.205	0.3	Win2	0.72	0.004	No	3.135	-0.004	2.0	NoResponse	0	0.194	n/a	5	24	ButtonPress	MissedWin	True
239.713	1.45	Win2	0.72	n/a	No	3.135	n/a	5.0	NoResponse	0	0.015	238.728	5	24	Feedback	MissedWin	True
241.168	3.135	Win2	0.72	n/a	No	3.135	n/a	n/a	NoResponse	0	0.0	n/a	5	24	ISIslide	MissedWin	True
244.327	0.25	Win2	0.6923	0.0	No	3.073	0.027	n/a	NoResponse	0	n/a	n/a	5	25	Cue	MissedWin	True
244.578	4.0	Win2	0.6923	0.0	No	3.073	0.001	n/a	NoResponse	0	n/a	n/a	5	25	Fixation	MissedWin	True
248.573	0.15	Win2	0.6923	0.004	No	3.073	-0.004	2.0	NoResponse	0	0.196	247.769	5	25	Target	MissedWin	True
248.724	0.55	Win2	0.6923	n/a	No	3.073	n/a	n/a	NoResponse	0	n/a	n/a	5	25	Blank	MissedWin	True
248.769	0.3	Win2	0.6923	0.004	No	3.073	-0.004	2.0	NoResponse	0	0.196	n/a	5	25	ButtonPress	MissedWin	True
249.275	1.45	Win2	0.6923	n/a	No	3.073	n/a	5.0	NoResponse	0	0.014	248.289	5	25	Feedback	MissedWin	True
250.73	3.073	Win2	0.6923	n/a	No	3.073	n/a	n/a	NoResponse	0	0.0	n/a	5	25	ISIslide	MissedWin	True
253.822	0.25	Win2	0.7037	0.0	Yes	2.928	0.022	n/a	GoodResponse	1	n/a	n/a	6	26	Cue	Win	True
254.073	3.95	Win2	0.7037	0.0	Yes	2.928	0.001	n/a	GoodResponse	1	n/a	n/a	6	26	Fixation	Win	True
258.018	0.15	Win2	0.7037	0.004	Yes	2.928	-0.004	2.0	GoodResponse	1	0.147	257.165	6	26	Target	Win	True
258.165	0.3	Win2	0.7037	0.004	Yes	2.928	-0.004	2.0	GoodResponse	1	0.147	n/a	6	26	ButtonPress	Win	True
258.169	0.55	Win2	0.7037	n/a	Yes	2.928	n/a	n/a	GoodResponse	1	n/a	n/a	6	26	Blank	Win	True
258.72	1.45	Win2	0.7037	n/a	Yes	2.928	n/a	5.0	GoodResponse	1	0.031	257.751	6	26	Feedback	Win	True
260.175	2.928	Win2	0.7037	n/a	Yes	2.928	n/a	n/a	GoodResponse	1	0.0	n/a	6	26	ISIslide	Win	True
263.117	0.25	Lose2	0.6786	0.0	No	2.833	0.017	n/a	PrematurePress	-1	n/a	n/a	5	27	Cue	Loss	False
263.367	4.05	Lose2	0.6786	0.0	No	2.833	0.0	2.0	PrematurePress	-1	3.599	265.966	5	27	Fixation	Loss	False
266.966	0.3	Lose2	0.6786	0.0	No	2.833	0.0	2.0	PrematurePress	-1	3.599	n/a	5	27	ButtonPress	Loss	False
267.413	0.15	Lose2	0.6786	0.004	No	2.833	-0.004	2.0	PrematurePress	-1	0.039	266.452	5	27	Target	Loss	False
267.452	0.3	Lose2	0.6786	0.004	No	2.833	-0.004	2.0	PrematurePress	-1	0.039	n/a	5	27	ButtonPress	Loss	False
267.563	0.55	Lose2	0.6786	n/a	No	2.833	n/a	n/a	PrematurePress	-1	n/a	n/a	5	27	Blank	Loss	False
268.115	1.45	Lose2	0.6786	n/a	No	2.833	n/a	5.0	PrematurePress	-1	0.002	267.117	5	27	Feedback	Loss	False
269.569	2.833	Lose2	0.6786	n/a	No	2.833	n/a	n/a	PrematurePress	-1	0.0	n/a	5	27	ISIslide	Loss	False
272.428	0.25	Control	0.6552	0.0	No	2.822	0.028	n/a	NoResponse	0	n/a	n/a	5	28	Cue	Neutral	True
272.679	4.05	Control	0.6552	0.0	No	2.822	0.001	n/a	NoResponse	0	n/a	n/a	5	28	Fixation	Neutral	True
276.724	0.15	Control	0.6552	0.004	No	2.822	-0.004	2.0	NoResponse	0	0.235	275.959	5	28	Target	Neutral	True
276.874	0.55	Control	0.6552	n/a	No	2.822	n/a	n/a	NoResponse	0	n/a	n/a	5	28	Blank	Neutral	True
276.959	0.3	Control	0.6552	0.004	No	2.822	-0.004	2.0	NoResponse	0	0.235	n/a	5	28	ButtonPress	Neutral	True
277.426	1.45	Control	0.6552	n/a	No	2.822	n/a	5.0	NoResponse	0	0.008	276.434	5	28	Feedback	Neutral	True
278.88	2.822	Control	0.6552	n/a	No	2.822	n/a	n/a	NoResponse	0	0.0	n/a	5	28	ISIslide	Neutral	True
281.722	0.25	Lose2	0.6667000000000001	0.0	Yes	2.828	0.022	n/a	GoodResponse	0	n/a	n/a	5	29	Cue	AvoidedLoss	True
281.973	3.95	Lose2	0.6667000000000001	0.0	Yes	2.828	0.001	n/a	GoodResponse	0	n/a	n/a	5	29	Fixation	AvoidedLoss	True
285.918	0.15	Lose2	0.6667000000000001	0.004	Yes	2.828	-0.004	2.0	GoodResponse	0	0.146	285.064	5	29	Target	AvoidedLoss	True
286.064	0.3	Lose2	0.6667000000000001	0.004	Yes	2.828	-0.004	2.0	GoodResponse	0	0.146	n/a	5	29	ButtonPress	AvoidedLoss	True
286.069	0.55	Lose2	0.6667000000000001	n/a	Yes	2.828	n/a	n/a	GoodResponse	0	n/a	n/a	5	29	Blank	AvoidedLoss	True
286.62	1.45	Lose2	0.6667000000000001	n/a	Yes	2.828	n/a	5.0	GoodResponse	0	0.034	285.654	5	29	Feedback	AvoidedLoss	True
288.075	2.828	Lose2	0.6667000000000001	n/a	Yes	2.828	n/a	n/a	GoodResponse	0	0.0	n/a	5	29	ISIslide	AvoidedLoss	True
290.916	0.25	Win2	0.6452	0.0	No	2.784	0.016	n/a	NoResponse	0	n/a	n/a	5	30	Cue	MissedWin	True
291.167	3.9	Win2	0.6452	0.0	No	2.784	0.001	n/a	NoResponse	0	n/a	n/a	5	30	Fixation	MissedWin	True
295.062	0.15	Win2	0.6452	0.004	No	2.784	-0.004	2.0	NoResponse	0	0.259	294.321	5	30	Target	MissedWin	True
295.213	0.55	Win2	0.6452	n/a	No	2.784	n/a	n/a	NoResponse	0	n/a	n/a	5	30	Blank	MissedWin	True
295.321	0.3	Win2	0.6452	0.004	No	2.784	-0.004	2.0	NoResponse	0	0.259	n/a	5	30	ButtonPress	MissedWin	True
295.764	1.45	Win2	0.6452	n/a	No	2.784	n/a	5.0	NoResponse	0	0.011	294.775	5	30	Feedback	MissedWin	True
297.219	2.784	Win2	0.6452	n/a	No	2.784	n/a	n/a	NoResponse	0	0.0	n/a	5	30	ISIslide	MissedWin	True
300.027	0.25	Lose2	0.625	0.0	No	2.823	0.027	n/a	NoResponse	-1	n/a	n/a	4	31	Cue	Loss	True
300.278	4.05	Lose2	0.625	0.0	No	2.823	0.001	n/a	NoResponse	-1	n/a	n/a	4	31	Fixation	Loss	True
304.323	0.16	Lose2	0.625	0.004	No	2.823	-0.004	2.0	NoResponse	-1	0.176	303.499	4	31	Target	Loss	True
304.49	0.54	Lose2	0.625	n/a	No	2.823	n/a	n/a	NoResponse	-1	n/a	n/a	4	31	Blank	Loss	True
304.499	0.3	Lose2	0.625	0.004	No	2.823	-0.004	2.0	NoResponse	-1	0.176	n/a	4	31	ButtonPress	Loss	True
305.025	1.45	Lose2	0.625	n/a	No	2.823	n/a	5.0	NoResponse	-1	0.018	304.043	4	31	Feedback	Loss	True
306.48	2.823	Lose2	0.625	n/a	No	2.823	n/a	2.0	NoResponse	-1	2.562	n/a	4	31	ISIslide	Loss	True
309.305	0.25	Lose2	0.6061	0.0	No	2.645	0.005	n/a	NoResponse	-1	n/a	n/a	3	32	Cue	Loss	True
309.555	4.15	Lose2	0.6061	0.0	No	2.645	0.0	n/a	NoResponse	-1	n/a	n/a	3	32	Fixation	Loss	True
313.701	0.17	Lose2	0.6061	0.004	No	2.645	-0.004	2.0	NoResponse	-1	0.193	312.894	3	32	Target	Loss	True
313.885	0.53	Lose2	0.6061	n/a	No	2.645	n/a	n/a	NoResponse	-1	n/a	n/a	3	32	Blank	Loss	True
313.894	0.3	Lose2	0.6061	0.004	No	2.645	-0.004	2.0	NoResponse	-1	0.193	n/a	3	32	ButtonPress	Loss	True
314.403	1.45	Lose2	0.6061	n/a	No	2.645	n/a	5.0	NoResponse	-1	0.007	313.41	3	32	Feedback	Loss	True
315.858	2.645	Lose2	0.6061	n/a	No	2.645	n/a	n/a	NoResponse	-1	0.0	n/a	3	32	ISIslide	Loss	True
318.515	0.25	Win2	0.6175999999999999	0.001	Yes	2.685	0.015	n/a	GoodResponse	1	n/a	n/a	4	33	Cue	Win	True
318.766	4.0	Win2	0.6175999999999999	0.0	Yes	2.685	0.001	n/a	GoodResponse	1	n/a	n/a	4	33	Fixation	Win	True
322.761	0.18	Win2	0.6175999999999999	0.004	Yes	2.685	-0.004	2.0	GoodResponse	1	0.177	321.938	4	33	Target	Win	True
322.938	0.3	Win2	0.6175999999999999	0.004	Yes	2.685	-0.004	2.0	GoodResponse	1	0.177	n/a	4	33	ButtonPress	Win	True
322.945	0.52	Win2	0.6175999999999999	n/a	Yes	2.685	n/a	n/a	GoodResponse	1	n/a	n/a	4	33	Blank	Win	True
323.464	1.45	Win2	0.6175999999999999	n/a	Yes	2.685	n/a	5.0	GoodResponse	1	0.019	322.483	4	33	Feedback	Win	True
324.918	2.685	Win2	0.6175999999999999	n/a	Yes	2.685	n/a	n/a	GoodResponse	1	0.0	n/a	4	33	ISIslide	Win	True
327.626	0.25	Lose2	0.6	0.0	No	2.624	0.026	n/a	LatePress	-1	n/a	n/a	3	34	Cue	Loss	True
327.877	4.05	Lose2	0.6	0.0	No	2.624	0.001	n/a	LatePress	-1	n/a	n/a	3	34	Fixation	Loss	True
331.922	0.19	Lose2	0.6	0.004	No	2.624	-0.004	2.0	LatePress	-1	0.19	331.112	3	34	Target	Loss	True
332.112	0.3	Lose2	0.6	0.004	No	2.624	-0.004	2.0	LatePress	-1	0.19	n/a	3	34	ButtonPress	Loss	True
332.123	0.51	Lose2	0.6	n/a	No	2.624	n/a	n/a	LatePress	-1	n/a	n/a	3	34	Blank	Loss	True
332.624	1.45	Lose2	0.6	n/a	No	2.624	n/a	5.0	LatePress	-1	0.028	331.652	3	34	Feedback	Loss	True
334.079	2.624	Lose2	0.6	n/a	No	2.624	n/a	n/a	LatePress	-1	0.0	n/a	3	34	ISIslide	Loss	True
336.72	0.25	Lose2	0.6111	0.0	Yes	2.68	0.02	n/a	GoodResponse	0	n/a	n/a	3	35	Cue	AvoidedLoss	True
336.971	4.0	Lose2	0.6111	0.0	Yes	2.68	0.001	n/a	GoodResponse	0	n/a	n/a	3	35	Fixation	AvoidedLoss	True
340.966	0.2	Lose2	0.6111	0.004	Yes	2.68	-0.004	2.0	GoodResponse	0	0.173	340.139	3	35	Target	AvoidedLoss	True
341.139	0.3	Lose2	0.6111	0.004	Yes	2.68	-0.004	2.0	GoodResponse	0	0.173	n/a	3	35	ButtonPress	AvoidedLoss	True
341.166	0.5	Lose2	0.6111	n/a	Yes	2.68	n/a	n/a	GoodResponse	0	n/a	n/a	3	35	Blank	AvoidedLoss	True
341.668	1.45	Lose2	0.6111	n/a	Yes	2.68	n/a	5.0	GoodResponse	0	0.009	340.677	3	35	Feedback	AvoidedLoss	True
343.122	2.68	Lose2	0.6111	n/a	Yes	2.68	n/a	n/a	GoodResponse	0	0.0	n/a	3	35	ISIslide	AvoidedLoss	True
345.83	0.25	Control	0.6215999999999999	0.0	Yes	2.67	0.03	n/a	GoodResponse	0	n/a	n/a	3	36	Cue	Neutral	True
346.081	4.0	Control	0.6215999999999999	0.0	Yes	2.67	0.001	n/a	GoodResponse	0	n/a	n/a	3	36	Fixation	Neutral	True
350.076	0.21	Control	0.6215999999999999	0.004	Yes	2.67	-0.004	2.0	GoodResponse	0	0.205	349.281	3	36	Target	Neutral	True
350.281	0.3	Control	0.6215999999999999	0.004	Yes	2.67	-0.004	2.0	GoodResponse	0	0.205	n/a	3	36	ButtonPress	Neutral	True
350.294	0.49	Control	0.6215999999999999	n/a	Yes	2.67	n/a	n/a	GoodResponse	0	n/a	n/a	3	36	Blank	Neutral	True
350.778	1.45	Control	0.6215999999999999	n/a	Yes	2.67	n/a	5.0	GoodResponse	0	0.021	349.799	3	36	Feedback	Neutral	True
352.233	2.67	Control	0.6215999999999999	n/a	Yes	2.67	n/a	n/a	GoodResponse	0	0.0	n/a	3	36	ISIslide	Neutral	True
354.924	0.25	Win2	0.6315999999999999	0.0	Yes	2.876	0.024	n/a	GoodResponse	1	n/a	n/a	4	37	Cue	Win	True
355.175	4.0	Win2	0.6315999999999999	0.0	Yes	2.876	0.001	n/a	GoodResponse	1	n/a	n/a	4	37	Fixation	Win	True
359.17	0.22	Win2	0.6315999999999999	0.004	Yes	2.876	-0.004	2.0	GoodResponse	1	0.198	358.368	4	37	Target	Win	True
359.368	0.3	Win2	0.6315999999999999	0.004	Yes	2.876	-0.004	2.0	GoodResponse	1	0.198	n/a	4	37	ButtonPress	Win	True
359.404	0.48	Win2	0.6315999999999999	n/a	Yes	2.876	n/a	n/a	GoodResponse	1	n/a	n/a	4	37	Blank	Win	True
359.872	1.45	Win2	0.6315999999999999	n/a	Yes	2.876	n/a	5.0	GoodResponse	1	0.049	358.921	4	37	Feedback	Win	True
361.327	2.876	Win2	0.6315999999999999	n/a	Yes	2.876	n/a	2.0	GoodResponse	1	0.731	n/a	4	37	ISIslide	Win	True
364.202	0.25	Lose2	0.6409999999999999	0.0	Yes	2.848	0.002	n/a	GoodResponse	0	n/a	n/a	4	38	Cue	AvoidedLoss	True
364.453	3.95	Lose2	0.6409999999999999	0.0	Yes	2.848	0.001	n/a	GoodResponse	0	n/a	n/a	4	38	Fixation	AvoidedLoss	True
368.398	0.23	Lose2	0.6409999999999999	0.004	Yes	2.848	-0.004	2.0	GoodResponse	0	0.221	367.619	4	38	Target	AvoidedLoss	True
368.619	0.3	Lose2	0.6409999999999999	0.004	Yes	2.848	-0.004	2.0	GoodResponse	0	0.221	n/a	4	38	ButtonPress	AvoidedLoss	True
368.632	0.47	Lose2	0.6409999999999999	n/a	Yes	2.848	n/a	n/a	GoodResponse	0	n/a	n/a	4	38	Blank	AvoidedLoss	True
369.1	1.45	Lose2	0.6409999999999999	n/a	Yes	2.848	n/a	5.0	GoodResponse	0	0.04	368.14	4	38	Feedback	AvoidedLoss	True
370.554	2.848	Lose2	0.6409999999999999	n/a	Yes	2.848	n/a	n/a	GoodResponse	0	0.0	n/a	4	38	ISIslide	AvoidedLoss	True
373.429	0.25	Win2	0.65	0.001	Yes	2.971	0.029	n/a	GoodResponse	1	n/a	n/a	5	39	Cue	Win	True
373.68	4.1	Win2	0.65	0.0	Yes	2.971	0.001	n/a	GoodResponse	1	n/a	n/a	5	39	Fixation	Win	True
377.776	0.24	Win2	0.65	0.003	Yes	2.971	-0.003	2.0	GoodResponse	1	0.157	376.933	5	39	Target	Win	True
377.933	0.3	Win2	0.65	0.003	Yes	2.971	-0.003	2.0	GoodResponse	1	0.157	n/a	5	39	ButtonPress	Win	True
378.027	0.46	Win2	0.65	n/a	Yes	2.971	n/a	n/a	GoodResponse	1	n/a	n/a	5	39	Blank	Win	True
378.478	1.45	Win2	0.65	n/a	Yes	2.971	n/a	5.0	GoodResponse	1	0.028	377.506	5	39	Feedback	Win	True
379.932	2.971	Win2	0.65	n/a	Yes	2.971	n/a	n/a	GoodResponse	1	0.0	n/a	5	39	ISIslide	Win	True
382.924	0.25	Win2	0.6585	0.001	Yes	2.726	0.024	n/a	GoodResponse	1	n/a	n/a	6	40	Cue	Win	True
383.175	3.95	Win2	0.6585	0.0	Yes	2.726	0.001	n/a	GoodResponse	1	n/a	n/a	6	40	Fixation	Win	True
387.12	0.25	Win2	0.6585	0.004	Yes	2.726	-0.004	2.0	GoodResponse	1	0.109	386.229	6	40	Target	Win	True
387.229	0.3	Win2	0.6585	0.004	Yes	2.726	-0.004	2.0	GoodResponse	1	0.109	n/a	6	40	ButtonPress	Win	True
387.371	0.45	Win2	0.6585	n/a	Yes	2.726	n/a	n/a	GoodResponse	1	n/a	n/a	6	40	Blank	Win	True
387.822	1.45	Win2	0.6585	n/a	Yes	2.726	n/a	5.0	GoodResponse	1	0.001	386.823	6	40	Feedback	Win	True
389.277	2.726	Win2	0.6585	n/a	Yes	2.726	n/a	n/a	GoodResponse	1	0.0	n/a	6	40	ISIslide	Win	True
392.018	0.25	Win2	0.6667000000000001	0.0	Yes	2.782	0.018	n/a	GoodResponse	1	n/a	n/a	7	41	Cue	Win	True
392.269	3.9	Win2	0.6667000000000001	0.0	Yes	2.782	0.001	n/a	GoodResponse	1	n/a	n/a	7	41	Fixation	Win	True
396.164	0.25	Win2	0.6667000000000001	0.004	Yes	2.782	-0.004	2.0	GoodResponse	1	0.175	395.339	7	41	Target	Win	True
396.339	0.3	Win2	0.6667000000000001	0.004	Yes	2.782	-0.004	2.0	GoodResponse	1	0.175	n/a	7	41	ButtonPress	Win	True
396.415	0.45	Win2	0.6667000000000001	n/a	Yes	2.782	n/a	n/a	GoodResponse	1	n/a	n/a	7	41	Blank	Win	True
396.866	1.45	Win2	0.6667000000000001	n/a	Yes	2.782	n/a	5.0	GoodResponse	1	0.03	395.896	7	41	Feedback	Win	True
398.32	2.782	Win2	0.6667000000000001	n/a	Yes	2.782	n/a	n/a	GoodResponse	1	0.0	n/a	7	41	ISIslide	Win	True
401.129	0.25	Control	0.6512	0.0	No	2.921	0.029	n/a	NoResponse	0	n/a	n/a	7	42	Cue	Neutral	True
401.38	3.85	Control	0.6512	0.0	No	2.921	0.001	n/a	NoResponse	0	n/a	n/a	7	42	Fixation	Neutral	True
405.241	0.24	Control	0.6512	0.0	No	2.921	0.012	2.0	NoResponse	0	0.365	404.606	7	42	Target	Neutral	True
405.475	0.46	Control	0.6512	n/a	No	2.921	n/a	n/a	NoResponse	0	n/a	n/a	7	42	Blank	Neutral	True
405.606	0.3	Control	0.6512	0.0	No	2.921	0.012	2.0	NoResponse	0	0.365	n/a	7	42	ButtonPress	Neutral	True
405.927	1.45	Control	0.6512	n/a	No	2.921	n/a	5.0	NoResponse	0	0.041	404.968	7	42	Feedback	Neutral	True
407.381	2.921	Control	0.6512	n/a	No	2.921	n/a	n/a	NoResponse	0	0.0	n/a	7	42	ISIslide	Neutral	True
410.323	0.25	Win2	0.6591	0.0	Yes	3.177	0.023	n/a	GoodResponse	1	n/a	n/a	8	43	Cue	Win	True
410.574	4.0	Win2	0.6591	0.0	Yes	3.177	0.001	n/a	GoodResponse	1	n/a	n/a	8	43	Fixation	Win	True
414.569	0.25	Win2	0.6591	0.004	Yes	3.177	-0.004	2.0	GoodResponse	1	0.163	413.732	8	43	Target	Win	True
414.732	0.3	Win2	0.6591	0.004	Yes	3.177	-0.004	2.0	GoodResponse	1	0.163	n/a	8	43	ButtonPress	Win	True
414.82	0.45	Win2	0.6591	n/a	Yes	3.177	n/a	n/a	GoodResponse	1	n/a	n/a	8	43	Blank	Win	True
415.271	1.45	Win2	0.6591	n/a	Yes	3.177	n/a	5.0	GoodResponse	1	0.014	414.285	8	43	Feedback	Win	True
416.725	3.177	Win2	0.6591	n/a	Yes	3.177	n/a	n/a	GoodResponse	1	0.0	n/a	8	43	ISIslide	Win	True
419.918	0.25	Win2	0.6667000000000001	0.0	Yes	2.982	0.018	n/a	GoodResponse	1	n/a	n/a	9	44	Cue	Win	True
420.169	4.0	Win2	0.6667000000000001	0.0	Yes	2.982	0.001	n/a	GoodResponse	1	n/a	n/a	9	44	Fixation	Win	True
424.164	0.25	Win2	0.6667000000000001	0.004	Yes	2.982	-0.004	2.0	GoodResponse	1	0.127	423.291	9	44	Target	Win	True
424.291	0.3	Win2	0.6667000000000001	0.004	Yes	2.982	-0.004	2.0	GoodResponse	1	0.127	n/a	9	44	ButtonPress	Win	True
424.415	0.45	Win2	0.6667000000000001	n/a	Yes	2.982	n/a	n/a	GoodResponse	1	n/a	n/a	9	44	Blank	Win	True
424.866	1.45	Win2	0.6667000000000001	n/a	Yes	2.982	n/a	5.0	GoodResponse	1	0.029	423.895	9	44	Feedback	Win	True
426.321	2.982	Win2	0.6667000000000001	n/a	Yes	2.982	n/a	n/a	GoodResponse	1	0.0	n/a	9	44	ISIslide	Win	True
429.33	0.25	Control	0.6739	0.0	Yes	2.87	0.03	n/a	GoodResponse	0	n/a	n/a	9	45	Cue	Neutral	True
429.58	4.1	Control	0.6739	0.001	Yes	2.87	0.0	n/a	GoodResponse	0	n/a	n/a	9	45	Fixation	Neutral	True
433.676	0.24	Control	0.6739	0.004	Yes	2.87	-0.004	2.0	GoodResponse	0	0.183	432.859	9	45	Target	Neutral	True
433.859	0.3	Control	0.6739	0.004	Yes	2.87	-0.004	2.0	GoodResponse	0	0.183	n/a	9	45	ButtonPress	Neutral	True
433.927	0.46	Control	0.6739	n/a	Yes	2.87	n/a	n/a	GoodResponse	0	n/a	n/a	9	45	Blank	Neutral	True
434.378	1.45	Control	0.6739	n/a	Yes	2.87	n/a	5.0	GoodResponse	0	0.03	433.408	9	45	Feedback	Neutral	True
435.832	2.87	Control	0.6739	n/a	Yes	2.87	n/a	n/a	GoodResponse	0	0.0	n/a	9	45	ISIslide	Neutral	True
438.724	0.25	Lose2	0.6809000000000001	0.001	Yes	3.376	0.024	n/a	GoodResponse	0	n/a	n/a	9	46	Cue	AvoidedLoss	True
438.975	4.0	Lose2	0.6809000000000001	0.0	Yes	3.376	0.001	n/a	GoodResponse	0	n/a	n/a	9	46	Fixation	AvoidedLoss	True
442.97	0.23	Lose2	0.6809000000000001	0.004	Yes	3.376	-0.004	2.0	GoodResponse	0	0.193	442.163	9	46	Target	AvoidedLoss	True
443.163	0.3	Lose2	0.6809000000000001	0.004	Yes	3.376	-0.004	2.0	GoodResponse	0	0.193	n/a	9	46	ButtonPress	AvoidedLoss	True
443.205	0.47	Lose2	0.6809000000000001	n/a	Yes	3.376	n/a	n/a	GoodResponse	0	n/a	n/a	9	46	Blank	AvoidedLoss	True
443.673	1.45	Lose2	0.6809000000000001	n/a	Yes	3.376	n/a	5.0	GoodResponse	0	0.007	442.68	9	46	Feedback	AvoidedLoss	True
445.127	3.376	Lose2	0.6809000000000001	n/a	Yes	3.376	n/a	n/a	GoodResponse	0	0.0	n/a	9	46	ISIslide	AvoidedLoss	True
448.52	0.25	Lose2	0.6667000000000001	0.0	No	2.68	0.02	n/a	PrematurePress	-1	n/a	n/a	8	47	Cue	Loss	True
448.771	4.0	Lose2	0.6667000000000001	0.0	No	2.68	0.001	n/a	PrematurePress	-1	n/a	n/a	8	47	Fixation	Loss	True
452.766	0.22	Lose2	0.6667000000000001	0.004	No	2.68	-0.004	2.0	PrematurePress	-1	0.049	451.815	8	47	Target	Loss	True
452.815	0.3	Lose2	0.6667000000000001	0.004	No	2.68	-0.004	2.0	PrematurePress	-1	0.049	n/a	8	47	ButtonPress	Loss	True
453	0.48	Lose2	0.6667000000000001	n/a	No	2.68	n/a	n/a	PrematurePress	-1	n/a	n/a	8	47	Blank	Loss	True
453.468	1.45	Lose2	0.6667000000000001	n/a	No	2.68	n/a	5.0	PrematurePress	-1	0.012	452.48	8	47	Feedback	Loss	True
454.923	2.68	Lose2	0.6667000000000001	n/a	No	2.68	n/a	n/a	PrematurePress	-1	0.0	n/a	8	47	ISIslide	Loss	True
457.631	0.25	Lose2	0.6735	0.0	Yes	3.019	0.031	n/a	GoodResponse	0	n/a	n/a	8	48	Cue	AvoidedLoss	True
457.882	3.95	Lose2	0.6735	0.0	Yes	3.019	0.001	n/a	GoodResponse	0	n/a	n/a	8	48	Fixation	AvoidedLoss	True
461.827	0.21	Lose2	0.6735	0.004	Yes	3.019	-0.004	2.0	GoodResponse	0	0.207	461.034	8	48	Target	AvoidedLoss	True
462.034	0.3	Lose2	0.6735	0.004	Yes	3.019	-0.004	2.0	GoodResponse	0	0.207	n/a	8	48	ButtonPress	AvoidedLoss	True
462.044	0.49	Lose2	0.6735	n/a	Yes	3.019	n/a	n/a	GoodResponse	0	n/a	n/a	8	48	Blank	AvoidedLoss	True
462.529	1.45	Lose2	0.6735	n/a	Yes	3.019	n/a	5.0	GoodResponse	0	0.024	461.553	8	48	Feedback	AvoidedLoss	True
463.983	3.019	Lose2	0.6735	n/a	Yes	3.019	n/a	n/a	GoodResponse	0	0.0	n/a	8	48	ISIslide	AvoidedLoss	True
467.026	0.25	Control	0.66	0.0	No	2.874	0.026	n/a	LatePress	0	n/a	n/a	8	49	Cue	Neutral	True
467.276	4.0	Control	0.66	0.0	No	2.874	0.0	n/a	LatePress	0	n/a	n/a	8	49	Fixation	Neutral	True
471.272	0.2	Control	0.66	0.004	No	2.874	-0.004	2.0	LatePress	0	0.201	470.473	8	49	Target	Neutral	True
471.472	0.5	Control	0.66	n/a	No	2.874	n/a	n/a	LatePress	0	n/a	n/a	8	49	Blank	Neutral	True
471.473	0.3	Control	0.66	0.004	No	2.874	-0.004	2.0	LatePress	0	0.201	n/a	8	49	ButtonPress	Neutral	True
471.974	1.45	Control	0.66	n/a	No	2.874	n/a	5.0	LatePress	0	0.043	471.017	8	49	Feedback	Neutral	True
473.428	2.874	Control	0.66	n/a	No	2.874	n/a	n/a	LatePress	0	0.0	n/a	8	49	ISIslide	Neutral	True
476.32	0.25	Control	0.6667000000000001	0.0	Yes	2.78	0.02	n/a	GoodResponse	0	n/a	n/a	8	50	Cue	Neutral	True
476.571	4.0	Control	0.6667000000000001	0.0	Yes	2.78	0.001	n/a	GoodResponse	0	n/a	n/a	8	50	Fixation	Neutral	True
480.566	0.2	Control	0.6667000000000001	0.004	Yes	2.78	-0.004	2.0	GoodResponse	0	0.187	479.753	8	50	Target	Neutral	True
480.753	0.3	Control	0.6667000000000001	0.004	Yes	2.78	-0.004	2.0	GoodResponse	0	0.187	n/a	8	50	ButtonPress	Neutral	True
480.767	0.5	Control	0.6667000000000001	n/a	Yes	2.78	n/a	n/a	GoodResponse	0	n/a	n/a	8	50	Blank	Neutral	True
481.268	1.45	Control	0.6667000000000001	n/a	Yes	2.78	n/a	5.0	GoodResponse	0	0.016	480.284	8	50	Feedback	Neutral	True
482.723	2.78	Control	0.6667000000000001	n/a	Yes	2.78	n/a	n/a	GoodResponse	0	0.0	n/a	8	50	ISIslide	Neutral	True
485.514	0.25	Control	0.6537999999999999	0.0	No	2.736	0.014	n/a	NoResponse	0	n/a	n/a	8	51	Cue	Neutral	True
485.765	3.95	Control	0.6537999999999999	0.0	No	2.736	0.001	n/a	NoResponse	0	n/a	n/a	8	51	Fixation	Neutral	True
489.71	0.19	Control	0.6537999999999999	0.004	No	2.736	-0.004	2.0	NoResponse	0	0.209	488.919	8	51	Target	Neutral	True
489.911	0.51	Control	0.6537999999999999	n/a	No	2.736	n/a	n/a	NoResponse	0	n/a	n/a	8	51	Blank	Neutral	True
489.919	0.3	Control	0.6537999999999999	0.004	No	2.736	-0.004	2.0	NoResponse	0	0.209	n/a	8	51	ButtonPress	Neutral	True
490.412	1.45	Control	0.6537999999999999	n/a	No	2.736	n/a	5.0	NoResponse	0	0.043	489.455	8	51	Feedback	Neutral	True
491.866	2.736	Control	0.6537999999999999	n/a	No	2.736	n/a	n/a	NoResponse	0	0.0	n/a	8	51	ISIslide	Neutral	True
494.625	0.25	Control	0.6415000000000001	0.0	No	2.625	0.025	n/a	PrematurePress	0	n/a	n/a	8	52	Cue	Neutral	True
494.875	4.05	Control	0.6415000000000001	0.001	No	2.625	0.0	n/a	PrematurePress	0	n/a	n/a	8	52	Fixation	Neutral	True
498.921	0.2	Control	0.6415000000000001	0.004	No	2.625	-0.004	2.0	PrematurePress	0	0.058	497.979	8	52	Target	Neutral	True
498.979	0.3	Control	0.6415000000000001	0.004	No	2.625	-0.004	2.0	PrematurePress	0	0.058	n/a	8	52	ButtonPress	Neutral	True
499.122	0.5	Control	0.6415000000000001	n/a	No	2.625	n/a	n/a	PrematurePress	0	n/a	n/a	8	52	Blank	Neutral	True
499.623	1.45	Control	0.6415000000000001	n/a	No	2.625	n/a	5.0	PrematurePress	0	0.007	498.63	8	52	Feedback	Neutral	True
501.077	2.625	Control	0.6415000000000001	n/a	No	2.625	n/a	n/a	PrematurePress	0	0.0	n/a	8	52	ISIslide	Neutral	True
503.719	0.25	Win2	0.6481	0.0	Yes	2.931	0.019	n/a	GoodResponse	1	n/a	n/a	9	53	Cue	Win	True
503.969	4.05	Win2	0.6481	0.0	Yes	2.931	0.0	n/a	GoodResponse	1	n/a	n/a	9	53	Fixation	Win	True
508.015	0.21	Win2	0.6481	0.004	Yes	2.931	-0.004	2.0	GoodResponse	1	0.173	507.188	9	53	Target	Win	True
508.188	0.3	Win2	0.6481	0.004	Yes	2.931	-0.004	2.0	GoodResponse	1	0.173	n/a	9	53	ButtonPress	Win	True
508.232	0.49	Win2	0.6481	n/a	Yes	2.931	n/a	n/a	GoodResponse	1	n/a	n/a	9	53	Blank	Win	True
508.717	1.45	Win2	0.6481	n/a	Yes	2.931	n/a	5.0	GoodResponse	1	0.031	507.748	9	53	Feedback	Win	True
510.171	2.931	Win2	0.6481	n/a	Yes	2.931	n/a	n/a	GoodResponse	1	0.0	n/a	9	53	ISIslide	Win	True
513.13	0.25	Win2	0.6545000000000001	0.0	Yes	2.72	0.03	n/a	GoodResponse	1	n/a	n/a	10	54	Cue	Win	True
513.381	3.95	Win2	0.6545000000000001	0.0	Yes	2.72	0.001	n/a	GoodResponse	1	n/a	n/a	10	54	Fixation	Win	True
517.326	0.22	Win2	0.6545000000000001	0.004	Yes	2.72	-0.004	2.0	GoodResponse	1	0.189	516.515	10	54	Target	Win	True
517.515	0.3	Win2	0.6545000000000001	0.004	Yes	2.72	-0.004	2.0	GoodResponse	1	0.189	n/a	10	54	ButtonPress	Win	True
517.56	0.48	Win2	0.6545000000000001	n/a	Yes	2.72	n/a	n/a	GoodResponse	1	n/a	n/a	10	54	Blank	Win	True
518.028	1.45	Win2	0.6545000000000001	n/a	Yes	2.72	n/a	5.0	GoodResponse	1	0.036	517.064	10	54	Feedback	Win	True
519.482	2.72	Win2	0.6545000000000001	n/a	Yes	2.72	n/a	n/a	GoodResponse	1	0.0	n/a	10	54	ISIslide	Win	True
522.224	0.25	Control	0.6607	0.0	Yes	3.026	0.024	n/a	GoodResponse	0	n/a	n/a	10	55	Cue	Neutral	True
522.475	3.95	Control	0.6607	0.0	Yes	3.026	0.001	n/a	GoodResponse	0	n/a	n/a	10	55	Fixation	Neutral	True
526.42	0.23	Control	0.6607	0.004	Yes	3.026	-0.004	2.0	GoodResponse	0	0.194	525.614	10	55	Target	Neutral	True
526.614	0.3	Control	0.6607	0.004	Yes	3.026	-0.004	2.0	GoodResponse	0	0.194	n/a	10	55	ButtonPress	Neutral	True
526.654	0.47	Control	0.6607	n/a	Yes	3.026	n/a	n/a	GoodResponse	0	n/a	n/a	10	55	Blank	Neutral	True
527.122	1.45	Control	0.6607	n/a	Yes	3.026	n/a	5.0	GoodResponse	0	0.015	526.137	10	55	Feedback	Neutral	True
528.576	3.026	Control	0.6607	n/a	Yes	3.026	n/a	n/a	GoodResponse	0	0.0	n/a	10	55	ISIslide	Neutral	True
531.619	0.25	Control	0.6491	0.0	No	2.831	0.019	n/a	NoResponse	0	n/a	n/a	10	56	Cue	Neutral	True
531.869	3.95	Control	0.6491	0.0	No	2.831	0.0	n/a	NoResponse	0	n/a	n/a	10	56	Fixation	Neutral	True
535.831	0.23	Control	0.6491	0.0	No	2.831	0.012	2.0	NoResponse	0	0.24	535.071	10	56	Target	Neutral	True
536.048	0.47	Control	0.6491	n/a	No	2.831	n/a	n/a	NoResponse	0	n/a	n/a	10	56	Blank	Neutral	True
536.071	0.3	Control	0.6491	0.0	No	2.831	0.012	2.0	NoResponse	0	0.24	n/a	10	56	ButtonPress	Neutral	True
536.517	1.45	Control	0.6491	n/a	No	2.831	n/a	5.0	NoResponse	0	0.035	535.552	10	56	Feedback	Neutral	True
537.971	2.831	Control	0.6491	n/a	No	2.831	n/a	n/a	NoResponse	0	0.0	n/a	10	56	ISIslide	Neutral	True
540.829	0.25	Control	0.6379	0.0	No	3.471	0.029	n/a	NoResponse	0	n/a	n/a	10	57	Cue	Neutral	True
541.08	4.0	Control	0.6379	0.0	No	3.471	0.001	n/a	NoResponse	0	n/a	n/a	10	57	Fixation	Neutral	True
545.075	0.24	Control	0.6379	0.004	No	3.471	-0.004	2.0	NoResponse	0	0.261	544.336	10	57	Target	Neutral	True
545.326	0.46	Control	0.6379	n/a	No	3.471	n/a	n/a	NoResponse	0	n/a	n/a	10	57	Blank	Neutral	True
545.336	0.3	Control	0.6379	0.004	No	3.471	-0.004	2.0	NoResponse	0	0.261	n/a	10	57	ButtonPress	Neutral	True
545.778	1.45	Control	0.6379	n/a	No	3.471	n/a	5.0	NoResponse	0	0.042	544.82	10	57	Feedback	Neutral	True
547.232	3.471	Control	0.6379	n/a	No	3.471	n/a	n/a	NoResponse	0	0.0	n/a	10	57	ISIslide	Neutral	True
550.726	0.25	Win2	0.6441	0.0	Yes	2.724	0.026	n/a	GoodResponse	1	n/a	n/a	11	58	Cue	Win	True
550.976	4.05	Win2	0.6441	0.0	Yes	2.724	0.0	n/a	GoodResponse	1	n/a	n/a	11	58	Fixation	Win	True
555.022	0.25	Win2	0.6441	0.004	Yes	2.724	-0.004	2.0	GoodResponse	1	0.184	554.206	11	58	Target	Win	True
555.206	0.3	Win2	0.6441	0.004	Yes	2.724	-0.004	2.0	GoodResponse	1	0.184	n/a	11	58	ButtonPress	Win	True
555.273	0.45	Win2	0.6441	n/a	Yes	2.724	n/a	n/a	GoodResponse	1	n/a	n/a	11	58	Blank	Win	True
555.724	1.45	Win2	0.6441	n/a	Yes	2.724	n/a	5.0	GoodResponse	1	0.047	554.771	11	58	Feedback	Win	True
557.178	2.724	Win2	0.6441	n/a	Yes	2.724	n/a	n/a	GoodResponse	1	0.0	n/a	11	58	ISIslide	Win	True
559.92	0.25	Lose2	0.65	0.0	Yes	2.68	0.02	n/a	GoodResponse	0	n/a	n/a	11	59	Cue	AvoidedLoss	True
560.17	4.0	Lose2	0.65	0.001	Yes	2.68	0.0	n/a	GoodResponse	0	n/a	n/a	11	59	Fixation	AvoidedLoss	True
564.166	0.26	Lose2	0.65	0.004	Yes	2.68	-0.004	2.0	GoodResponse	0	0.17	563.336	11	59	Target	AvoidedLoss	True
564.336	0.3	Lose2	0.65	0.004	Yes	2.68	-0.004	2.0	GoodResponse	0	0.17	n/a	11	59	ButtonPress	AvoidedLoss	True
564.433	0.44	Lose2	0.65	n/a	Yes	2.68	n/a	n/a	GoodResponse	0	n/a	n/a	11	59	Blank	AvoidedLoss	True
564.868	1.45	Lose2	0.65	n/a	Yes	2.68	n/a	5.0	GoodResponse	0	0.025	563.893	11	59	Feedback	AvoidedLoss	True
566.322	2.68	Lose2	0.65	n/a	Yes	2.68	n/a	n/a	GoodResponse	0	0.0	n/a	11	59	ISIslide	AvoidedLoss	True
569.03	0.25	Control	0.6393	0.0	No	2.67	0.03	n/a	NoResponse	0	n/a	n/a	11	60	Cue	Neutral	True
569.281	4.0	Control	0.6393	0.0	No	2.67	0.001	2.0	NoResponse	0	3.984	572.265	11	60	Fixation	Neutral	True
573.265	0.3	Control	0.6393	0.0	No	2.67	0.001	2.0	NoResponse	0	3.984	n/a	11	60	ButtonPress	Neutral	True
573.276	0.27	Control	0.6393	0.004	No	2.67	-0.004	n/a	NoResponse	0	n/a	n/a	11	60	Target	Neutral	True
573.56	0.43	Control	0.6393	n/a	No	2.67	n/a	n/a	NoResponse	0	n/a	n/a	11	60	Blank	Neutral	True
573.978	1.45	Control	0.6393	n/a	No	2.67	n/a	5.0	NoResponse	0	0.037	573.015	11	60	Feedback	Neutral	True
575.433	2.67	Control	0.6393	n/a	No	2.67	n/a	n/a	NoResponse	0	0.0	n/a	11	60	ISIslide	Neutral	True
578.124	0.25	Lose2	0.6452	0.0	Yes	2.976	0.024	n/a	GoodResponse	0	n/a	n/a	11	61	Cue	AvoidedLoss	True
578.375	4.0	Lose2	0.6452	0.0	Yes	2.976	0.001	n/a	GoodResponse	0	n/a	n/a	11	61	Fixation	AvoidedLoss	True
582.37	0.28	Lose2	0.6452	0.004	Yes	2.976	-0.004	2.0	GoodResponse	0	0.194	581.564	11	61	Target	AvoidedLoss	True
582.564	0.3	Lose2	0.6452	0.004	Yes	2.976	-0.004	2.0	GoodResponse	0	0.194	n/a	11	61	ButtonPress	AvoidedLoss	True
582.654	0.42	Lose2	0.6452	n/a	Yes	2.976	n/a	n/a	GoodResponse	0	n/a	n/a	11	61	Blank	AvoidedLoss	True
583.072	1.45	Lose2	0.6452	n/a	Yes	2.976	n/a	5.0	GoodResponse	0	0.016	582.088	11	61	Feedback	AvoidedLoss	True
584.527	2.976	Lose2	0.6452	n/a	Yes	2.976	n/a	n/a	GoodResponse	0	0.0	n/a	11	61	ISIslide	AvoidedLoss	True
587.519	0.25	Lose2	0.6507999999999999	0.0	Yes	2.881	0.019	n/a	GoodResponse	0	n/a	n/a	11	62	Cue	AvoidedLoss	True
587.77	3.9	Lose2	0.6507999999999999	0.0	Yes	2.881	0.001	n/a	GoodResponse	0	n/a	n/a	11	62	Fixation	AvoidedLoss	True
591.665	0.29	Lose2	0.6507999999999999	0.004	Yes	2.881	-0.004	2.0	GoodResponse	0	0.214	590.879	11	62	Target	AvoidedLoss	True
591.879	0.3	Lose2	0.6507999999999999	0.004	Yes	2.881	-0.004	2.0	GoodResponse	0	0.214	n/a	11	62	ButtonPress	AvoidedLoss	True
591.965	0.41	Lose2	0.6507999999999999	n/a	Yes	2.881	n/a	n/a	GoodResponse	0	n/a	n/a	11	62	Blank	AvoidedLoss	True
592.367	1.45	Lose2	0.6507999999999999	n/a	Yes	2.881	n/a	5.0	GoodResponse	0	0.037	591.404	11	62	Feedback	AvoidedLoss	True
593.821	2.881	Lose2	0.6507999999999999	n/a	Yes	2.881	n/a	n/a	GoodResponse	0	0.0	n/a	11	62	ISIslide	AvoidedLoss	True
596.73	0.25	Lose2	0.6406000000000001	0.0	No	2.62	0.03	n/a	PrematurePress	-1	n/a	n/a	10	63	Cue	Loss	True
596.98	4.05	Lose2	0.6406000000000001	0.0	No	2.62	0.0	n/a	PrematurePress	-1	n/a	n/a	10	63	Fixation	Loss	True
601.026	0.3	Lose2	0.6406000000000001	0.004	No	2.62	-0.004	2.0	PrematurePress	-1	0.023	600.049	10	63	Target	Loss	True
601.049	0.3	Lose2	0.6406000000000001	0.004	No	2.62	-0.004	2.0	PrematurePress	-1	0.023	n/a	10	63	ButtonPress	Loss	True
601.327	0.4	Lose2	0.6406000000000001	n/a	No	2.62	n/a	n/a	PrematurePress	-1	n/a	n/a	10	63	Blank	Loss	True
601.728	1.45	Lose2	0.6406000000000001	n/a	No	2.62	n/a	5.0	PrematurePress	-1	0.042	600.77	10	63	Feedback	Loss	True
603.182	2.62	Lose2	0.6406000000000001	n/a	No	2.62	n/a	n/a	PrematurePress	-1	0.0	n/a	10	63	ISIslide	Loss	True
605.824	0.25	Win2	0.6462	0.0	Yes	3.126	0.024	n/a	GoodResponse	1	n/a	n/a	11	64	Cue	Win	False
606.074	4.15	Win2	0.6462	0.0	Yes	3.126	0.0	2.0	GoodResponse	1	3.746	608.82	11	64	Fixation	Win	False
609.82	0.3	Win2	0.6462	0.0	Yes	3.126	0.0	2.0	GoodResponse	1	3.746	n/a	11	64	ButtonPress	Win	False
610.22	0.31	Win2	0.6462	0.004	Yes	3.126	-0.004	2.0	GoodResponse	1	0.277	609.497	11	64	Target	Win	False
610.497	0.3	Win2	0.6462	0.004	Yes	3.126	-0.004	2.0	GoodResponse	1	0.277	n/a	11	64	ButtonPress	Win	False
610.538	0.39	Win2	0.6462	n/a	Yes	3.126	n/a	n/a	GoodResponse	1	n/a	n/a	11	64	Blank	Win	False
610.922	1.45	Win2	0.6462	n/a	Yes	3.126	n/a	5.0	GoodResponse	1	0.019	609.941	11	64	Feedback	Win	False
612.376	3.126	Win2	0.6462	n/a	Yes	3.126	n/a	n/a	GoodResponse	1	0.0	n/a	11	64	ISIslide	Win	False
615.519	0.25	Control	0.6364	0.0	No	2.781	0.019	n/a	NoResponse	0	n/a	n/a	11	65	Cue	Neutral	True
615.77	4.0	Control	0.6364	0.0	No	2.781	0.001	n/a	NoResponse	0	n/a	n/a	11	65	Fixation	Neutral	True
619.765	0.32	Control	0.6364	0.004	No	2.781	-0.004	2.0	NoResponse	0	0.382	619.147	11	65	Target	Neutral	True
620.099	0.38	Control	0.6364	n/a	No	2.781	n/a	n/a	NoResponse	0	n/a	n/a	11	65	Blank	Neutral	True
620.147	0.3	Control	0.6364	0.004	No	2.781	-0.004	2.0	NoResponse	0	0.382	n/a	11	65	ButtonPress	Neutral	True
620.467	1.45	Control	0.6364	n/a	No	2.781	n/a	5.0	NoResponse	0	0.035	619.502	11	65	Feedback	Neutral	True
621.922	2.781	Control	0.6364	n/a	No	2.781	n/a	n/a	NoResponse	0	0.0	n/a	11	65	ISIslide	Neutral	True
624.73	0.25	Win2	0.6418	0.0	Yes	2.77	0.03	n/a	GoodResponse	1	n/a	n/a	12	66	Cue	Win	True
624.981	3.9	Win2	0.6418	0.0	Yes	2.77	0.001	n/a	GoodResponse	1	n/a	n/a	12	66	Fixation	Win	True
628.876	0.33	Win2	0.6418	0.004	Yes	2.77	-0.004	2.0	GoodResponse	1	0.172	628.048	12	66	Target	Win	True
629.048	0.3	Win2	0.6418	0.004	Yes	2.77	-0.004	2.0	GoodResponse	1	0.172	n/a	12	66	ButtonPress	Win	True
629.21	0.37	Win2	0.6418	n/a	Yes	2.77	n/a	n/a	GoodResponse	1	n/a	n/a	12	66	Blank	Win	True
629.578	1.45	Win2	0.6418	n/a	Yes	2.77	n/a	5.0	GoodResponse	1	0.045	628.623	12	66	Feedback	Win	True
631.032	2.77	Win2	0.6418	n/a	Yes	2.77	n/a	n/a	GoodResponse	1	0.0	n/a	12	66	ISIslide	Win	True
633.824	0.25	Control	0.6470999999999999	0.0	Yes	2.726	0.024	n/a	GoodResponse	0	n/a	n/a	12	67	Cue	Neutral	True
634.075	3.95	Control	0.6470999999999999	0.0	Yes	2.726	0.001	n/a	GoodResponse	0	n/a	n/a	12	67	Fixation	Neutral	True
638.02	0.34	Control	0.6470999999999999	0.004	Yes	2.726	-0.004	2.0	GoodResponse	0	0.254	637.274	12	67	Target	Neutral	True
638.274	0.3	Control	0.6470999999999999	0.004	Yes	2.726	-0.004	2.0	GoodResponse	0	0.254	n/a	12	67	ButtonPress	Neutral	True
638.371	0.36	Control	0.6470999999999999	n/a	Yes	2.726	n/a	n/a	GoodResponse	0	n/a	n/a	12	67	Blank	Neutral	True
638.722	1.45	Control	0.6470999999999999	n/a	Yes	2.726	n/a	5.0	GoodResponse	0	0.023	637.745	12	67	Feedback	Neutral	True
640.176	2.726	Control	0.6470999999999999	n/a	Yes	2.726	n/a	n/a	GoodResponse	0	0.0	n/a	12	67	ISIslide	Neutral	True
642.918	0.25	Win2	0.6522	0.0	Yes	3.082	0.018	n/a	GoodResponse	1	n/a	n/a	13	68	Cue	Win	True
643.168	4.0	Win2	0.6522	0.0	Yes	3.082	0.0	n/a	GoodResponse	1	n/a	n/a	13	68	Fixation	Win	True
647.164	0.35	Win2	0.6522	0.004	Yes	3.082	-0.004	2.0	GoodResponse	1	0.152	646.316	13	68	Target	Win	True
647.316	0.3	Win2	0.6522	0.004	Yes	3.082	-0.004	2.0	GoodResponse	1	0.152	n/a	13	68	ButtonPress	Win	True
647.515	0.35	Win2	0.6522	n/a	Yes	3.082	n/a	n/a	GoodResponse	1	n/a	n/a	13	68	Blank	Win	True
647.866	1.45	Win2	0.6522	n/a	Yes	3.082	n/a	5.0	GoodResponse	1	0.001	646.867	13	68	Feedback	Win	True
649.32	3.082	Win2	0.6522	n/a	Yes	3.082	n/a	n/a	GoodResponse	1	0.0	n/a	13	68	ISIslide	Win	True
652.429	0.25	Win2	0.6570999999999999	0.0	Yes	3.221	0.029	n/a	GoodResponse	1	n/a	n/a	14	69	Cue	Win	True
652.68	3.95	Win2	0.6570999999999999	0.0	Yes	3.221	0.001	n/a	GoodResponse	1	n/a	n/a	14	69	Fixation	Win	True
656.625	0.36	Win2	0.6570999999999999	0.004	Yes	3.221	-0.004	2.0	GoodResponse	1	0.192	655.817	14	69	Target	Win	True
656.817	0.3	Win2	0.6570999999999999	0.004	Yes	3.221	-0.004	2.0	GoodResponse	1	0.192	n/a	14	69	ButtonPress	Win	True
656.993	0.34	Win2	0.6570999999999999	n/a	Yes	3.221	n/a	n/a	GoodResponse	1	n/a	n/a	14	69	Blank	Win	True
657.327	1.45	Win2	0.6570999999999999	n/a	Yes	3.221	n/a	5.0	GoodResponse	1	0.007	656.334	14	69	Feedback	Win	True
658.782	3.221	Win2	0.6570999999999999	n/a	Yes	3.221	n/a	n/a	GoodResponse	1	0.0	n/a	14	69	ISIslide	Win	True
662.025	0.25	Lose2	0.662	0.0	Yes	3.025	0.025	n/a	GoodResponse	0	n/a	n/a	14	70	Cue	AvoidedLoss	True
662.275	4.05	Lose2	0.662	0.001	Yes	3.025	0.0	n/a	GoodResponse	0	n/a	n/a	14	70	Fixation	AvoidedLoss	True
666.321	0.36	Lose2	0.662	0.004	Yes	3.025	-0.004	2.0	GoodResponse	0	0.204	665.525	14	70	Target	AvoidedLoss	True
666.525	0.3	Lose2	0.662	0.004	Yes	3.025	-0.004	2.0	GoodResponse	0	0.204	n/a	14	70	ButtonPress	AvoidedLoss	True
666.689	0.34	Lose2	0.662	n/a	Yes	3.025	n/a	n/a	GoodResponse	0	n/a	n/a	14	70	Blank	AvoidedLoss	True
667.023	1.45	Lose2	0.662	n/a	Yes	3.025	n/a	5.0	GoodResponse	0	0.014	666.037	14	70	Feedback	AvoidedLoss	True
668.477	3.025	Lose2	0.662	n/a	Yes	3.025	n/a	n/a	GoodResponse	0	0.0	n/a	14	70	ISIslide	AvoidedLoss	True
671.52	0.25	Win2	0.6667000000000001	0.0	Yes	2.73	0.02	n/a	GoodResponse	1	n/a	n/a	15	71	Cue	Win	True
671.77	4.05	Win2	0.6667000000000001	0.001	Yes	2.73	0.0	n/a	GoodResponse	1	n/a	n/a	15	71	Fixation	Win	True
675.816	0.36	Win2	0.6667000000000001	0.004	Yes	2.73	-0.004	2.0	GoodResponse	1	0.212	675.028	15	71	Target	Win	True
676.028	0.3	Win2	0.6667000000000001	0.004	Yes	2.73	-0.004	2.0	GoodResponse	1	0.212	n/a	15	71	ButtonPress	Win	True
676.184	0.34	Win2	0.6667000000000001	n/a	Yes	2.73	n/a	n/a	GoodResponse	1	n/a	n/a	15	71	Blank	Win	True
676.518	1.45	Win2	0.6667000000000001	n/a	Yes	2.73	n/a	5.0	GoodResponse	1	0.032	675.55	15	71	Feedback	Win	True
677.972	2.73	Win2	0.6667000000000001	n/a	Yes	2.73	n/a	n/a	GoodResponse	1	0.0	n/a	15	71	ISIslide	Win	True
680.731	0.25	Win2	0.6575	0.0	No	2.769	0.031	n/a	PrematurePress	0	n/a	n/a	15	72	Cue	MissedWin	False
680.981	4.1	Win2	0.6575	0.0	No	2.769	0.0	2.0	PrematurePress	0	3.614	683.595	15	72	Fixation	MissedWin	False
684.595	0.3	Win2	0.6575	0.0	No	2.769	0.0	2.0	PrematurePress	0	3.614	n/a	15	72	ButtonPress	MissedWin	False
685.077	0.35	Win2	0.6575	0.004	No	2.769	-0.004	2.0	PrematurePress	0	0.009	684.086	15	72	Target	MissedWin	False
685.086	0.3	Win2	0.6575	0.004	No	2.769	-0.004	2.0	PrematurePress	0	0.009	n/a	15	72	ButtonPress	MissedWin	False
685.428	0.35	Win2	0.6575	n/a	No	2.769	n/a	n/a	PrematurePress	0	n/a	n/a	15	72	Blank	MissedWin	False
685.779	1.45	Win2	0.6575	n/a	No	2.769	n/a	5.0	PrematurePress	0	0.039	684.818	15	72	Feedback	MissedWin	False
687.233	2.769	Win2	0.6575	n/a	No	2.769	n/a	n/a	PrematurePress	0	0.0	n/a	15	72	ISIslide	MissedWin	False
690.025	0.25	Win2	0.6486	0.0	No	2.675	0.025	n/a	NoResponse	0	n/a	n/a	15	73	Cue	MissedWin	True
690.276	4.0	Win2	0.6486	0.0	No	2.675	0.001	2.0	NoResponse	0	1.322	690.598	15	73	Fixation	MissedWin	True
691.598	0.3	Win2	0.6486	0.0	No	2.675	0.001	2.0	NoResponse	0	1.322	n/a	15	73	ButtonPress	MissedWin	True
694.271	0.35	Win2	0.6486	0.004	No	2.675	-0.004	n/a	NoResponse	0	n/a	n/a	15	73	Target	MissedWin	True
694.622	0.35	Win2	0.6486	n/a	No	2.675	n/a	n/a	NoResponse	0	n/a	n/a	15	73	Blank	MissedWin	True
694.973	1.45	Win2	0.6486	n/a	No	2.675	n/a	5.0	NoResponse	0	0.016	693.989	15	73	Feedback	MissedWin	True
696.427	2.675	Win2	0.6486	n/a	No	2.675	n/a	n/a	NoResponse	0	0.0	n/a	15	73	ISIslide	MissedWin	True
699.119	0.25	Lose2	0.6533	0.0	Yes	2.631	0.019	n/a	GoodResponse	0	n/a	n/a	15	74	Cue	AvoidedLoss	True
699.37	4.05	Lose2	0.6533	0.0	Yes	2.631	0.001	n/a	GoodResponse	0	n/a	n/a	15	74	Fixation	AvoidedLoss	True
703.415	0.36	Lose2	0.6533	0.004	Yes	2.631	-0.004	2.0	GoodResponse	0	0.178	702.593	15	74	Target	AvoidedLoss	True
703.593	0.3	Lose2	0.6533	0.004	Yes	2.631	-0.004	2.0	GoodResponse	0	0.178	n/a	15	74	ButtonPress	AvoidedLoss	True
703.783	0.34	Lose2	0.6533	n/a	Yes	2.631	n/a	n/a	GoodResponse	0	n/a	n/a	15	74	Blank	AvoidedLoss	True
704.117	1.45	Lose2	0.6533	n/a	Yes	2.631	n/a	5.0	GoodResponse	0	0.042	703.159	15	74	Feedback	AvoidedLoss	True
705.571	2.631	Lose2	0.6533	n/a	Yes	2.631	n/a	n/a	GoodResponse	0	0.0	n/a	15	74	ISIslide	AvoidedLoss	True
708.229	0.25	Lose2	0.6579	0.0	Yes	2.921	0.029	n/a	GoodResponse	0	n/a	n/a	15	75	Cue	AvoidedLoss	True
708.48	3.95	Lose2	0.6579	0.0	Yes	2.921	0.001	n/a	GoodResponse	0	n/a	n/a	15	75	Fixation	AvoidedLoss	True
712.425	0.37	Lose2	0.6579	0.004	Yes	2.921	-0.004	2.0	GoodResponse	0	0.213	711.638	15	75	Target	AvoidedLoss	True
712.638	0.3	Lose2	0.6579	0.004	Yes	2.921	-0.004	2.0	GoodResponse	0	0.213	n/a	15	75	ButtonPress	AvoidedLoss	True
712.81	0.33	Lose2	0.6579	n/a	Yes	2.921	n/a	n/a	GoodResponse	0	n/a	n/a	15	75	Blank	AvoidedLoss	True
713.127	1.45	Lose2	0.6579	n/a	Yes	2.921	n/a	5.0	GoodResponse	0	0.007	712.134	15	75	Feedback	AvoidedLoss	True
714.582	2.921	Lose2	0.6579	n/a	Yes	2.921	n/a	n/a	GoodResponse	0	0.0	n/a	15	75	ISIslide	AvoidedLoss	True
717.524	0.25	Control	0.6623	0.0	Yes	3.226	0.024	n/a	GoodResponse	0	n/a	n/a	15	76	Cue	Neutral	True
717.775	4.05	Control	0.6623	0.0	Yes	3.226	0.001	n/a	GoodResponse	0	n/a	n/a	15	76	Fixation	Neutral	True
721.82	0.37	Control	0.6623	0.004	Yes	3.226	-0.004	2.0	GoodResponse	0	0.302	721.122	15	76	Target	Neutral	True
722.122	0.3	Control	0.6623	0.004	Yes	3.226	-0.004	2.0	GoodResponse	0	0.302	n/a	15	76	ButtonPress	Neutral	True
722.204	0.33	Control	0.6623	n/a	Yes	3.226	n/a	n/a	GoodResponse	0	n/a	n/a	15	76	Blank	Neutral	True
722.522	1.45	Control	0.6623	n/a	Yes	3.226	n/a	5.0	GoodResponse	0	0.027	721.549	15	76	Feedback	Neutral	True
723.976	3.226	Control	0.6623	n/a	Yes	3.226	n/a	n/a	GoodResponse	0	0.0	n/a	15	76	ISIslide	Neutral	True
727.219	0.25	Lose2	0.6667000000000001	0.0	Yes	2.581	0.019	n/a	GoodResponse	0	n/a	n/a	15	77	Cue	AvoidedLoss	False
727.47	3.95	Lose2	0.6667000000000001	0.0	Yes	2.581	0.001	2.0	GoodResponse	0	0.146	726.616	15	77	Fixation	AvoidedLoss	False
727.616	0.3	Lose2	0.6667000000000001	0.0	Yes	2.581	0.001	2.0	GoodResponse	0	0.146	n/a	15	77	ButtonPress	AvoidedLoss	False
731.415	0.37	Lose2	0.6667000000000001	0.004	Yes	2.581	-0.004	2.0	GoodResponse	0	0.197	730.612	15	77	Target	AvoidedLoss	False
731.612	0.3	Lose2	0.6667000000000001	0.004	Yes	2.581	-0.004	2.0	GoodResponse	0	0.197	n/a	15	77	ButtonPress	AvoidedLoss	False
731.8	0.33	Lose2	0.6667000000000001	n/a	Yes	2.581	n/a	n/a	GoodResponse	0	n/a	n/a	15	77	Blank	AvoidedLoss	False
732.117	1.45	Lose2	0.6667000000000001	n/a	Yes	2.581	n/a	5.0	GoodResponse	0	0.042	731.159	15	77	Feedback	AvoidedLoss	False
733.572	2.581	Lose2	0.6667000000000001	n/a	Yes	2.581	n/a	n/a	GoodResponse	0	0.0	n/a	15	77	ISIslide	AvoidedLoss	False
