onset	duration	cue_type	current_mean_accuracy	duration_error	is_hit	isi_adjusted	onset_delay	response	response_type	reward	rt	rt_time	total_reward	trial_number	trial_phase	trial_type	one_press
11.101	0.25	Control	1.0	0.001	Yes	2.949	0.001	n/a	GoodResponse	0	n/a	n/a	0	0	Cue	Neutral	True
11.352	3.85	Control	1.0	0.0	Yes	2.949	0.001	n/a	GoodResponse	0	n/a	n/a	0	0	Fixation	Neutral	True
15.197	0.4	Control	1.0	0.004	Yes	2.949	-0.004	2.0	GoodResponse	0	0.237	14.434	0	0	Target	Neutral	True
15.434	0.3	Control	1.0	0.004	Yes	2.949	-0.004	2.0	GoodResponse	0	0.237	n/a	0	0	ButtonPress	Neutral	True
15.598	0.3	Control	1.0	n/a	Yes	2.949	n/a	n/a	GoodResponse	0	n/a	n/a	0	0	Blank	Neutral	True
15.899	1.45	Control	1.0	n/a	Yes	2.949	n/a	5.0	GoodResponse	0	0.028	14.927	0	0	Feedback	Neutral	True
17.354	2.949	Control	1.0	n/a	Yes	2.949	n/a	n/a	GoodResponse	0	0.0	n/a	0	0	ISIslide	Neutral	True
20.329	0.25	Lose2	1.0	0.0	Yes	2.771	0.029	n/a	GoodResponse	0	n/a	n/a	0	1	Cue	AvoidedLoss	True
20.58	4.0	Lose2	1.0	0.0	Yes	2.771	0.001	n/a	GoodResponse	0	n/a	n/a	0	1	Fixation	AvoidedLoss	True
24.575	0.39	Lose2	1.0	0.004	Yes	2.771	-0.004	2.0	GoodResponse	0	0.289	23.864	0	1	Target	AvoidedLoss	True
24.864	0.3	Lose2	1.0	0.004	Yes	2.771	-0.004	2.0	GoodResponse	0	0.289	n/a	0	1	ButtonPress	AvoidedLoss	True
24.976	0.31	Lose2	1.0	n/a	Yes	2.771	n/a	n/a	GoodResponse	0	n/a	n/a	0	1	Blank	AvoidedLoss	True
25.277	1.45	Lose2	1.0	n/a	Yes	2.771	n/a	5.0	GoodResponse	0	0.016	24.293	0	1	Feedback	AvoidedLoss	True
26.732	2.771	Lose2	1.0	n/a	Yes	2.771	n/a	n/a	GoodResponse	0	0.0	n/a	0	1	ISIslide	AvoidedLoss	True
29.523	0.25	Control	1.0	0.0	Yes	2.577	0.023	n/a	GoodResponse	0	n/a	n/a	0	2	Cue	Neutral	True
29.774	4.1	Control	1.0	0.0	Yes	2.577	0.001	n/a	GoodResponse	0	n/a	n/a	0	2	Fixation	Neutral	True
33.87	0.38	Control	1.0	0.003	Yes	2.577	-0.003	2.0	GoodResponse	0	0.297	33.167	0	2	Target	Neutral	True
34.167	0.3	Control	1.0	0.003	Yes	2.577	-0.003	2.0	GoodResponse	0	0.297	n/a	0	2	ButtonPress	Neutral	True
34.254	0.32	Control	1.0	n/a	Yes	2.577	n/a	n/a	GoodResponse	0	n/a	n/a	0	2	Blank	Neutral	True
34.572	1.45	Control	1.0	n/a	Yes	2.577	n/a	5.0	GoodResponse	0	0.038	33.61	0	2	Feedback	Neutral	True
36.026	2.577	Control	1.0	n/a	Yes	2.577	n/a	n/a	GoodResponse	0	0.0	n/a	0	2	ISIslide	Neutral	True
38.617	0.25	Win2	1.0	0.0	Yes	2.833	0.017	n/a	GoodResponse	1	n/a	n/a	1	3	Cue	Win	True
38.868	3.95	Win2	1.0	0.0	Yes	2.833	0.001	n/a	GoodResponse	1	n/a	n/a	1	3	Fixation	Win	True
42.813	0.37	Win2	1.0	0.004	Yes	2.833	-0.004	2.0	GoodResponse	1	0.25	42.063	1	3	Target	Win	True
43.063	0.3	Win2	1.0	0.004	Yes	2.833	-0.004	2.0	GoodResponse	1	0.25	n/a	1	3	ButtonPress	Win	True
43.198	0.33	Win2	1.0	n/a	Yes	2.833	n/a	n/a	GoodResponse	1	n/a	n/a	1	3	Blank	Win	True
43.515	1.45	Win2	1.0	n/a	Yes	2.833	n/a	5.0	GoodResponse	1	0.022	42.537	1	3	Feedback	Win	True
44.97	2.833	Win2	1.0	n/a	Yes	2.833	n/a	n/a	GoodResponse	1	0.0	n/a	1	3	ISIslide	Win	True
47.828	0.25	Win2	1.0	0.0	Yes	3.272	0.028	n/a	GoodResponse	1	n/a	n/a	2	4	Cue	Win	True
48.079	4.0	Win2	1.0	0.0	Yes	3.272	0.001	n/a	GoodResponse	1	n/a	n/a	2	4	Fixation	Win	True
52.074	0.36	Win2	1.0	0.004	Yes	3.272	-0.004	2.0	GoodResponse	1	0.277	51.351	2	4	Target	Win	True
52.351	0.3	Win2	1.0	0.004	Yes	3.272	-0.004	2.0	GoodResponse	1	0.277	n/a	2	4	ButtonPress	Win	True
52.442	0.34	Win2	1.0	n/a	Yes	3.272	n/a	n/a	GoodResponse	1	n/a	n/a	2	4	Blank	Win	True
52.776	1.45	Win2	1.0	n/a	Yes	3.272	n/a	5.0	GoodResponse	1	0.028	51.804	2	4	Feedback	Win	True
54.231	3.272	Win2	1.0	n/a	Yes	3.272	n/a	n/a	GoodResponse	1	0.0	n/a	2	4	ISIslide	Win	True
57.524	0.25	Win2	1.0	0.0	Yes	2.776	0.024	n/a	GoodResponse	1	n/a	n/a	3	5	Cue	Win	True
57.775	4.0	Win2	1.0	0.0	Yes	2.776	0.001	n/a	GoodResponse	1	n/a	n/a	3	5	Fixation	Win	True
61.77	0.35	Win2	1.0	0.004	Yes	2.776	-0.004	2.0	GoodResponse	1	0.22	60.99	3	5	Target	Win	True
61.99	0.3	Win2	1.0	0.004	Yes	2.776	-0.004	2.0	GoodResponse	1	0.22	n/a	3	5	ButtonPress	Win	True
62.121	0.35	Win2	1.0	n/a	Yes	2.776	n/a	n/a	GoodResponse	1	n/a	n/a	3	5	Blank	Win	True
62.472	1.45	Win2	1.0	n/a	Yes	2.776	n/a	5.0	GoodResponse	1	0.039	61.511	3	5	Feedback	Win	True
63.926	2.776	Win2	1.0	n/a	Yes	2.776	n/a	n/a	GoodResponse	1	0.0	n/a	3	5	ISIslide	Win	True
66.718	0.25	Lose2	1.0	0.0	Yes	2.732	0.018	n/a	GoodResponse	0	n/a	n/a	3	6	Cue	AvoidedLoss	True
66.969	3.95	Lose2	1.0	0.0	Yes	2.732	0.001	n/a	GoodResponse	0	n/a	n/a	3	6	Fixation	AvoidedLoss	True
70.914	0.34	Lose2	1.0	0.004	Yes	2.732	-0.004	2.0	GoodResponse	0	0.268	70.182	3	6	Target	AvoidedLoss	True
71.182	0.3	Lose2	1.0	0.004	Yes	2.732	-0.004	2.0	GoodResponse	0	0.268	n/a	3	6	ButtonPress	AvoidedLoss	True
71.265	0.36	Lose2	1.0	n/a	Yes	2.732	n/a	n/a	GoodResponse	0	n/a	n/a	3	6	Blank	AvoidedLoss	True
71.616	1.45	Lose2	1.0	n/a	Yes	2.732	n/a	5.0	GoodResponse	0	0.018	70.634	3	6	Feedback	AvoidedLoss	True
73.071	2.732	Lose2	1.0	n/a	Yes	2.732	n/a	n/a	GoodResponse	0	0.0	n/a	3	6	ISIslide	AvoidedLoss	True
75.829	0.25	Lose2	1.0	0.0	Yes	4.021	0.029	n/a	GoodResponse	0	n/a	n/a	3	7	Cue	AvoidedLoss	True
76.08	4.05	Lose2	1.0	0.0	Yes	4.021	0.001	n/a	GoodResponse	0	n/a	n/a	3	7	Fixation	AvoidedLoss	True
80.125	0.33	Lose2	1.0	0.004	Yes	4.021	-0.004	2.0	GoodResponse	0	0.269	79.394	3	7	Target	AvoidedLoss	True
80.394	0.3	Lose2	1.0	0.004	Yes	4.021	-0.004	2.0	GoodResponse	0	0.269	n/a	3	7	ButtonPress	AvoidedLoss	True
80.459	0.37	Lose2	1.0	n/a	Yes	4.021	n/a	n/a	GoodResponse	0	n/a	n/a	3	7	Blank	AvoidedLoss	True
80.827	1.45	Lose2	1.0	n/a	Yes	4.021	n/a	5.0	GoodResponse	0	0.026	79.853	3	7	Feedback	AvoidedLoss	True
82.281	4.021	Lose2	1.0	n/a	Yes	4.021	n/a	n/a	GoodResponse	0	0.0	n/a	3	7	ISIslide	AvoidedLoss	True
86.327	0.25	Lose2	1.0	0.0	Yes	3.023	0.027	n/a	GoodResponse	0	n/a	n/a	3	8	Cue	AvoidedLoss	True
86.578	3.95	Lose2	1.0	0.0	Yes	3.023	0.001	n/a	GoodResponse	0	n/a	n/a	3	8	Fixation	AvoidedLoss	True
90.523	0.32	Lose2	1.0	0.004	Yes	3.023	-0.004	2.0	GoodResponse	0	0.258	89.781	3	8	Target	AvoidedLoss	True
90.781	0.3	Lose2	1.0	0.004	Yes	3.023	-0.004	2.0	GoodResponse	0	0.258	n/a	3	8	ButtonPress	AvoidedLoss	True
90.857	0.38	Lose2	1.0	n/a	Yes	3.023	n/a	n/a	GoodResponse	0	n/a	n/a	3	8	Blank	AvoidedLoss	True
91.225	1.45	Lose2	1.0	n/a	Yes	3.023	n/a	5.0	GoodResponse	0	0.019	90.244	3	8	Feedback	AvoidedLoss	True
92.679	3.023	Lose2	1.0	n/a	Yes	3.023	n/a	n/a	GoodResponse	0	0.0	n/a	3	8	ISIslide	AvoidedLoss	True
95.722	0.25	Lose2	1.0	0.0	Yes	3.128	0.022	n/a	GoodResponse	0	n/a	n/a	3	9	Cue	AvoidedLoss	True
95.972	3.95	Lose2	1.0	0.001	Yes	3.128	0.0	n/a	GoodResponse	0	n/a	n/a	3	9	Fixation	AvoidedLoss	True
99.918	0.31	Lose2	1.0	0.004	Yes	3.128	-0.004	2.0	GoodResponse	0	0.266	99.184	3	9	Target	AvoidedLoss	True
100.184	0.3	Lose2	1.0	0.004	Yes	3.128	-0.004	2.0	GoodResponse	0	0.266	n/a	3	9	ButtonPress	AvoidedLoss	True
100.235	0.39	Lose2	1.0	n/a	Yes	3.128	n/a	n/a	GoodResponse	0	n/a	n/a	3	9	Blank	AvoidedLoss	True
100.62	1.45	Lose2	1.0	n/a	Yes	3.128	n/a	5.0	GoodResponse	0	0.038	99.658	3	9	Feedback	AvoidedLoss	True
102.074	3.128	Lose2	1.0	n/a	Yes	3.128	n/a	n/a	GoodResponse	0	0.0	n/a	3	9	ISIslide	AvoidedLoss	True
105.217	0.25	Control	1.0	0.0	Yes	3.283	0.017	n/a	GoodResponse	0	n/a	n/a	3	10	Cue	Neutral	True
105.468	4.0	Control	1.0	0.0	Yes	3.283	0.001	n/a	GoodResponse	0	n/a	n/a	3	10	Fixation	Neutral	True
109.463	0.3	Control	1.0	0.004	Yes	3.283	-0.004	2.0	GoodResponse	0	0.242	108.705	3	10	Target	Neutral	True
109.705	0.3	Control	1.0	0.004	Yes	3.283	-0.004	2.0	GoodResponse	0	0.242	n/a	3	10	ButtonPress	Neutral	True
109.764	0.4	Control	1.0	n/a	Yes	3.283	n/a	n/a	GoodResponse	0	n/a	n/a	3	10	Blank	Neutral	True
110.165	1.45	Control	1.0	n/a	Yes	3.283	n/a	5.0	GoodResponse	0	0.006	109.171	3	10	Feedback	Neutral	True
111.619	3.283	Control	1.0	n/a	Yes	3.283	n/a	n/a	GoodResponse	0	0.0	n/a	3	10	ISIslide	Neutral	True
114.929	0.25	Lose2	0.9167000000000001	0.0	No	2.721	0.029	n/a	NoResponse	-1	n/a	n/a	2	11	Cue	Loss	True
115.18	4.05	Lose2	0.9167000000000001	0.0	No	2.721	0.001	n/a	NoResponse	-1	n/a	n/a	2	11	Fixation	Loss	True
119.225	0.29	Lose2	0.9167000000000001	0.004	No	2.721	-0.004	2.0	NoResponse	-1	0.397	118.622	2	11	Target	Loss	True
119.526	0.41	Lose2	0.9167000000000001	n/a	No	2.721	n/a	n/a	NoResponse	-1	n/a	n/a	2	11	Blank	Loss	True
119.622	0.3	Lose2	0.9167000000000001	0.004	No	2.721	-0.004	2.0	NoResponse	-1	0.397	n/a	2	11	ButtonPress	Loss	True
119.928	1.45	Lose2	0.9167000000000001	n/a	No	2.721	n/a	5.0	NoResponse	-1	0.046	118.974	2	11	Feedback	Loss	True
121.382	2.721	Lose2	0.9167000000000001	n/a	No	2.721	n/a	n/a	NoResponse	-1	0.0	n/a	2	11	ISIslide	Loss	True
124.123	0.25	Control	0.9231	0.001	Yes	2.977	0.023	n/a	GoodResponse	0	n/a	n/a	2	12	Cue	Neutral	True
124.374	3.9	Control	0.9231	0.0	Yes	2.977	0.001	n/a	GoodResponse	0	n/a	n/a	2	12	Fixation	Neutral	True
128.269	0.28	Control	0.9231	0.004	Yes	2.977	-0.004	2.0	GoodResponse	0	0.264	127.533	2	12	Target	Neutral	True
128.533	0.3	Control	0.9231	0.004	Yes	2.977	-0.004	2.0	GoodResponse	0	0.264	n/a	2	12	ButtonPress	Neutral	True
128.553	0.42	Control	0.9231	n/a	Yes	2.977	n/a	n/a	GoodResponse	0	n/a	n/a	2	12	Blank	Neutral	True
128.971	1.45	Control	0.9231	n/a	Yes	2.977	n/a	5.0	GoodResponse	0	0.028	127.999	2	12	Feedback	Neutral	True
130.426	2.977	Control	0.9231	n/a	Yes	2.977	n/a	n/a	GoodResponse	0	0.0	n/a	2	12	ISIslide	Neutral	True
133.418	0.25	Control	0.9286	0.0	Yes	2.782	0.018	n/a	GoodResponse	0	n/a	n/a	2	13	Cue	Neutral	True
133.669	4.0	Control	0.9286	0.0	Yes	2.782	0.001	n/a	GoodResponse	0	n/a	n/a	2	13	Fixation	Neutral	True
137.664	0.27	Control	0.9286	0.004	Yes	2.782	-0.004	2.0	GoodResponse	0	0.247	136.911	2	13	Target	Neutral	True
137.911	0.3	Control	0.9286	0.004	Yes	2.782	-0.004	2.0	GoodResponse	0	0.247	n/a	2	13	ButtonPress	Neutral	True
137.948	0.43	Control	0.9286	n/a	Yes	2.782	n/a	n/a	GoodResponse	0	n/a	n/a	2	13	Blank	Neutral	True
138.366	1.45	Control	0.9286	n/a	Yes	2.782	n/a	5.0	GoodResponse	0	0.048	137.414	2	13	Feedback	Neutral	True
139.821	2.782	Control	0.9286	n/a	Yes	2.782	n/a	n/a	GoodResponse	0	0.0	n/a	2	13	ISIslide	Neutral	True
142.629	0.25	Win2	0.9333	0.0	Yes	2.671	0.029	n/a	GoodResponse	1	n/a	n/a	3	14	Cue	Win	True
142.88	4.1	Win2	0.9333	0.0	Yes	2.671	0.001	n/a	GoodResponse	1	n/a	n/a	3	14	Fixation	Win	True
146.975	0.26	Win2	0.9333	0.004	Yes	2.671	-0.004	2.0	GoodResponse	1	0.211	146.186	3	14	Target	Win	True
147.186	0.3	Win2	0.9333	0.004	Yes	2.671	-0.004	2.0	GoodResponse	1	0.211	n/a	3	14	ButtonPress	Win	True
147.243	0.44	Win2	0.9333	n/a	Yes	2.671	n/a	n/a	GoodResponse	1	n/a	n/a	3	14	Blank	Win	True
147.677	1.45	Win2	0.9333	n/a	Yes	2.671	n/a	5.0	GoodResponse	1	0.006	146.683	3	14	Feedback	Win	True
149.132	2.671	Win2	0.9333	n/a	Yes	2.671	n/a	n/a	GoodResponse	1	0.0	n/a	3	14	ISIslide	Win	True
151.823	0.25	Control	0.9375	0.0	Yes	2.977	0.023	n/a	GoodResponse	0	n/a	n/a	3	15	Cue	Neutral	True
152.074	4.0	Control	0.9375	0.0	Yes	2.977	0.001	n/a	GoodResponse	0	n/a	n/a	3	15	Fixation	Neutral	True
156.069	0.25	Control	0.9375	0.004	Yes	2.977	-0.004	2.0	GoodResponse	0	0.246	155.315	3	15	Target	Neutral	True
156.315	0.3	Control	0.9375	0.004	Yes	2.977	-0.004	2.0	GoodResponse	0	0.246	n/a	3	15	ButtonPress	Neutral	True
156.32	0.45	Control	0.9375	n/a	Yes	2.977	n/a	n/a	GoodResponse	0	n/a	n/a	3	15	Blank	Neutral	True
156.771	1.45	Control	0.9375	n/a	Yes	2.977	n/a	5.0	GoodResponse	0	0.033	155.804	3	15	Feedback	Neutral	True
158.226	2.977	Control	0.9375	n/a	Yes	2.977	n/a	n/a	GoodResponse	0	0.0	n/a	3	15	ISIslide	Neutral	True
161.218	0.25	Win2	0.9412	0.0	Yes	2.882	0.018	n/a	GoodResponse	1	n/a	n/a	4	16	Cue	Win	False
161.469	4.0	Win2	0.9412	0.0	Yes	2.882	0.001	2.0	GoodResponse	1	2.861	163.33	4	16	Fixation	Win	False
164.33	0.3	Win2	0.9412	0.0	Yes	2.882	0.001	2.0	GoodResponse	1	2.861	n/a	4	16	ButtonPress	Win	False
165.464	0.24	Win2	0.9412	0.004	Yes	2.882	-0.004	2.0	GoodResponse	1	0.239	164.703	4	16	Target	Win	False
165.703	0.3	Win2	0.9412	0.004	Yes	2.882	-0.004	2.0	GoodResponse	1	0.239	n/a	4	16	ButtonPress	Win	False
165.715	0.46	Win2	0.9412	n/a	Yes	2.882	n/a	n/a	GoodResponse	1	n/a	n/a	4	16	Blank	Win	False
166.166	1.45	Win2	0.9412	n/a	Yes	2.882	n/a	5.0	GoodResponse	1	0.007	165.173	4	16	Feedback	Win	False
167.62	2.882	Win2	0.9412	n/a	Yes	2.882	n/a	n/a	GoodResponse	1	0.0	n/a	4	16	ISIslide	Win	False
170.529	0.25	Lose2	0.8889	0.0	No	2.721	0.029	n/a	NoResponse	-1	n/a	n/a	3	17	Cue	Loss	True
170.78	3.95	Lose2	0.8889	0.0	No	2.721	0.001	n/a	NoResponse	-1	n/a	n/a	3	17	Fixation	Loss	True
174.725	0.23	Lose2	0.8889	0.004	No	2.721	-0.004	2.0	NoResponse	-1	0.243	173.968	3	17	Target	Loss	True
174.959	0.47	Lose2	0.8889	n/a	No	2.721	n/a	n/a	NoResponse	-1	n/a	n/a	3	17	Blank	Loss	True
174.968	0.3	Lose2	0.8889	0.004	No	2.721	-0.004	2.0	NoResponse	-1	0.243	n/a	3	17	ButtonPress	Loss	True
175.427	1.45	Lose2	0.8889	n/a	No	2.721	n/a	5.0	NoResponse	-1	0.011	174.438	3	17	Feedback	Loss	True
176.882	2.721	Lose2	0.8889	n/a	No	2.721	n/a	n/a	NoResponse	-1	0.0	n/a	3	17	ISIslide	Loss	True
179.623	0.25	Lose2	0.8421	0.0	No	2.727	0.023	n/a	NoResponse	-1	n/a	n/a	2	18	Cue	Loss	True
179.874	4.05	Lose2	0.8421	0.0	No	2.727	0.001	n/a	NoResponse	-1	n/a	n/a	2	18	Fixation	Loss	True
183.919	0.22	Lose2	0.8421	0.004	No	2.727	-0.004	2.0	NoResponse	-1	0.255	183.174	2	18	Target	Loss	True
184.153	0.48	Lose2	0.8421	n/a	No	2.727	n/a	n/a	NoResponse	-1	n/a	n/a	2	18	Blank	Loss	True
184.174	0.3	Lose2	0.8421	0.004	No	2.727	-0.004	2.0	NoResponse	-1	0.255	n/a	2	18	ButtonPress	Loss	True
184.621	1.45	Lose2	0.8421	n/a	No	2.727	n/a	5.0	NoResponse	-1	0.036	183.657	2	18	Feedback	Loss	True
186.076	2.727	Lose2	0.8421	n/a	No	2.727	n/a	n/a	NoResponse	-1	0.0	n/a	2	18	ISIslide	Loss	True
188.817	0.25	Control	0.8	0.0	No	2.933	0.017	n/a	NoResponse	0	n/a	n/a	2	19	Cue	Neutral	True
189.068	3.95	Control	0.8	0.0	No	2.933	0.001	n/a	NoResponse	0	n/a	n/a	2	19	Fixation	Neutral	True
193.013	0.21	Control	0.8	0.004	No	2.933	-0.004	2.0	NoResponse	0	0.232	192.245	2	19	Target	Neutral	True
193.231	0.49	Control	0.8	n/a	No	2.933	n/a	n/a	NoResponse	0	n/a	n/a	2	19	Blank	Neutral	True
193.245	0.3	Control	0.8	0.004	No	2.933	-0.004	2.0	NoResponse	0	0.232	n/a	2	19	ButtonPress	Neutral	True
193.715	1.45	Control	0.8	n/a	No	2.933	n/a	5.0	NoResponse	0	0.015	192.73	2	19	Feedback	Neutral	True
195.17	2.933	Control	0.8	n/a	No	2.933	n/a	n/a	NoResponse	0	0.0	n/a	2	19	ISIslide	Neutral	True
198.129	0.25	Control	0.7619	0.0	No	2.621	0.029	n/a	NoResponse	0	n/a	n/a	2	20	Cue	Neutral	True
198.379	4.05	Control	0.7619	0.0	No	2.621	0.0	n/a	NoResponse	0	n/a	n/a	2	20	Fixation	Neutral	True
202.425	0.2	Control	0.7619	0.004	No	2.621	-0.004	2.0	NoResponse	0	0.234	201.659	2	20	Target	Neutral	True
202.625	0.5	Control	0.7619	n/a	No	2.621	n/a	n/a	NoResponse	0	n/a	n/a	2	20	Blank	Neutral	True
202.659	0.3	Control	0.7619	0.004	No	2.621	-0.004	2.0	NoResponse	0	0.234	n/a	2	20	ButtonPress	Neutral	True
203.127	1.45	Control	0.7619	n/a	No	2.621	n/a	5.0	NoResponse	0	0.018	202.145	2	20	Feedback	Neutral	True
204.581	2.621	Control	0.7619	n/a	No	2.621	n/a	n/a	NoResponse	0	0.0	n/a	2	20	ISIslide	Neutral	True
207.222	0.25	Control	0.7273000000000001	0.001	No	2.778	0.022	n/a	NoResponse	0	n/a	n/a	2	21	Cue	Neutral	True
207.473	4.1	Control	0.7273000000000001	0.0	No	2.778	0.001	n/a	NoResponse	0	n/a	n/a	2	21	Fixation	Neutral	True
211.569	0.19	Control	0.7273000000000001	0.003	No	2.778	-0.003	2.0	NoResponse	0	0.242	210.811	2	21	Target	Neutral	True
211.769	0.51	Control	0.7273000000000001	n/a	No	2.778	n/a	n/a	NoResponse	0	n/a	n/a	2	21	Blank	Neutral	True
211.811	0.3	Control	0.7273000000000001	0.003	No	2.778	-0.003	2.0	NoResponse	0	0.242	n/a	2	21	ButtonPress	Neutral	True
212.271	1.45	Control	0.7273000000000001	n/a	No	2.778	n/a	5.0	NoResponse	0	0.045	211.316	2	21	Feedback	Neutral	True
213.725	2.778	Control	0.7273000000000001	n/a	No	2.778	n/a	n/a	NoResponse	0	0.0	n/a	2	21	ISIslide	Neutral	True
216.517	0.25	Control	0.6957	0.0	No	2.783	0.017	n/a	NoResponse	0	n/a	n/a	2	22	Cue	Neutral	True
216.768	4.0	Control	0.6957	0.0	No	2.783	0.001	n/a	NoResponse	0	n/a	n/a	2	22	Fixation	Neutral	True
220.763	0.18	Control	0.6957	0.004	No	2.783	-0.004	2.0	NoResponse	0	0.205	219.968	2	22	Target	Neutral	True
220.947	0.52	Control	0.6957	n/a	No	2.783	n/a	n/a	NoResponse	0	n/a	n/a	2	22	Blank	Neutral	True
220.968	0.3	Control	0.6957	0.004	No	2.783	-0.004	2.0	NoResponse	0	0.205	n/a	2	22	ButtonPress	Neutral	True
221.465	1.45	Control	0.6957	n/a	No	2.783	n/a	5.0	NoResponse	0	0.022	220.487	2	22	Feedback	Neutral	True
222.92	2.783	Control	0.6957	n/a	No	2.783	n/a	n/a	NoResponse	0	0.0	n/a	2	22	ISIslide	Neutral	True
225.728	0.25	Control	0.6667000000000001	0.0	No	2.772	0.028	n/a	NoResponse	0	n/a	n/a	2	23	Cue	Neutral	True
225.979	3.9	Control	0.6667000000000001	0.0	No	2.772	0.001	n/a	NoResponse	0	n/a	n/a	2	23	Fixation	Neutral	True
229.874	0.17	Control	0.6667000000000001	0.004	No	2.772	-0.004	2.0	NoResponse	0	0.25	229.124	2	23	Target	Neutral	True
230.058	0.53	Control	0.6667000000000001	n/a	No	2.772	n/a	n/a	NoResponse	0	n/a	n/a	2	23	Blank	Neutral	True
230.124	0.3	Control	0.6667000000000001	0.004	No	2.772	-0.004	2.0	NoResponse	0	0.25	n/a	2	23	ButtonPress	Neutral	True
230.576	1.45	Control	0.6667000000000001	n/a	No	2.772	n/a	5.0	NoResponse	0	0.032	229.608	2	23	Feedback	Neutral	True
232.03	2.772	Control	0.6667000000000001	n/a	No	2.772	n/a	n/a	NoResponse	0	0.0	n/a	2	23	ISIslide	Neutral	True
234.822	0.25	Win2	0.64	0.0	No	3.128	0.022	n/a	NoResponse	0	n/a	n/a	2	24	Cue	MissedWin	True
235.073	3.95	Win2	0.64	0.0	No	3.128	0.001	n/a	NoResponse	0	n/a	n/a	2	24	Fixation	MissedWin	True
239.018	0.16	Win2	0.64	0.004	No	3.128	-0.004	2.0	NoResponse	0	0.216	238.234	2	24	Target	MissedWin	True
239.185	0.54	Win2	0.64	n/a	No	3.128	n/a	n/a	NoResponse	0	n/a	n/a	2	24	Blank	MissedWin	True
239.234	0.3	Win2	0.64	0.004	No	3.128	-0.004	2.0	NoResponse	0	0.216	n/a	2	24	ButtonPress	MissedWin	True
239.72	1.45	Win2	0.64	n/a	No	3.128	n/a	5.0	NoResponse	0	0.01	238.73	2	24	Feedback	MissedWin	True
241.174	3.128	Win2	0.64	n/a	No	3.128	n/a	n/a	NoResponse	0	0.0	n/a	2	24	ISIslide	MissedWin	True
244.317	0.25	Win2	0.6154	0.0	No	3.083	0.017	n/a	NoResponse	0	n/a	n/a	2	25	Cue	MissedWin	True
244.568	4.0	Win2	0.6154	0.0	No	3.083	0.001	n/a	NoResponse	0	n/a	n/a	2	25	Fixation	MissedWin	True
248.563	0.17	Win2	0.6154	0.004	No	3.083	-0.004	2.0	NoResponse	0	0.281	247.844	2	25	Target	MissedWin	True
248.747	0.53	Win2	0.6154	n/a	No	3.083	n/a	n/a	NoResponse	0	n/a	n/a	2	25	Blank	MissedWin	True
248.844	0.3	Win2	0.6154	0.004	No	3.083	-0.004	2.0	NoResponse	0	0.281	n/a	2	25	ButtonPress	MissedWin	True
249.265	1.45	Win2	0.6154	n/a	No	3.083	n/a	5.0	NoResponse	0	0.026	248.291	2	25	Feedback	MissedWin	True
250.719	3.083	Win2	0.6154	n/a	No	3.083	n/a	n/a	NoResponse	0	0.0	n/a	2	25	ISIslide	MissedWin	True
253.829	0.25	Win2	0.5926	0.0	No	2.921	0.029	n/a	NoResponse	0	n/a	n/a	2	26	Cue	MissedWin	True
254.08	3.95	Win2	0.5926	0.0	No	2.921	0.001	n/a	NoResponse	0	n/a	n/a	2	26	Fixation	MissedWin	True
258.025	0.18	Win2	0.5926	0.004	No	2.921	-0.004	2.0	NoResponse	0	0.212	257.237	2	26	Target	MissedWin	True
258.209	0.52	Win2	0.5926	n/a	No	2.921	n/a	n/a	NoResponse	0	n/a	n/a	2	26	Blank	MissedWin	True
258.237	0.3	Win2	0.5926	0.004	No	2.921	-0.004	2.0	NoResponse	0	0.212	n/a	2	26	ButtonPress	MissedWin	True
258.727	1.45	Win2	0.5926	n/a	No	2.921	n/a	5.0	NoResponse	0	0.027	257.754	2	26	Feedback	MissedWin	True
260.181	2.921	Win2	0.5926	n/a	No	2.921	n/a	n/a	NoResponse	0	0.0	n/a	2	26	ISIslide	MissedWin	True
263.123	0.25	Lose2	0.5714	0.0	No	2.827	0.023	n/a	LatePress	-1	n/a	n/a	1	27	Cue	Loss	True
263.374	4.05	Lose2	0.5714	0.0	No	2.827	0.001	n/a	LatePress	-1	n/a	n/a	1	27	Fixation	Loss	True
267.42	0.19	Lose2	0.5714	0.003	No	2.827	-0.003	2.0	LatePress	-1	0.191	266.611	1	27	Target	Loss	True
267.611	0.3	Lose2	0.5714	0.003	No	2.827	-0.003	2.0	LatePress	-1	0.191	n/a	1	27	ButtonPress	Loss	True
267.62	0.51	Lose2	0.5714	n/a	No	2.827	n/a	n/a	LatePress	-1	n/a	n/a	1	27	Blank	Loss	True
268.122	1.45	Lose2	0.5714	n/a	No	2.827	n/a	5.0	LatePress	-1	0.047	267.169	1	27	Feedback	Loss	True
269.576	2.827	Lose2	0.5714	n/a	No	2.827	n/a	n/a	LatePress	-1	0.0	n/a	1	27	ISIslide	Loss	True
272.418	0.25	Control	0.5517	0.0	No	2.832	0.018	n/a	NoResponse	0	n/a	n/a	1	28	Cue	Neutral	True
272.669	4.05	Control	0.5517	0.0	No	2.832	0.001	n/a	NoResponse	0	n/a	n/a	1	28	Fixation	Neutral	True
276.714	0.2	Control	0.5517	0.004	No	2.832	-0.004	2.0	NoResponse	0	0.385	276.099	1	28	Target	Neutral	True
276.915	0.5	Control	0.5517	n/a	No	2.832	n/a	n/a	NoResponse	0	n/a	n/a	1	28	Blank	Neutral	True
277.099	0.3	Control	0.5517	0.004	No	2.832	-0.004	2.0	NoResponse	0	0.385	n/a	1	28	ButtonPress	Neutral	True
277.416	1.45	Control	0.5517	n/a	No	2.832	n/a	5.0	NoResponse	0	0.022	276.438	1	28	Feedback	Neutral	True
278.87	2.832	Control	0.5517	n/a	No	2.832	n/a	n/a	NoResponse	0	0.0	n/a	1	28	ISIslide	Neutral	True
281.729	0.25	Lose2	0.5333	0.0	No	2.821	0.029	n/a	NoResponse	-1	n/a	n/a	0	29	Cue	Loss	True
281.98	3.95	Lose2	0.5333	0.0	No	2.821	0.001	n/a	NoResponse	-1	n/a	n/a	0	29	Fixation	Loss	True
285.925	0.21	Lose2	0.5333	0.004	No	2.821	-0.004	2.0	NoResponse	-1	0.227	285.152	0	29	Target	Loss	True
286.142	0.49	Lose2	0.5333	n/a	No	2.821	n/a	n/a	NoResponse	-1	n/a	n/a	0	29	Blank	Loss	True
286.152	0.3	Lose2	0.5333	0.004	No	2.821	-0.004	2.0	NoResponse	-1	0.227	n/a	0	29	ButtonPress	Loss	True
286.627	1.45	Lose2	0.5333	n/a	No	2.821	n/a	5.0	NoResponse	-1	0.029	285.656	0	29	Feedback	Loss	True
288.081	2.821	Lose2	0.5333	n/a	No	2.821	n/a	n/a	NoResponse	-1	0.0	n/a	0	29	ISIslide	Loss	True
290.923	0.25	Win2	0.5161	0.0	No	2.777	0.023	n/a	LatePress	0	n/a	n/a	0	30	Cue	MissedWin	True
291.174	3.9	Win2	0.5161	0.0	No	2.777	0.001	n/a	LatePress	0	n/a	n/a	0	30	Fixation	MissedWin	True
295.069	0.22	Win2	0.5161	0.004	No	2.777	-0.004	2.0	LatePress	0	0.227	294.296	0	30	Target	MissedWin	True
295.296	0.3	Win2	0.5161	0.004	No	2.777	-0.004	2.0	LatePress	0	0.227	n/a	0	30	ButtonPress	MissedWin	True
295.303	0.48	Win2	0.5161	n/a	No	2.777	n/a	n/a	LatePress	0	n/a	n/a	0	30	Blank	MissedWin	True
295.771	1.45	Win2	0.5161	n/a	No	2.777	n/a	5.0	LatePress	0	0.007	294.778	0	30	Feedback	MissedWin	True
297.225	2.777	Win2	0.5161	n/a	No	2.777	n/a	n/a	LatePress	0	0.0	n/a	0	30	ISIslide	MissedWin	True
300.017	0.25	Lose2	0.5	0.0	No	2.833	0.017	n/a	LatePress	-1	n/a	n/a	-1	31	Cue	Loss	True
300.268	4.05	Lose2	0.5	0.0	No	2.833	0.001	n/a	LatePress	-1	n/a	n/a	-1	31	Fixation	Loss	True
304.313	0.23	Lose2	0.5	0.004	No	2.833	-0.004	2.0	LatePress	-1	0.232	303.545	-1	31	Target	Loss	True
304.545	0.3	Lose2	0.5	0.004	No	2.833	-0.004	2.0	LatePress	-1	0.232	n/a	-1	31	ButtonPress	Loss	True
304.547	0.47	Lose2	0.5	n/a	No	2.833	n/a	n/a	LatePress	-1	n/a	n/a	-1	31	Blank	Loss	True
305.016	1.45	Lose2	0.5	n/a	No	2.833	n/a	5.0	LatePress	-1	0.031	304.047	-1	31	Feedback	Loss	True
306.47	2.833	Lose2	0.5	n/a	No	2.833	n/a	n/a	LatePress	-1	0.0	n/a	-1	31	ISIslide	Loss	True
309.328	0.25	Lose2	0.5152	0.0	Yes	2.622	0.028	n/a	GoodResponse	0	n/a	n/a	-1	32	Cue	AvoidedLoss	True
309.579	4.15	Lose2	0.5152	0.0	Yes	2.622	0.001	n/a	GoodResponse	0	n/a	n/a	-1	32	Fixation	AvoidedLoss	True
313.725	0.24	Lose2	0.5152	0.003	Yes	2.622	-0.003	2.0	GoodResponse	0	0.234	312.959	-1	32	Target	AvoidedLoss	True
313.959	0.3	Lose2	0.5152	0.003	Yes	2.622	-0.003	2.0	GoodResponse	0	0.234	n/a	-1	32	ButtonPress	AvoidedLoss	True
313.976	0.46	Lose2	0.5152	n/a	Yes	2.622	n/a	n/a	GoodResponse	0	n/a	n/a	-1	32	Blank	AvoidedLoss	True
314.427	1.45	Lose2	0.5152	n/a	Yes	2.622	n/a	5.0	GoodResponse	0	0.034	313.461	-1	32	Feedback	AvoidedLoss	True
315.881	2.622	Lose2	0.5152	n/a	Yes	2.622	n/a	n/a	GoodResponse	0	0.0	n/a	-1	32	ISIslide	AvoidedLoss	True
318.523	0.25	Win2	0.5294	0.0	Yes	2.677	0.023	n/a	GoodResponse	1	n/a	n/a	0	33	Cue	Win	True
318.773	4.0	Win2	0.5294	0.0	Yes	2.677	0.0	n/a	GoodResponse	1	n/a	n/a	0	33	Fixation	Win	True
322.769	0.25	Win2	0.5294	0.004	Yes	2.677	-0.004	2.0	GoodResponse	1	0.245	322.014	0	33	Target	Win	True
323.014	0.3	Win2	0.5294	0.004	Yes	2.677	-0.004	2.0	GoodResponse	1	0.245	n/a	0	33	ButtonPress	Win	True
323.019	0.45	Win2	0.5294	n/a	Yes	2.677	n/a	n/a	GoodResponse	1	n/a	n/a	0	33	Blank	Win	True
323.471	1.45	Win2	0.5294	n/a	Yes	2.677	n/a	5.0	GoodResponse	1	0.015	322.486	0	33	Feedback	Win	True
324.925	2.677	Win2	0.5294	n/a	Yes	2.677	n/a	n/a	GoodResponse	1	0.0	n/a	0	33	ISIslide	Win	True
327.617	0.25	Lose2	0.5428999999999999	0.0	Yes	2.633	0.017	n/a	GoodResponse	0	n/a	n/a	0	34	Cue	AvoidedLoss	True
327.867	4.05	Lose2	0.5428999999999999	0.0	Yes	2.633	0.0	n/a	GoodResponse	0	n/a	n/a	0	34	Fixation	AvoidedLoss	True
331.913	0.26	Lose2	0.5428999999999999	0.004	Yes	2.633	-0.004	2.0	GoodResponse	0	0.22	331.133	0	34	Target	AvoidedLoss	True
332.133	0.3	Lose2	0.5428999999999999	0.004	Yes	2.633	-0.004	2.0	GoodResponse	0	0.22	n/a	0	34	ButtonPress	AvoidedLoss	True
332.18	0.44	Lose2	0.5428999999999999	n/a	Yes	2.633	n/a	n/a	GoodResponse	0	n/a	n/a	0	34	Blank	AvoidedLoss	True
332.615	1.45	Lose2	0.5428999999999999	n/a	Yes	2.633	n/a	5.0	GoodResponse	0	0.042	331.657	0	34	Feedback	AvoidedLoss	True
334.069	2.633	Lose2	0.5428999999999999	n/a	Yes	2.633	n/a	n/a	GoodResponse	0	0.0	n/a	0	34	ISIslide	AvoidedLoss	True
336.727	0.25	Lose2	0.5556	0.0	Yes	2.673	0.027	n/a	GoodResponse	0	n/a	n/a	0	35	Cue	AvoidedLoss	True
336.978	4.0	Lose2	0.5556	0.0	Yes	2.673	0.001	n/a	GoodResponse	0	n/a	n/a	0	35	Fixation	AvoidedLoss	True
340.973	0.27	Lose2	0.5556	0.004	Yes	2.673	-0.004	2.0	GoodResponse	0	0.225	340.198	0	35	Target	AvoidedLoss	True
341.198	0.3	Lose2	0.5556	0.004	Yes	2.673	-0.004	2.0	GoodResponse	0	0.225	n/a	0	35	ButtonPress	AvoidedLoss	True
341.257	0.43	Lose2	0.5556	n/a	Yes	2.673	n/a	n/a	GoodResponse	0	n/a	n/a	0	35	Blank	AvoidedLoss	True
341.675	1.45	Lose2	0.5556	n/a	Yes	2.673	n/a	5.0	GoodResponse	0	0.006	340.681	0	35	Feedback	AvoidedLoss	True
343.13	2.673	Lose2	0.5556	n/a	Yes	2.673	n/a	n/a	GoodResponse	0	0.0	n/a	0	35	ISIslide	AvoidedLoss	True
345.821	0.25	Control	0.5405	0.0	No	2.679	0.021	n/a	NoResponse	0	n/a	n/a	0	36	Cue	Neutral	True
346.072	4.0	Control	0.5405	0.0	No	2.679	0.001	n/a	NoResponse	0	n/a	n/a	0	36	Fixation	Neutral	True
350.067	0.28	Control	0.5405	0.004	No	2.679	-0.004	2.0	NoResponse	0	0.314	349.381	0	36	Target	Neutral	True
350.351	0.42	Control	0.5405	n/a	No	2.679	n/a	n/a	NoResponse	0	n/a	n/a	0	36	Blank	Neutral	True
350.381	0.3	Control	0.5405	0.004	No	2.679	-0.004	2.0	NoResponse	0	0.314	n/a	0	36	ButtonPress	Neutral	True
350.769	1.45	Control	0.5405	n/a	No	2.679	n/a	5.0	NoResponse	0	0.033	349.802	0	36	Feedback	Neutral	True
352.224	2.679	Control	0.5405	n/a	No	2.679	n/a	n/a	NoResponse	0	0.0	n/a	0	36	ISIslide	Neutral	True
354.915	0.25	Win2	0.5526	0.0	Yes	2.885	0.015	n/a	GoodResponse	1	n/a	n/a	1	37	Cue	Win	True
355.166	4.0	Win2	0.5526	0.0	Yes	2.885	0.001	n/a	GoodResponse	1	n/a	n/a	1	37	Fixation	Win	True
359.161	0.29	Win2	0.5526	0.004	Yes	2.885	-0.004	2.0	GoodResponse	1	0.23	358.391	1	37	Target	Win	True
359.391	0.3	Win2	0.5526	0.004	Yes	2.885	-0.004	2.0	GoodResponse	1	0.23	n/a	1	37	ButtonPress	Win	True
359.462	0.41	Win2	0.5526	n/a	Yes	2.885	n/a	n/a	GoodResponse	1	n/a	n/a	1	37	Blank	Win	True
359.863	1.45	Win2	0.5526	n/a	Yes	2.885	n/a	5.0	GoodResponse	1	0.013	358.876	1	37	Feedback	Win	True
361.318	2.885	Win2	0.5526	n/a	Yes	2.885	n/a	n/a	GoodResponse	1	0.0	n/a	1	37	ISIslide	Win	True
364.226	0.25	Lose2	0.5640999999999999	0.0	Yes	2.824	0.026	n/a	GoodResponse	0	n/a	n/a	1	38	Cue	AvoidedLoss	True
364.477	3.95	Lose2	0.5640999999999999	0.0	Yes	2.824	0.001	n/a	GoodResponse	0	n/a	n/a	1	38	Fixation	AvoidedLoss	True
368.422	0.3	Lose2	0.5640999999999999	0.004	Yes	2.824	-0.004	2.0	GoodResponse	0	0.245	367.667	1	38	Target	AvoidedLoss	True
368.667	0.3	Lose2	0.5640999999999999	0.004	Yes	2.824	-0.004	2.0	GoodResponse	0	0.245	n/a	1	38	ButtonPress	AvoidedLoss	True
368.723	0.4	Lose2	0.5640999999999999	n/a	Yes	2.824	n/a	n/a	GoodResponse	0	n/a	n/a	1	38	Blank	AvoidedLoss	True
369.124	1.45	Lose2	0.5640999999999999	n/a	Yes	2.824	n/a	5.0	GoodResponse	0	0.02	368.144	1	38	Feedback	AvoidedLoss	True
370.579	2.824	Lose2	0.5640999999999999	n/a	Yes	2.824	n/a	n/a	GoodResponse	0	0.0	n/a	1	38	ISIslide	AvoidedLoss	True
373.42	0.25	Win2	0.575	0.001	Yes	2.98	0.02	n/a	GoodResponse	1	n/a	n/a	2	39	Cue	Win	True
373.671	4.1	Win2	0.575	0.0	Yes	2.98	0.001	n/a	GoodResponse	1	n/a	n/a	2	39	Fixation	Win	True
377.767	0.31	Win2	0.575	0.003	Yes	2.98	-0.003	2.0	GoodResponse	1	0.303	377.07	2	39	Target	Win	True
378.07	0.3	Win2	0.575	0.003	Yes	2.98	-0.003	2.0	GoodResponse	1	0.303	n/a	2	39	ButtonPress	Win	True
378.084	0.39	Win2	0.575	n/a	Yes	2.98	n/a	n/a	GoodResponse	1	n/a	n/a	2	39	Blank	Win	True
378.469	1.45	Win2	0.575	n/a	Yes	2.98	n/a	5.0	GoodResponse	1	0.041	377.51	2	39	Feedback	Win	True
379.923	2.98	Win2	0.575	n/a	Yes	2.98	n/a	n/a	GoodResponse	1	0.0	n/a	2	39	ISIslide	Win	True
382.916	0.25	Win2	0.5854	0.0	Yes	2.734	0.016	n/a	GoodResponse	1	n/a	n/a	3	40	Cue	Win	True
383.166	3.95	Win2	0.5854	0.0	Yes	2.734	0.0	n/a	GoodResponse	1	n/a	n/a	3	40	Fixation	Win	True
387.128	0.32	Win2	0.5854	0.0	Yes	2.734	0.012	2.0	GoodResponse	1	0.249	386.377	3	40	Target	Win	True
387.377	0.3	Win2	0.5854	0.0	Yes	2.734	0.012	2.0	GoodResponse	1	0.249	n/a	3	40	ButtonPress	Win	True
387.446	0.38	Win2	0.5854	n/a	Yes	2.734	n/a	n/a	GoodResponse	1	n/a	n/a	3	40	Blank	Win	True
387.814	1.45	Win2	0.5854	n/a	Yes	2.734	n/a	5.0	GoodResponse	1	0.013	386.827	3	40	Feedback	Win	True
389.268	2.734	Win2	0.5854	n/a	Yes	2.734	n/a	n/a	GoodResponse	1	0.0	n/a	3	40	ISIslide	Win	True
392.026	0.25	Win2	0.5952000000000001	0.0	Yes	2.774	0.026	n/a	GoodResponse	1	n/a	n/a	4	41	Cue	Win	True
392.277	3.9	Win2	0.5952000000000001	0.0	Yes	2.774	0.001	n/a	GoodResponse	1	n/a	n/a	4	41	Fixation	Win	True
396.172	0.33	Win2	0.5952000000000001	0.004	Yes	2.774	-0.004	2.0	GoodResponse	1	0.216	395.388	4	41	Target	Win	True
396.388	0.3	Win2	0.5952000000000001	0.004	Yes	2.774	-0.004	2.0	GoodResponse	1	0.216	n/a	4	41	ButtonPress	Win	True
396.506	0.37	Win2	0.5952000000000001	n/a	Yes	2.774	n/a	n/a	GoodResponse	1	n/a	n/a	4	41	Blank	Win	True
396.874	1.45	Win2	0.5952000000000001	n/a	Yes	2.774	n/a	5.0	GoodResponse	1	0.026	395.9	4	41	Feedback	Win	True
398.328	2.774	Win2	0.5952000000000001	n/a	Yes	2.774	n/a	n/a	GoodResponse	1	0.0	n/a	4	41	ISIslide	Win	True
401.12	0.25	Control	0.6047	0.0	Yes	2.93	0.02	n/a	GoodResponse	0	n/a	n/a	4	42	Cue	Neutral	True
401.371	3.85	Control	0.6047	0.0	Yes	2.93	0.001	n/a	GoodResponse	0	n/a	n/a	4	42	Fixation	Neutral	True
405.216	0.34	Control	0.6047	0.004	Yes	2.93	-0.004	2.0	GoodResponse	0	0.223	404.439	4	42	Target	Neutral	True
405.439	0.3	Control	0.6047	0.004	Yes	2.93	-0.004	2.0	GoodResponse	0	0.223	n/a	4	42	ButtonPress	Neutral	True
405.567	0.36	Control	0.6047	n/a	Yes	2.93	n/a	n/a	GoodResponse	0	n/a	n/a	4	42	Blank	Neutral	True
405.918	1.45	Control	0.6047	n/a	Yes	2.93	n/a	5.0	GoodResponse	0	0.007	404.925	4	42	Feedback	Neutral	True
407.372	2.93	Control	0.6047	n/a	Yes	2.93	n/a	n/a	GoodResponse	0	0.0	n/a	4	42	ISIslide	Neutral	True
410.331	0.25	Win2	0.6136	0.0	Yes	3.169	0.031	n/a	GoodResponse	1	n/a	n/a	5	43	Cue	Win	True
410.582	4.0	Win2	0.6136	0.0	Yes	3.169	0.001	n/a	GoodResponse	1	n/a	n/a	5	43	Fixation	Win	True
414.577	0.35	Win2	0.6136	0.004	Yes	3.169	-0.004	2.0	GoodResponse	1	0.222	413.799	5	43	Target	Win	True
414.799	0.3	Win2	0.6136	0.004	Yes	3.169	-0.004	2.0	GoodResponse	1	0.222	n/a	5	43	ButtonPress	Win	True
414.928	0.35	Win2	0.6136	n/a	Yes	3.169	n/a	n/a	GoodResponse	1	n/a	n/a	5	43	Blank	Win	True
415.279	1.45	Win2	0.6136	n/a	Yes	3.169	n/a	5.0	GoodResponse	1	0.011	414.29	5	43	Feedback	Win	True
416.734	3.169	Win2	0.6136	n/a	Yes	3.169	n/a	n/a	GoodResponse	1	0.0	n/a	5	43	ISIslide	Win	True
419.926	0.25	Win2	0.6222	0.001	Yes	2.974	0.026	n/a	GoodResponse	1	n/a	n/a	6	44	Cue	Win	True
420.177	4.0	Win2	0.6222	0.0	Yes	2.974	0.001	n/a	GoodResponse	1	n/a	n/a	6	44	Fixation	Win	True
424.173	0.36	Win2	0.6222	0.003	Yes	2.974	-0.003	2.0	GoodResponse	1	0.289	423.462	6	44	Target	Win	True
424.462	0.3	Win2	0.6222	0.003	Yes	2.974	-0.003	2.0	GoodResponse	1	0.289	n/a	6	44	ButtonPress	Win	True
424.54	0.34	Win2	0.6222	n/a	Yes	2.974	n/a	n/a	GoodResponse	1	n/a	n/a	6	44	Blank	Win	True
424.875	1.45	Win2	0.6222	n/a	Yes	2.974	n/a	5.0	GoodResponse	1	0.025	423.9	6	44	Feedback	Win	True
426.329	2.974	Win2	0.6222	n/a	Yes	2.974	n/a	n/a	GoodResponse	1	0.0	n/a	6	44	ISIslide	Win	True
429.321	0.25	Control	0.6304	0.0	Yes	2.879	0.021	n/a	GoodResponse	0	n/a	n/a	6	45	Cue	Neutral	True
429.572	4.1	Control	0.6304	0.0	Yes	2.879	0.001	n/a	GoodResponse	0	n/a	n/a	6	45	Fixation	Neutral	True
433.668	0.37	Control	0.6304	0.003	Yes	2.879	-0.003	2.0	GoodResponse	0	0.355	433.023	6	45	Target	Neutral	True
434.023	0.3	Control	0.6304	0.003	Yes	2.879	-0.003	2.0	GoodResponse	0	0.355	n/a	6	45	ButtonPress	Neutral	True
434.052	0.33	Control	0.6304	n/a	Yes	2.879	n/a	n/a	GoodResponse	0	n/a	n/a	6	45	Blank	Neutral	True
434.37	1.45	Control	0.6304	n/a	Yes	2.879	n/a	5.0	GoodResponse	0	0.042	433.412	6	45	Feedback	Neutral	True
435.824	2.879	Control	0.6304	n/a	Yes	2.879	n/a	n/a	GoodResponse	0	0.0	n/a	6	45	ISIslide	Neutral	True
438.716	0.25	Lose2	0.6383	0.0	Yes	3.384	0.016	n/a	GoodResponse	0	n/a	n/a	6	46	Cue	AvoidedLoss	True
438.967	4.0	Lose2	0.6383	0.0	Yes	3.384	0.001	n/a	GoodResponse	0	n/a	n/a	6	46	Fixation	AvoidedLoss	True
442.962	0.38	Lose2	0.6383	0.004	Yes	3.384	-0.004	2.0	GoodResponse	0	0.209	442.171	6	46	Target	AvoidedLoss	True
443.171	0.3	Lose2	0.6383	0.004	Yes	3.384	-0.004	2.0	GoodResponse	0	0.209	n/a	6	46	ButtonPress	AvoidedLoss	True
443.347	0.32	Lose2	0.6383	n/a	Yes	3.384	n/a	n/a	GoodResponse	0	n/a	n/a	6	46	Blank	AvoidedLoss	True
443.664	1.45	Lose2	0.6383	n/a	Yes	3.384	n/a	5.0	GoodResponse	0	0.016	442.68	6	46	Feedback	AvoidedLoss	True
445.119	3.384	Lose2	0.6383	n/a	Yes	3.384	n/a	n/a	GoodResponse	0	0.0	n/a	6	46	ISIslide	AvoidedLoss	True
448.529	0.25	Lose2	0.6457999999999999	0.0	Yes	2.671	0.029	n/a	GoodResponse	0	n/a	n/a	6	47	Cue	AvoidedLoss	True
448.78	4.0	Lose2	0.6457999999999999	0.0	Yes	2.671	0.001	n/a	GoodResponse	0	n/a	n/a	6	47	Fixation	AvoidedLoss	True
452.775	0.39	Lose2	0.6457999999999999	0.004	Yes	2.671	-0.004	2.0	GoodResponse	0	0.211	451.986	6	47	Target	AvoidedLoss	True
452.986	0.3	Lose2	0.6457999999999999	0.004	Yes	2.671	-0.004	2.0	GoodResponse	0	0.211	n/a	6	47	ButtonPress	AvoidedLoss	True
453.176	0.31	Lose2	0.6457999999999999	n/a	Yes	2.671	n/a	n/a	GoodResponse	0	n/a	n/a	6	47	Blank	AvoidedLoss	True
453.477	1.45	Lose2	0.6457999999999999	n/a	Yes	2.671	n/a	5.0	GoodResponse	0	0.008	452.485	6	47	Feedback	AvoidedLoss	True
454.931	2.671	Lose2	0.6457999999999999	n/a	Yes	2.671	n/a	n/a	GoodResponse	0	0.0	n/a	6	47	ISIslide	AvoidedLoss	True
457.623	0.25	Lose2	0.6531	0.0	Yes	3.027	0.023	n/a	GoodResponse	0	n/a	n/a	6	48	Cue	AvoidedLoss	True
457.874	3.95	Lose2	0.6531	0.0	Yes	3.027	0.001	n/a	GoodResponse	0	n/a	n/a	6	48	Fixation	AvoidedLoss	True
461.819	0.4	Lose2	0.6531	0.004	Yes	3.027	-0.004	2.0	GoodResponse	0	0.248	461.067	6	48	Target	AvoidedLoss	True
462.067	0.3	Lose2	0.6531	0.004	Yes	3.027	-0.004	2.0	GoodResponse	0	0.248	n/a	6	48	ButtonPress	AvoidedLoss	True
462.22	0.3	Lose2	0.6531	n/a	Yes	3.027	n/a	n/a	GoodResponse	0	n/a	n/a	6	48	Blank	AvoidedLoss	True
462.521	1.45	Lose2	0.6531	n/a	Yes	3.027	n/a	5.0	GoodResponse	0	0.037	461.558	6	48	Feedback	AvoidedLoss	True
463.975	3.027	Lose2	0.6531	n/a	Yes	3.027	n/a	n/a	GoodResponse	0	0.0	n/a	6	48	ISIslide	AvoidedLoss	True
467.018	0.25	Control	0.66	0.0	Yes	2.882	0.018	n/a	GoodResponse	0	n/a	n/a	6	49	Cue	Neutral	True
467.268	4.0	Control	0.66	0.0	Yes	2.882	0.0	n/a	GoodResponse	0	n/a	n/a	6	49	Fixation	Neutral	True
471.264	0.41	Control	0.66	0.004	Yes	2.882	-0.004	2.0	GoodResponse	0	0.27	470.534	6	49	Target	Neutral	True
471.534	0.3	Control	0.66	0.004	Yes	2.882	-0.004	2.0	GoodResponse	0	0.27	n/a	6	49	ButtonPress	Neutral	True
471.682	0.29	Control	0.66	n/a	Yes	2.882	n/a	n/a	GoodResponse	0	n/a	n/a	6	49	Blank	Neutral	True
471.966	1.45	Control	0.66	n/a	Yes	2.882	n/a	5.0	GoodResponse	0	0.007	470.973	6	49	Feedback	Neutral	True
473.42	2.882	Control	0.66	n/a	Yes	2.882	n/a	n/a	GoodResponse	0	0.0	n/a	6	49	ISIslide	Neutral	True
476.329	0.25	Control	0.6667000000000001	0.0	Yes	2.771	0.029	n/a	GoodResponse	0	n/a	n/a	6	50	Cue	Neutral	True
476.58	4.0	Control	0.6667000000000001	0.0	Yes	2.771	0.001	n/a	GoodResponse	0	n/a	n/a	6	50	Fixation	Neutral	True
480.575	0.41	Control	0.6667000000000001	0.004	Yes	2.771	-0.004	2.0	GoodResponse	0	0.257	479.832	6	50	Target	Neutral	True
480.832	0.3	Control	0.6667000000000001	0.004	Yes	2.771	-0.004	2.0	GoodResponse	0	0.257	n/a	6	50	ButtonPress	Neutral	True
480.993	0.29	Control	0.6667000000000001	n/a	Yes	2.771	n/a	n/a	GoodResponse	0	n/a	n/a	6	50	Blank	Neutral	True
481.277	1.45	Control	0.6667000000000001	n/a	Yes	2.771	n/a	5.0	GoodResponse	0	0.013	480.29	6	50	Feedback	Neutral	True
482.731	2.771	Control	0.6667000000000001	n/a	Yes	2.771	n/a	n/a	GoodResponse	0	0.0	n/a	6	50	ISIslide	Neutral	True
485.523	0.25	Control	0.6731	0.0	Yes	2.727	0.023	n/a	GoodResponse	0	n/a	n/a	6	51	Cue	Neutral	True
485.774	3.95	Control	0.6731	0.0	Yes	2.727	0.001	n/a	GoodResponse	0	n/a	n/a	6	51	Fixation	Neutral	True
489.719	0.4	Control	0.6731	0.004	Yes	2.727	-0.004	2.0	GoodResponse	0	0.266	488.985	6	51	Target	Neutral	True
489.985	0.3	Control	0.6731	0.004	Yes	2.727	-0.004	2.0	GoodResponse	0	0.266	n/a	6	51	ButtonPress	Neutral	True
490.12	0.3	Control	0.6731	n/a	Yes	2.727	n/a	n/a	GoodResponse	0	n/a	n/a	6	51	Blank	Neutral	True
490.421	1.45	Control	0.6731	n/a	Yes	2.727	n/a	5.0	GoodResponse	0	0.039	489.46	6	51	Feedback	Neutral	True
491.875	2.727	Control	0.6731	n/a	Yes	2.727	n/a	n/a	GoodResponse	0	0.0	n/a	6	51	ISIslide	Neutral	True
494.617	0.25	Control	0.6604000000000001	0.0	No	2.633	0.017	n/a	NoResponse	0	n/a	n/a	6	52	Cue	Neutral	True
494.868	4.05	Control	0.6604000000000001	0.0	No	2.633	0.001	n/a	NoResponse	0	n/a	n/a	6	52	Fixation	Neutral	True
498.913	0.39	Control	0.6604000000000001	0.004	No	2.633	-0.004	2.0	NoResponse	0	0.517	498.43	6	52	Target	Neutral	True
499.314	0.31	Control	0.6604000000000001	n/a	No	2.633	n/a	n/a	NoResponse	0	n/a	n/a	6	52	Blank	Neutral	True
499.43	0.3	Control	0.6604000000000001	0.004	No	2.633	-0.004	2.0	NoResponse	0	0.517	n/a	6	52	ButtonPress	Neutral	True
499.615	1.45	Control	0.6604000000000001	n/a	No	2.633	n/a	5.0	NoResponse	0	0.016	498.631	6	52	Feedback	Neutral	True
501.07	2.633	Control	0.6604000000000001	n/a	No	2.633	n/a	n/a	NoResponse	0	0.0	n/a	6	52	ISIslide	Neutral	True
503.728	0.25	Win2	0.6667000000000001	0.0	Yes	2.922	0.028	n/a	GoodResponse	1	n/a	n/a	7	53	Cue	Win	True
503.978	4.05	Win2	0.6667000000000001	0.0	Yes	2.922	0.0	n/a	GoodResponse	1	n/a	n/a	7	53	Fixation	Win	True
508.024	0.39	Win2	0.6667000000000001	0.004	Yes	2.922	-0.004	2.0	GoodResponse	1	0.228	507.252	7	53	Target	Win	True
508.252	0.3	Win2	0.6667000000000001	0.004	Yes	2.922	-0.004	2.0	GoodResponse	1	0.228	n/a	7	53	ButtonPress	Win	True
508.425	0.31	Win2	0.6667000000000001	n/a	Yes	2.922	n/a	n/a	GoodResponse	1	n/a	n/a	7	53	Blank	Win	True
508.726	1.45	Win2	0.6667000000000001	n/a	Yes	2.922	n/a	5.0	GoodResponse	1	0.027	507.753	7	53	Feedback	Win	True
510.18	2.922	Win2	0.6667000000000001	n/a	Yes	2.922	n/a	n/a	GoodResponse	1	0.0	n/a	7	53	ISIslide	Win	True
513.122	0.25	Win2	0.6727	0.001	Yes	2.728	0.022	n/a	GoodResponse	1	n/a	n/a	8	54	Cue	Win	True
513.373	3.95	Win2	0.6727	0.0	Yes	2.728	0.001	n/a	GoodResponse	1	n/a	n/a	8	54	Fixation	Win	True
517.318	0.38	Win2	0.6727	0.004	Yes	2.728	-0.004	2.0	GoodResponse	1	0.274	516.592	8	54	Target	Win	True
517.592	0.3	Win2	0.6727	0.004	Yes	2.728	-0.004	2.0	GoodResponse	1	0.274	n/a	8	54	ButtonPress	Win	True
517.703	0.32	Win2	0.6727	n/a	Yes	2.728	n/a	n/a	GoodResponse	1	n/a	n/a	8	54	Blank	Win	True
518.02	1.45	Win2	0.6727	n/a	Yes	2.728	n/a	5.0	GoodResponse	1	0.002	517.022	8	54	Feedback	Win	True
519.475	2.728	Win2	0.6727	n/a	Yes	2.728	n/a	n/a	GoodResponse	1	0.0	n/a	8	54	ISIslide	Win	True
522.216	0.25	Control	0.6786	0.0	Yes	3.034	0.016	n/a	GoodResponse	0	n/a	n/a	8	55	Cue	Neutral	True
522.467	3.95	Control	0.6786	0.0	Yes	3.034	0.001	n/a	GoodResponse	0	n/a	n/a	8	55	Fixation	Neutral	True
526.412	0.37	Control	0.6786	0.004	Yes	3.034	-0.004	2.0	GoodResponse	0	0.253	525.665	8	55	Target	Neutral	True
526.665	0.3	Control	0.6786	0.004	Yes	3.034	-0.004	2.0	GoodResponse	0	0.253	n/a	8	55	ButtonPress	Neutral	True
526.797	0.33	Control	0.6786	n/a	Yes	3.034	n/a	n/a	GoodResponse	0	n/a	n/a	8	55	Blank	Neutral	True
527.114	1.45	Control	0.6786	n/a	Yes	3.034	n/a	5.0	GoodResponse	0	0.029	526.143	8	55	Feedback	Neutral	True
528.569	3.034	Control	0.6786	n/a	Yes	3.034	n/a	n/a	GoodResponse	0	0.0	n/a	8	55	ISIslide	Neutral	True
531.628	0.25	Control	0.6842	0.0	Yes	2.822	0.028	n/a	GoodResponse	0	n/a	n/a	8	56	Cue	Neutral	True
531.879	3.95	Control	0.6842	0.0	Yes	2.822	0.001	n/a	GoodResponse	0	n/a	n/a	8	56	Fixation	Neutral	True
535.824	0.36	Control	0.6842	0.004	Yes	2.822	-0.004	2.0	GoodResponse	0	0.293	535.117	8	56	Target	Neutral	True
536.117	0.3	Control	0.6842	0.004	Yes	2.822	-0.004	2.0	GoodResponse	0	0.293	n/a	8	56	ButtonPress	Neutral	True
536.192	0.34	Control	0.6842	n/a	Yes	2.822	n/a	n/a	GoodResponse	0	n/a	n/a	8	56	Blank	Neutral	True
536.526	1.45	Control	0.6842	n/a	Yes	2.822	n/a	5.0	GoodResponse	0	0.031	535.557	8	56	Feedback	Neutral	True
537.98	2.822	Control	0.6842	n/a	Yes	2.822	n/a	n/a	GoodResponse	0	0.0	n/a	8	56	ISIslide	Neutral	True
540.822	0.25	Control	0.6897	0.0	Yes	3.478	0.022	n/a	GoodResponse	0	n/a	n/a	8	57	Cue	Neutral	True
541.073	4.0	Control	0.6897	0.0	Yes	3.478	0.001	n/a	GoodResponse	0	n/a	n/a	8	57	Fixation	Neutral	True
545.068	0.35	Control	0.6897	0.004	Yes	3.478	-0.004	2.0	GoodResponse	0	0.313	544.381	8	57	Target	Neutral	True
545.381	0.3	Control	0.6897	0.004	Yes	3.478	-0.004	2.0	GoodResponse	0	0.313	n/a	8	57	ButtonPress	Neutral	True
545.419	0.35	Control	0.6897	n/a	Yes	3.478	n/a	n/a	GoodResponse	0	n/a	n/a	8	57	Blank	Neutral	True
545.77	1.45	Control	0.6897	n/a	Yes	3.478	n/a	5.0	GoodResponse	0	0.007	544.777	8	57	Feedback	Neutral	True
547.225	3.478	Control	0.6897	n/a	Yes	3.478	n/a	n/a	GoodResponse	0	0.0	n/a	8	57	ISIslide	Neutral	True
550.718	0.25	Win2	0.6779999999999999	0.0	No	2.732	0.018	n/a	LatePress	0	n/a	n/a	8	58	Cue	MissedWin	True
550.969	4.05	Win2	0.6779999999999999	0.0	No	2.732	0.001	n/a	LatePress	0	n/a	n/a	8	58	Fixation	MissedWin	True
555.015	0.34	Win2	0.6779999999999999	0.003	No	2.732	-0.003	2.0	LatePress	0	0.344	554.359	8	58	Target	MissedWin	True
555.359	0.3	Win2	0.6779999999999999	0.003	No	2.732	-0.003	2.0	LatePress	0	0.344	n/a	8	58	ButtonPress	MissedWin	True
555.366	0.36	Win2	0.6779999999999999	n/a	No	2.732	n/a	n/a	LatePress	0	n/a	n/a	8	58	Blank	MissedWin	True
555.717	1.45	Win2	0.6779999999999999	n/a	No	2.732	n/a	5.0	LatePress	0	0.011	554.728	8	58	Feedback	MissedWin	True
557.171	2.732	Win2	0.6779999999999999	n/a	No	2.732	n/a	n/a	LatePress	0	0.0	n/a	8	58	ISIslide	MissedWin	True
559.929	0.25	Lose2	0.6833	0.0	Yes	2.671	0.029	n/a	GoodResponse	0	n/a	n/a	8	59	Cue	AvoidedLoss	True
560.18	4.0	Lose2	0.6833	0.0	Yes	2.671	0.001	n/a	GoodResponse	0	n/a	n/a	8	59	Fixation	AvoidedLoss	True
564.175	0.33	Lose2	0.6833	0.004	Yes	2.671	-0.004	2.0	GoodResponse	0	0.212	563.387	8	59	Target	AvoidedLoss	True
564.387	0.3	Lose2	0.6833	0.004	Yes	2.671	-0.004	2.0	GoodResponse	0	0.212	n/a	8	59	ButtonPress	AvoidedLoss	True
564.51	0.37	Lose2	0.6833	n/a	Yes	2.671	n/a	n/a	GoodResponse	0	n/a	n/a	8	59	Blank	AvoidedLoss	True
564.877	1.45	Lose2	0.6833	n/a	Yes	2.671	n/a	5.0	GoodResponse	0	0.022	563.899	8	59	Feedback	AvoidedLoss	True
566.332	2.671	Lose2	0.6833	n/a	Yes	2.671	n/a	n/a	GoodResponse	0	0.0	n/a	8	59	ISIslide	AvoidedLoss	True
569.023	0.25	Control	0.6884999999999999	0.0	Yes	2.677	0.023	n/a	GoodResponse	0	n/a	n/a	8	60	Cue	Neutral	True
569.274	4.0	Control	0.6884999999999999	0.0	Yes	2.677	0.001	n/a	GoodResponse	0	n/a	n/a	8	60	Fixation	Neutral	True
573.269	0.32	Control	0.6884999999999999	0.004	Yes	2.677	-0.004	2.0	GoodResponse	0	0.318	572.587	8	60	Target	Neutral	True
573.587	0.3	Control	0.6884999999999999	0.004	Yes	2.677	-0.004	2.0	GoodResponse	0	0.318	n/a	8	60	ButtonPress	Neutral	True
573.604	0.38	Control	0.6884999999999999	n/a	Yes	2.677	n/a	n/a	GoodResponse	0	n/a	n/a	8	60	Blank	Neutral	True
573.971	1.45	Control	0.6884999999999999	n/a	Yes	2.677	n/a	5.0	GoodResponse	0	0.001	572.972	8	60	Feedback	Neutral	True
575.426	2.677	Control	0.6884999999999999	n/a	Yes	2.677	n/a	n/a	GoodResponse	0	0.0	n/a	8	60	ISIslide	Neutral	True
578.117	0.25	Lose2	0.6934999999999999	0.0	Yes	2.983	0.017	n/a	GoodResponse	0	n/a	n/a	8	61	Cue	AvoidedLoss	True
578.368	4.0	Lose2	0.6934999999999999	0.0	Yes	2.983	0.001	n/a	GoodResponse	0	n/a	n/a	8	61	Fixation	AvoidedLoss	True
582.363	0.31	Lose2	0.6934999999999999	0.004	Yes	2.983	-0.004	2.0	GoodResponse	0	0.223	581.586	8	61	Target	AvoidedLoss	True
582.586	0.3	Lose2	0.6934999999999999	0.004	Yes	2.983	-0.004	2.0	GoodResponse	0	0.223	n/a	8	61	ButtonPress	AvoidedLoss	True
582.681	0.39	Lose2	0.6934999999999999	n/a	Yes	2.983	n/a	n/a	GoodResponse	0	n/a	n/a	8	61	Blank	AvoidedLoss	True
583.065	1.45	Lose2	0.6934999999999999	n/a	Yes	2.983	n/a	5.0	GoodResponse	0	0.029	582.094	8	61	Feedback	AvoidedLoss	True
584.52	2.983	Lose2	0.6934999999999999	n/a	Yes	2.983	n/a	n/a	GoodResponse	0	0.0	n/a	8	61	ISIslide	AvoidedLoss	True
587.529	0.25	Lose2	0.6984	0.0	Yes	2.871	0.029	n/a	GoodResponse	0	n/a	n/a	8	62	Cue	AvoidedLoss	True
587.779	3.9	Lose2	0.6984	0.001	Yes	2.871	0.0	n/a	GoodResponse	0	n/a	n/a	8	62	Fixation	AvoidedLoss	True
591.691	0.3	Lose2	0.6984	0.0	Yes	2.871	0.012	2.0	GoodResponse	0	0.278	590.969	8	62	Target	AvoidedLoss	True
591.969	0.3	Lose2	0.6984	0.0	Yes	2.871	0.012	2.0	GoodResponse	0	0.278	n/a	8	62	ButtonPress	AvoidedLoss	True
591.975	0.4	Lose2	0.6984	n/a	Yes	2.871	n/a	n/a	GoodResponse	0	n/a	n/a	8	62	Blank	AvoidedLoss	True
592.377	1.45	Lose2	0.6984	n/a	Yes	2.871	n/a	5.0	GoodResponse	0	0.034	591.411	8	62	Feedback	AvoidedLoss	True
593.831	2.871	Lose2	0.6984	n/a	Yes	2.871	n/a	n/a	GoodResponse	0	0.0	n/a	8	62	ISIslide	AvoidedLoss	True
596.723	0.25	Lose2	0.7031000000000001	0.0	Yes	2.627	0.023	n/a	GoodResponse	0	n/a	n/a	8	63	Cue	AvoidedLoss	True
596.974	4.05	Lose2	0.7031000000000001	0.0	Yes	2.627	0.001	n/a	GoodResponse	0	n/a	n/a	8	63	Fixation	AvoidedLoss	True
601.019	0.29	Lose2	0.7031000000000001	0.004	Yes	2.627	-0.004	2.0	GoodResponse	0	0.234	600.253	8	63	Target	AvoidedLoss	True
601.253	0.3	Lose2	0.7031000000000001	0.004	Yes	2.627	-0.004	2.0	GoodResponse	0	0.234	n/a	8	63	ButtonPress	AvoidedLoss	True
601.32	0.41	Lose2	0.7031000000000001	n/a	Yes	2.627	n/a	n/a	GoodResponse	0	n/a	n/a	8	63	Blank	AvoidedLoss	True
601.721	1.45	Lose2	0.7031000000000001	n/a	Yes	2.627	n/a	5.0	GoodResponse	0	0.007	600.728	8	63	Feedback	AvoidedLoss	True
603.176	2.627	Lose2	0.7031000000000001	n/a	Yes	2.627	n/a	n/a	GoodResponse	0	0.0	n/a	8	63	ISIslide	AvoidedLoss	True
605.817	0.25	Win2	0.7077	0.0	Yes	3.133	0.017	n/a	GoodResponse	1	n/a	n/a	9	64	Cue	Win	True
606.068	4.15	Win2	0.7077	0.0	Yes	3.133	0.001	n/a	GoodResponse	1	n/a	n/a	9	64	Fixation	Win	True
610.213	0.28	Win2	0.7077	0.004	Yes	3.133	-0.004	2.0	GoodResponse	1	0.269	609.482	9	64	Target	Win	True
610.482	0.3	Win2	0.7077	0.004	Yes	3.133	-0.004	2.0	GoodResponse	1	0.269	n/a	9	64	ButtonPress	Win	True
610.498	0.42	Win2	0.7077	n/a	Yes	3.133	n/a	n/a	GoodResponse	1	n/a	n/a	9	64	Blank	Win	True
610.915	1.45	Win2	0.7077	n/a	Yes	3.133	n/a	5.0	GoodResponse	1	0.032	609.947	9	64	Feedback	Win	True
612.37	3.133	Win2	0.7077	n/a	Yes	3.133	n/a	n/a	GoodResponse	1	0.0	n/a	9	64	ISIslide	Win	True
615.513	0.25	Control	0.6970000000000001	0.0	No	2.787	0.013	n/a	LatePress	0	n/a	n/a	9	65	Cue	Neutral	True
615.763	4.0	Control	0.6970000000000001	0.0	No	2.787	0.0	n/a	LatePress	0	n/a	n/a	9	65	Fixation	Neutral	True
619.759	0.27	Control	0.6970000000000001	0.004	No	2.787	-0.004	2.0	LatePress	0	0.284	619.043	9	65	Target	Neutral	True
620.043	0.43	Control	0.6970000000000001	n/a	No	2.787	n/a	n/a	LatePress	0	n/a	n/a	9	65	Blank	Neutral	True
620.043	0.3	Control	0.6970000000000001	0.004	No	2.787	-0.004	2.0	LatePress	0	0.284	n/a	9	65	ButtonPress	Neutral	True
620.461	1.45	Control	0.6970000000000001	n/a	No	2.787	n/a	5.0	LatePress	0	0.048	619.509	9	65	Feedback	Neutral	True
621.915	2.787	Control	0.6970000000000001	n/a	No	2.787	n/a	n/a	LatePress	0	0.0	n/a	9	65	ISIslide	Neutral	True
624.723	0.25	Win2	0.7015	0.001	Yes	2.777	0.023	n/a	GoodResponse	1	n/a	n/a	10	66	Cue	Win	True
624.974	3.9	Win2	0.7015	0.0	Yes	2.777	0.001	n/a	GoodResponse	1	n/a	n/a	10	66	Fixation	Win	True
628.869	0.26	Win2	0.7015	0.004	Yes	2.777	-0.004	2.0	GoodResponse	1	0.235	628.104	10	66	Target	Win	True
629.104	0.3	Win2	0.7015	0.004	Yes	2.777	-0.004	2.0	GoodResponse	1	0.235	n/a	10	66	ButtonPress	Win	True
629.137	0.44	Win2	0.7015	n/a	Yes	2.777	n/a	n/a	GoodResponse	1	n/a	n/a	10	66	Blank	Win	True
629.571	1.45	Win2	0.7015	n/a	Yes	2.777	n/a	5.0	GoodResponse	1	0.011	628.582	10	66	Feedback	Win	True
631.026	2.777	Win2	0.7015	n/a	Yes	2.777	n/a	n/a	GoodResponse	1	0.0	n/a	10	66	ISIslide	Win	True
633.817	0.25	Control	0.6912	0.0	No	2.733	0.017	n/a	LatePress	0	n/a	n/a	10	67	Cue	Neutral	True
634.068	3.95	Control	0.6912	0.0	No	2.733	0.001	n/a	LatePress	0	n/a	n/a	10	67	Fixation	Neutral	True
638.013	0.25	Control	0.6912	0.004	No	2.733	-0.004	2.0	LatePress	0	0.253	637.266	10	67	Target	Neutral	True
638.264	0.45	Control	0.6912	n/a	No	2.733	n/a	n/a	LatePress	0	n/a	n/a	10	67	Blank	Neutral	True
638.266	0.3	Control	0.6912	0.004	No	2.733	-0.004	2.0	LatePress	0	0.253	n/a	10	67	ButtonPress	Neutral	True
638.715	1.45	Control	0.6912	n/a	No	2.733	n/a	5.0	LatePress	0	0.038	637.753	10	67	Feedback	Neutral	True
640.17	2.733	Control	0.6912	n/a	No	2.733	n/a	n/a	LatePress	0	0.0	n/a	10	67	ISIslide	Neutral	True
642.928	0.25	Win2	0.6957	0.0	Yes	3.072	0.028	n/a	GoodResponse	1	n/a	n/a	11	68	Cue	Win	True
643.179	4.0	Win2	0.6957	0.0	Yes	3.072	0.001	n/a	GoodResponse	1	n/a	n/a	11	68	Fixation	Win	True
647.174	0.24	Win2	0.6957	0.004	Yes	3.072	-0.004	2.0	GoodResponse	1	0.217	646.391	11	68	Target	Win	True
647.391	0.3	Win2	0.6957	0.004	Yes	3.072	-0.004	2.0	GoodResponse	1	0.217	n/a	11	68	ButtonPress	Win	True
647.425	0.46	Win2	0.6957	n/a	Yes	3.072	n/a	n/a	GoodResponse	1	n/a	n/a	11	68	Blank	Win	True
647.876	1.45	Win2	0.6957	n/a	Yes	3.072	n/a	5.0	GoodResponse	1	0.046	646.922	11	68	Feedback	Win	True
649.331	3.072	Win2	0.6957	n/a	Yes	3.072	n/a	n/a	GoodResponse	1	0.0	n/a	11	68	ISIslide	Win	True
652.423	0.25	Win2	0.6857	0.0	No	3.227	0.023	n/a	NoResponse	0	n/a	n/a	11	69	Cue	MissedWin	True
652.674	3.95	Win2	0.6857	0.0	No	3.227	0.001	n/a	NoResponse	0	n/a	n/a	11	69	Fixation	MissedWin	True
656.619	0.23	Win2	0.6857	0.004	No	3.227	-0.004	2.0	NoResponse	0	0.284	655.903	11	69	Target	MissedWin	True
656.853	0.47	Win2	0.6857	n/a	No	3.227	n/a	n/a	NoResponse	0	n/a	n/a	11	69	Blank	MissedWin	True
656.903	0.3	Win2	0.6857	0.004	No	3.227	-0.004	2.0	NoResponse	0	0.284	n/a	11	69	ButtonPress	MissedWin	True
657.321	1.45	Win2	0.6857	n/a	No	3.227	n/a	5.0	NoResponse	0	0.016	656.337	11	69	Feedback	MissedWin	True
658.775	3.227	Win2	0.6857	n/a	No	3.227	n/a	n/a	NoResponse	0	0.0	n/a	11	69	ISIslide	MissedWin	True
662.019	0.25	Lose2	0.6761	0.0	No	3.031	0.019	n/a	NoResponse	-1	n/a	n/a	10	70	Cue	Loss	True
662.269	4.05	Lose2	0.6761	0.0	No	3.031	0.0	n/a	NoResponse	-1	n/a	n/a	10	70	Fixation	Loss	True
666.315	0.22	Lose2	0.6761	0.004	No	3.031	-0.004	2.0	NoResponse	-1	0.253	665.568	10	70	Target	Loss	True
666.549	0.48	Lose2	0.6761	n/a	No	3.031	n/a	n/a	NoResponse	-1	n/a	n/a	10	70	Blank	Loss	True
666.568	0.3	Lose2	0.6761	0.004	No	3.031	-0.004	2.0	NoResponse	-1	0.253	n/a	10	70	ButtonPress	Loss	True
667.017	1.45	Lose2	0.6761	n/a	No	3.031	n/a	5.0	NoResponse	-1	0.028	666.045	10	70	Feedback	Loss	True
668.471	3.031	Lose2	0.6761	n/a	No	3.031	n/a	n/a	NoResponse	-1	0.0	n/a	10	70	ISIslide	Loss	True
671.514	0.25	Win2	0.6667000000000001	0.0	No	2.736	0.014	n/a	NoResponse	0	n/a	n/a	10	71	Cue	MissedWin	True
671.764	4.05	Win2	0.6667000000000001	0.0	No	2.736	0.0	n/a	NoResponse	0	n/a	n/a	10	71	Fixation	MissedWin	True
675.81	0.21	Win2	0.6667000000000001	0.004	No	2.736	-0.004	2.0	NoResponse	0	0.236	675.046	10	71	Target	MissedWin	True
676.027	0.49	Win2	0.6667000000000001	n/a	No	2.736	n/a	n/a	NoResponse	0	n/a	n/a	10	71	Blank	MissedWin	True
676.046	0.3	Win2	0.6667000000000001	0.004	No	2.736	-0.004	2.0	NoResponse	0	0.236	n/a	10	71	ButtonPress	MissedWin	True
676.512	1.45	Win2	0.6667000000000001	n/a	No	2.736	n/a	5.0	NoResponse	0	0.045	675.557	10	71	Feedback	MissedWin	True
677.966	2.736	Win2	0.6667000000000001	n/a	No	2.736	n/a	n/a	NoResponse	0	0.0	n/a	10	71	ISIslide	MissedWin	True
680.725	0.25	Win2	0.6575	0.0	No	2.775	0.025	n/a	NoResponse	0	n/a	n/a	10	72	Cue	MissedWin	True
680.975	4.1	Win2	0.6575	0.0	No	2.775	0.0	n/a	NoResponse	0	n/a	n/a	10	72	Fixation	MissedWin	True
685.071	0.2	Win2	0.6575	0.004	No	2.775	-0.004	2.0	NoResponse	0	0.239	684.31	10	72	Target	MissedWin	True
685.272	0.5	Win2	0.6575	n/a	No	2.775	n/a	n/a	NoResponse	0	n/a	n/a	10	72	Blank	MissedWin	True
685.31	0.3	Win2	0.6575	0.004	No	2.775	-0.004	2.0	NoResponse	0	0.239	n/a	10	72	ButtonPress	MissedWin	True
685.773	1.45	Win2	0.6575	n/a	No	2.775	n/a	5.0	NoResponse	0	0.004	684.777	10	72	Feedback	MissedWin	True
687.227	2.775	Win2	0.6575	n/a	No	2.775	n/a	n/a	NoResponse	0	0.0	n/a	10	72	ISIslide	MissedWin	True
690.019	0.25	Win2	0.6486	0.0	No	2.681	0.019	n/a	NoResponse	0	n/a	n/a	10	73	Cue	MissedWin	True
690.27	4.0	Win2	0.6486	0.0	No	2.681	0.001	n/a	NoResponse	0	n/a	n/a	10	73	Fixation	MissedWin	True
694.265	0.2	Win2	0.6486	0.004	No	2.681	-0.004	2.0	NoResponse	0	0.299	693.564	10	73	Target	MissedWin	True
694.466	0.5	Win2	0.6486	n/a	No	2.681	n/a	n/a	NoResponse	0	n/a	n/a	10	73	Blank	MissedWin	True
694.564	0.3	Win2	0.6486	0.004	No	2.681	-0.004	2.0	NoResponse	0	0.299	n/a	10	73	ButtonPress	MissedWin	True
694.967	1.45	Win2	0.6486	n/a	No	2.681	n/a	5.0	NoResponse	0	0.029	693.996	10	73	Feedback	MissedWin	True
696.422	2.681	Win2	0.6486	n/a	No	2.681	n/a	n/a	NoResponse	0	0.0	n/a	10	73	ISIslide	MissedWin	True
699.13	0.25	Lose2	0.64	0.0	No	2.62	0.03	n/a	NoResponse	-1	n/a	n/a	9	74	Cue	Loss	True
699.381	4.05	Lose2	0.64	0.0	No	2.62	0.001	n/a	NoResponse	-1	n/a	n/a	9	74	Fixation	Loss	True
703.426	0.21	Lose2	0.64	0.004	No	2.62	-0.004	2.0	NoResponse	-1	0.223	702.649	9	74	Target	Loss	True
703.643	0.49	Lose2	0.64	n/a	No	2.62	n/a	n/a	NoResponse	-1	n/a	n/a	9	74	Blank	Loss	True
703.649	0.3	Lose2	0.64	0.004	No	2.62	-0.004	2.0	NoResponse	-1	0.223	n/a	9	74	ButtonPress	Loss	True
704.128	1.45	Lose2	0.64	n/a	No	2.62	n/a	5.0	NoResponse	-1	0.038	703.166	9	74	Feedback	Loss	True
705.582	2.62	Lose2	0.64	n/a	No	2.62	n/a	n/a	NoResponse	-1	0.0	n/a	9	74	ISIslide	Loss	True
708.224	0.25	Lose2	0.6446999999999999	0.0	Yes	2.926	0.024	n/a	GoodResponse	0	n/a	n/a	9	75	Cue	AvoidedLoss	True
708.474	3.95	Lose2	0.6446999999999999	0.0	Yes	2.926	0.0	n/a	GoodResponse	0	n/a	n/a	9	75	Fixation	AvoidedLoss	True
712.42	0.22	Lose2	0.6446999999999999	0.004	Yes	2.926	-0.004	2.0	GoodResponse	0	0.206	711.626	9	75	Target	AvoidedLoss	True
712.626	0.3	Lose2	0.6446999999999999	0.004	Yes	2.926	-0.004	2.0	GoodResponse	0	0.206	n/a	9	75	ButtonPress	AvoidedLoss	True
712.654	0.48	Lose2	0.6446999999999999	n/a	Yes	2.926	n/a	n/a	GoodResponse	0	n/a	n/a	9	75	Blank	AvoidedLoss	True
713.122	1.45	Lose2	0.6446999999999999	n/a	Yes	2.926	n/a	5.0	GoodResponse	0	0.02	712.142	9	75	Feedback	AvoidedLoss	True
714.576	2.926	Lose2	0.6446999999999999	n/a	Yes	2.926	n/a	n/a	GoodResponse	0	0.0	n/a	9	75	ISIslide	AvoidedLoss	True
717.518	0.25	Control	0.6364	0.0	No	3.232	0.018	n/a	NoResponse	0	n/a	n/a	9	76	Cue	Neutral	True
717.769	4.05	Control	0.6364	0.0	No	3.232	0.001	n/a	NoResponse	0	n/a	n/a	9	76	Fixation	Neutral	True
721.814	0.23	Control	0.6364	0.004	No	3.232	-0.004	2.0	NoResponse	0	0.404	721.218	9	76	Target	Neutral	True
722.048	0.47	Control	0.6364	n/a	No	3.232	n/a	n/a	NoResponse	0	n/a	n/a	9	76	Blank	Neutral	True
722.218	0.3	Control	0.6364	0.004	No	3.232	-0.004	2.0	NoResponse	0	0.404	n/a	9	76	ButtonPress	Neutral	True
722.516	1.45	Control	0.6364	n/a	No	3.232	n/a	5.0	NoResponse	0	0.04	721.556	9	76	Feedback	Neutral	True
723.971	3.232	Control	0.6364	n/a	No	3.232	n/a	n/a	NoResponse	0	0.0	n/a	9	76	ISIslide	Neutral	True
727.214	0.25	Lose2	0.6282	0.0	No	2.586	0.014	n/a	NoResponse	-1	n/a	n/a	8	77	Cue	Loss	False
727.465	3.95	Lose2	0.6282	0.0	No	2.586	0.001	2.0	NoResponse	-1	1.988	728.453	8	77	Fixation	Loss	False
729.453	0.3	Lose2	0.6282	0.0	No	2.586	0.001	2.0	NoResponse	-1	1.988	n/a	8	77	ButtonPress	Loss	False
731.41	0.24	Lose2	0.6282	0.004	No	2.586	-0.004	2.0	NoResponse	-1	0.337	730.747	8	77	Target	Loss	False
731.661	0.46	Lose2	0.6282	n/a	No	2.586	n/a	n/a	NoResponse	-1	n/a	n/a	8	77	Blank	Loss	False
731.747	0.3	Lose2	0.6282	0.004	No	2.586	-0.004	2.0	NoResponse	-1	0.337	n/a	8	77	ButtonPress	Loss	False
732.112	1.45	Lose2	0.6282	n/a	No	2.586	n/a	5.0	NoResponse	-1	0.005	731.117	8	77	Feedback	Loss	False
733.566	2.586	Lose2	0.6282	n/a	No	2.586	n/a	n/a	NoResponse	-1	0.0	n/a	8	77	ISIslide	Loss	False
