onset	duration	cue_type	current_mean_accuracy	duration_error	is_hit	isi_adjusted	onset_delay	response	response_type	reward	rt	rt_time	total_reward	trial_number	trial_phase	trial_type	one_press
11.096	0.25	Control	1.0	0.0	Yes	2.954	-0.004	n/a	GoodResponse	0	n/a	n/a	0	0	Cue	Neutral	True
11.347	3.85	Control	1.0	0.0	Yes	2.954	0.001	n/a	GoodResponse	0	n/a	n/a	0	0	Fixation	Neutral	True
15.192	0.4	Control	1.0	0.004	Yes	2.954	-0.004	2.0	GoodResponse	0	0.226	14.418	0	0	Target	Neutral	True
15.418	0.3	Control	1.0	0.004	Yes	2.954	-0.004	2.0	GoodResponse	0	0.226	n/a	0	0	ButtonPress	Neutral	True
15.593	0.3	Control	1.0	n/a	Yes	2.954	n/a	n/a	GoodResponse	0	n/a	n/a	0	0	Blank	Neutral	True
15.894	1.45	Control	1.0	n/a	Yes	2.954	n/a	5.0	GoodResponse	0	0.032	14.926	0	0	Feedback	Neutral	True
17.348	2.954	Control	1.0	n/a	Yes	2.954	n/a	n/a	GoodResponse	0	0.0	n/a	0	0	ISIslide	Neutral	True
20.324	0.25	Lose2	1.0	0.0	Yes	2.776	0.024	n/a	GoodResponse	0	n/a	n/a	0	1	Cue	AvoidedLoss	True
20.574	4.0	Lose2	1.0	0.001	Yes	2.776	0.0	n/a	GoodResponse	0	n/a	n/a	0	1	Fixation	AvoidedLoss	True
24.57	0.39	Lose2	1.0	0.004	Yes	2.776	-0.004	2.0	GoodResponse	0	0.182	23.752	0	1	Target	AvoidedLoss	True
24.752	0.3	Lose2	1.0	0.004	Yes	2.776	-0.004	2.0	GoodResponse	0	0.182	n/a	0	1	ButtonPress	AvoidedLoss	True
24.971	0.31	Lose2	1.0	n/a	Yes	2.776	n/a	n/a	GoodResponse	0	n/a	n/a	0	1	Blank	AvoidedLoss	True
25.272	1.45	Lose2	1.0	n/a	Yes	2.776	n/a	5.0	GoodResponse	0	0.019	24.291	0	1	Feedback	AvoidedLoss	True
26.726	2.776	Lose2	1.0	n/a	Yes	2.776	n/a	n/a	GoodResponse	0	0.0	n/a	0	1	ISIslide	AvoidedLoss	True
29.518	0.25	Control	1.0	0.0	Yes	2.582	0.018	n/a	GoodResponse	0	n/a	n/a	0	2	Cue	Neutral	True
29.769	4.1	Control	1.0	0.0	Yes	2.582	0.001	n/a	GoodResponse	0	n/a	n/a	0	2	Fixation	Neutral	True
33.864	0.38	Control	1.0	0.004	Yes	2.582	-0.004	2.0	GoodResponse	0	0.218	33.082	0	2	Target	Neutral	True
34.082	0.3	Control	1.0	0.004	Yes	2.582	-0.004	2.0	GoodResponse	0	0.218	n/a	0	2	ButtonPress	Neutral	True
34.249	0.32	Control	1.0	n/a	Yes	2.582	n/a	n/a	GoodResponse	0	n/a	n/a	0	2	Blank	Neutral	True
34.566	1.45	Control	1.0	n/a	Yes	2.582	n/a	5.0	GoodResponse	0	0.042	33.608	0	2	Feedback	Neutral	True
36.021	2.582	Control	1.0	n/a	Yes	2.582	n/a	n/a	GoodResponse	0	0.0	n/a	0	2	ISIslide	Neutral	True
38.628	0.25	Win2	1.0	0.0	Yes	2.822	0.028	n/a	GoodResponse	1	n/a	n/a	1	3	Cue	Win	True
38.879	3.95	Win2	1.0	0.0	Yes	2.822	0.001	n/a	GoodResponse	1	n/a	n/a	1	3	Fixation	Win	True
42.824	0.37	Win2	1.0	0.004	Yes	2.822	-0.004	2.0	GoodResponse	1	0.177	42.001	1	3	Target	Win	True
43.001	0.3	Win2	1.0	0.004	Yes	2.822	-0.004	2.0	GoodResponse	1	0.177	n/a	1	3	ButtonPress	Win	True
43.209	0.33	Win2	1.0	n/a	Yes	2.822	n/a	n/a	GoodResponse	1	n/a	n/a	1	3	Blank	Win	True
43.526	1.45	Win2	1.0	n/a	Yes	2.822	n/a	5.0	GoodResponse	1	0.009	42.535	1	3	Feedback	Win	True
44.981	2.822	Win2	1.0	n/a	Yes	2.822	n/a	n/a	GoodResponse	1	0.0	n/a	1	3	ISIslide	Win	True
47.822	0.25	Win2	1.0	0.001	Yes	3.278	0.022	n/a	GoodResponse	1	n/a	n/a	2	4	Cue	Win	True
48.073	4.0	Win2	1.0	0.0	Yes	3.278	0.001	n/a	GoodResponse	1	n/a	n/a	2	4	Fixation	Win	True
52.068	0.36	Win2	1.0	0.004	Yes	3.278	-0.004	2.0	GoodResponse	1	0.237	51.305	2	4	Target	Win	True
52.305	0.3	Win2	1.0	0.004	Yes	3.278	-0.004	2.0	GoodResponse	1	0.237	n/a	2	4	ButtonPress	Win	True
52.436	0.34	Win2	1.0	n/a	Yes	3.278	n/a	n/a	GoodResponse	1	n/a	n/a	2	4	Blank	Win	True
52.771	1.45	Win2	1.0	n/a	Yes	3.278	n/a	5.0	GoodResponse	1	0.033	51.804	2	4	Feedback	Win	True
54.225	3.278	Win2	1.0	n/a	Yes	3.278	n/a	n/a	GoodResponse	1	0.0	n/a	2	4	ISIslide	Win	True
57.518	0.25	Win2	1.0	0.0	Yes	2.782	0.018	n/a	GoodResponse	1	n/a	n/a	3	5	Cue	Win	True
57.769	4.0	Win2	1.0	0.0	Yes	2.782	0.001	n/a	GoodResponse	1	n/a	n/a	3	5	Fixation	Win	True
61.764	0.35	Win2	1.0	0.004	Yes	2.782	-0.004	2.0	GoodResponse	1	0.229	60.993	3	5	Target	Win	True
61.993	0.3	Win2	1.0	0.004	Yes	2.782	-0.004	2.0	GoodResponse	1	0.229	n/a	3	5	ButtonPress	Win	True
62.115	0.35	Win2	1.0	n/a	Yes	2.782	n/a	n/a	GoodResponse	1	n/a	n/a	3	5	Blank	Win	True
62.466	1.45	Win2	1.0	n/a	Yes	2.782	n/a	5.0	GoodResponse	1	0.044	61.51	3	5	Feedback	Win	True
63.921	2.782	Win2	1.0	n/a	Yes	2.782	n/a	n/a	GoodResponse	1	0.0	n/a	3	5	ISIslide	Win	True
66.729	0.25	Lose2	1.0	0.0	Yes	2.721	0.029	n/a	GoodResponse	0	n/a	n/a	3	6	Cue	AvoidedLoss	True
66.98	3.95	Lose2	1.0	0.0	Yes	2.721	0.001	n/a	GoodResponse	0	n/a	n/a	3	6	Fixation	AvoidedLoss	True
70.925	0.34	Lose2	1.0	0.004	Yes	2.721	-0.004	2.0	GoodResponse	0	0.189	70.114	3	6	Target	AvoidedLoss	True
71.114	0.3	Lose2	1.0	0.004	Yes	2.721	-0.004	2.0	GoodResponse	0	0.189	n/a	3	6	ButtonPress	AvoidedLoss	True
71.276	0.36	Lose2	1.0	n/a	Yes	2.721	n/a	n/a	GoodResponse	0	n/a	n/a	3	6	Blank	AvoidedLoss	True
71.627	1.45	Lose2	1.0	n/a	Yes	2.721	n/a	5.0	GoodResponse	0	0.008	70.635	3	6	Feedback	AvoidedLoss	True
73.081	2.721	Lose2	1.0	n/a	Yes	2.721	n/a	n/a	GoodResponse	0	0.0	n/a	3	6	ISIslide	AvoidedLoss	True
75.823	0.25	Lose2	1.0	0.0	Yes	4.027	0.023	n/a	GoodResponse	0	n/a	n/a	3	7	Cue	AvoidedLoss	True
76.074	4.05	Lose2	1.0	0.0	Yes	4.027	0.001	n/a	GoodResponse	0	n/a	n/a	3	7	Fixation	AvoidedLoss	True
80.119	0.33	Lose2	1.0	0.004	Yes	4.027	-0.004	2.0	GoodResponse	0	0.222	79.341	3	7	Target	AvoidedLoss	True
80.341	0.3	Lose2	1.0	0.004	Yes	4.027	-0.004	2.0	GoodResponse	0	0.222	n/a	3	7	ButtonPress	AvoidedLoss	True
80.453	0.37	Lose2	1.0	n/a	Yes	4.027	n/a	n/a	GoodResponse	0	n/a	n/a	3	7	Blank	AvoidedLoss	True
80.821	1.45	Lose2	1.0	n/a	Yes	4.027	n/a	5.0	GoodResponse	0	0.031	79.852	3	7	Feedback	AvoidedLoss	True
82.275	4.027	Lose2	1.0	n/a	Yes	4.027	n/a	n/a	GoodResponse	0	0.0	n/a	3	7	ISIslide	AvoidedLoss	True
86.321	0.25	Lose2	1.0	0.0	Yes	3.029	0.021	n/a	GoodResponse	0	n/a	n/a	3	8	Cue	AvoidedLoss	True
86.572	3.95	Lose2	1.0	0.0	Yes	3.029	0.001	n/a	GoodResponse	0	n/a	n/a	3	8	Fixation	AvoidedLoss	True
90.517	0.32	Lose2	1.0	0.004	Yes	3.029	-0.004	2.0	GoodResponse	0	0.221	89.738	3	8	Target	AvoidedLoss	True
90.738	0.3	Lose2	1.0	0.004	Yes	3.029	-0.004	2.0	GoodResponse	0	0.221	n/a	3	8	ButtonPress	AvoidedLoss	True
90.851	0.38	Lose2	1.0	n/a	Yes	3.029	n/a	n/a	GoodResponse	0	n/a	n/a	3	8	Blank	AvoidedLoss	True
91.219	1.45	Lose2	1.0	n/a	Yes	3.029	n/a	5.0	GoodResponse	0	0.023	90.242	3	8	Feedback	AvoidedLoss	True
92.673	3.029	Lose2	1.0	n/a	Yes	3.029	n/a	n/a	GoodResponse	0	0.0	n/a	3	8	ISIslide	AvoidedLoss	True
95.716	0.25	Lose2	1.0	0.0	Yes	3.134	0.016	n/a	GoodResponse	0	n/a	n/a	3	9	Cue	AvoidedLoss	True
95.966	3.95	Lose2	1.0	0.0	Yes	3.134	0.0	n/a	GoodResponse	0	n/a	n/a	3	9	Fixation	AvoidedLoss	True
99.928	0.31	Lose2	1.0	0.0	Yes	3.134	0.012	2.0	GoodResponse	0	0.178	99.106	3	9	Target	AvoidedLoss	True
100.106	0.3	Lose2	1.0	0.0	Yes	3.134	0.012	2.0	GoodResponse	0	0.178	n/a	3	9	ButtonPress	AvoidedLoss	True
100.229	0.39	Lose2	1.0	n/a	Yes	3.134	n/a	n/a	GoodResponse	0	n/a	n/a	3	9	Blank	AvoidedLoss	True
100.613	1.45	Lose2	1.0	n/a	Yes	3.134	n/a	5.0	GoodResponse	0	0.043	99.656	3	9	Feedback	AvoidedLoss	True
102.068	3.134	Lose2	1.0	n/a	Yes	3.134	n/a	n/a	GoodResponse	0	0.0	n/a	3	9	ISIslide	AvoidedLoss	True
105.227	0.25	Control	1.0	0.0	Yes	3.273	0.027	n/a	GoodResponse	0	n/a	n/a	3	10	Cue	Neutral	True
105.478	4.0	Control	1.0	0.0	Yes	3.273	0.001	n/a	GoodResponse	0	n/a	n/a	3	10	Fixation	Neutral	True
109.473	0.3	Control	1.0	0.004	Yes	3.273	-0.004	2.0	GoodResponse	0	0.196	108.669	3	10	Target	Neutral	True
109.669	0.3	Control	1.0	0.004	Yes	3.273	-0.004	2.0	GoodResponse	0	0.196	n/a	3	10	ButtonPress	Neutral	True
109.774	0.4	Control	1.0	n/a	Yes	3.273	n/a	n/a	GoodResponse	0	n/a	n/a	3	10	Blank	Neutral	True
110.175	1.45	Control	1.0	n/a	Yes	3.273	n/a	5.0	GoodResponse	0	0.042	109.217	3	10	Feedback	Neutral	True
111.63	3.273	Control	1.0	n/a	Yes	3.273	n/a	n/a	GoodResponse	0	0.0	n/a	3	10	ISIslide	Neutral	True
114.923	0.25	Lose2	1.0	0.0	Yes	2.727	0.023	n/a	GoodResponse	0	n/a	n/a	3	11	Cue	AvoidedLoss	True
115.174	4.05	Lose2	1.0	0.0	Yes	2.727	0.001	n/a	GoodResponse	0	n/a	n/a	3	11	Fixation	AvoidedLoss	True
119.219	0.29	Lose2	1.0	0.004	Yes	2.727	-0.004	2.0	GoodResponse	0	0.209	118.428	3	11	Target	AvoidedLoss	True
119.428	0.3	Lose2	1.0	0.004	Yes	2.727	-0.004	2.0	GoodResponse	0	0.209	n/a	3	11	ButtonPress	AvoidedLoss	True
119.52	0.41	Lose2	1.0	n/a	Yes	2.727	n/a	n/a	GoodResponse	0	n/a	n/a	3	11	Blank	AvoidedLoss	True
119.921	1.45	Lose2	1.0	n/a	Yes	2.727	n/a	5.0	GoodResponse	0	0.007	118.928	3	11	Feedback	AvoidedLoss	True
121.375	2.727	Lose2	1.0	n/a	Yes	2.727	n/a	n/a	GoodResponse	0	0.0	n/a	3	11	ISIslide	AvoidedLoss	True
124.117	0.25	Control	1.0	0.0	Yes	2.983	0.017	n/a	GoodResponse	0	n/a	n/a	3	12	Cue	Neutral	True
124.368	3.9	Control	1.0	0.0	Yes	2.983	0.001	n/a	GoodResponse	0	n/a	n/a	3	12	Fixation	Neutral	True
128.263	0.28	Control	1.0	0.004	Yes	2.983	-0.004	2.0	GoodResponse	0	0.216	127.479	3	12	Target	Neutral	True
128.479	0.3	Control	1.0	0.004	Yes	2.983	-0.004	2.0	GoodResponse	0	0.216	n/a	3	12	ButtonPress	Neutral	True
128.547	0.42	Control	1.0	n/a	Yes	2.983	n/a	n/a	GoodResponse	0	n/a	n/a	3	12	Blank	Neutral	True
128.965	1.45	Control	1.0	n/a	Yes	2.983	n/a	5.0	GoodResponse	0	0.033	127.998	3	12	Feedback	Neutral	True
130.419	2.983	Control	1.0	n/a	Yes	2.983	n/a	n/a	GoodResponse	0	0.0	n/a	3	12	ISIslide	Neutral	True
133.428	0.25	Control	1.0	0.0	Yes	2.772	0.028	n/a	GoodResponse	0	n/a	n/a	3	13	Cue	Neutral	True
133.679	4.0	Control	1.0	0.0	Yes	2.772	0.001	n/a	GoodResponse	0	n/a	n/a	3	13	Fixation	Neutral	True
137.674	0.27	Control	1.0	0.004	Yes	2.772	-0.004	2.0	GoodResponse	0	0.192	136.866	3	13	Target	Neutral	True
137.866	0.3	Control	1.0	0.004	Yes	2.772	-0.004	2.0	GoodResponse	0	0.192	n/a	3	13	ButtonPress	Neutral	True
137.958	0.43	Control	1.0	n/a	Yes	2.772	n/a	n/a	GoodResponse	0	n/a	n/a	3	13	Blank	Neutral	True
138.376	1.45	Control	1.0	n/a	Yes	2.772	n/a	5.0	GoodResponse	0	0.035	137.411	3	13	Feedback	Neutral	True
139.831	2.772	Control	1.0	n/a	Yes	2.772	n/a	n/a	GoodResponse	0	0.0	n/a	3	13	ISIslide	Neutral	True
142.622	0.25	Win2	1.0	0.0	Yes	2.678	0.022	n/a	GoodResponse	1	n/a	n/a	4	14	Cue	Win	True
142.873	4.1	Win2	1.0	0.0	Yes	2.678	0.001	n/a	GoodResponse	1	n/a	n/a	4	14	Fixation	Win	True
146.969	0.26	Win2	1.0	0.003	Yes	2.678	-0.003	2.0	GoodResponse	1	0.178	146.147	4	14	Target	Win	True
147.147	0.3	Win2	1.0	0.003	Yes	2.678	-0.003	2.0	GoodResponse	1	0.178	n/a	4	14	ButtonPress	Win	True
147.236	0.44	Win2	1.0	n/a	Yes	2.678	n/a	n/a	GoodResponse	1	n/a	n/a	4	14	Blank	Win	True
147.671	1.45	Win2	1.0	n/a	Yes	2.678	n/a	5.0	GoodResponse	1	0.009	146.68	4	14	Feedback	Win	True
149.125	2.678	Win2	1.0	n/a	Yes	2.678	n/a	n/a	GoodResponse	1	0.0	n/a	4	14	ISIslide	Win	True
151.816	0.25	Control	0.9375	0.0	No	2.984	0.016	n/a	NoResponse	0	n/a	n/a	4	15	Cue	Neutral	True
152.067	4.0	Control	0.9375	0.0	No	2.984	0.001	2.0	NoResponse	0	3.84	154.907	4	15	Fixation	Neutral	True
155.907	0.3	Control	0.9375	0.0	No	2.984	0.001	2.0	NoResponse	0	3.84	n/a	4	15	ButtonPress	Neutral	True
156.062	0.25	Control	0.9375	0.004	No	2.984	-0.004	n/a	NoResponse	0	n/a	n/a	4	15	Target	Neutral	True
156.313	0.45	Control	0.9375	n/a	No	2.984	n/a	n/a	NoResponse	0	n/a	n/a	4	15	Blank	Neutral	True
156.764	1.45	Control	0.9375	n/a	No	2.984	n/a	5.0	NoResponse	0	0.038	155.802	4	15	Feedback	Neutral	True
158.219	2.984	Control	0.9375	n/a	No	2.984	n/a	n/a	NoResponse	0	0.0	n/a	4	15	ISIslide	Neutral	True
161.228	0.25	Win2	0.8824	0.0	No	2.872	0.028	n/a	PrematurePress	0	n/a	n/a	4	16	Cue	MissedWin	True
161.479	4.0	Win2	0.8824	0.0	No	2.872	0.001	n/a	PrematurePress	0	n/a	n/a	4	16	Fixation	MissedWin	True
165.474	0.24	Win2	0.8824	0.004	No	2.872	-0.004	2.0	PrematurePress	0	0.052	164.526	4	16	Target	MissedWin	True
165.526	0.3	Win2	0.8824	0.004	No	2.872	-0.004	2.0	PrematurePress	0	0.052	n/a	4	16	ButtonPress	MissedWin	True
165.725	0.46	Win2	0.8824	n/a	No	2.872	n/a	n/a	PrematurePress	0	n/a	n/a	4	16	Blank	MissedWin	True
166.176	1.45	Win2	0.8824	n/a	No	2.872	n/a	5.0	PrematurePress	0	0.04	165.216	4	16	Feedback	MissedWin	True
167.63	2.872	Win2	0.8824	n/a	No	2.872	n/a	n/a	PrematurePress	0	0.0	n/a	4	16	ISIslide	MissedWin	True
170.522	0.25	Lose2	0.8889	0.0	Yes	2.728	0.022	n/a	GoodResponse	0	n/a	n/a	4	17	Cue	AvoidedLoss	True
170.773	3.95	Lose2	0.8889	0.0	Yes	2.728	0.001	n/a	GoodResponse	0	n/a	n/a	4	17	Fixation	AvoidedLoss	True
174.718	0.23	Lose2	0.8889	0.004	Yes	2.728	-0.004	2.0	GoodResponse	0	0.189	173.907	4	17	Target	AvoidedLoss	True
174.907	0.3	Lose2	0.8889	0.004	Yes	2.728	-0.004	2.0	GoodResponse	0	0.189	n/a	4	17	ButtonPress	AvoidedLoss	True
174.952	0.47	Lose2	0.8889	n/a	Yes	2.728	n/a	n/a	GoodResponse	0	n/a	n/a	4	17	Blank	AvoidedLoss	True
175.42	1.45	Lose2	0.8889	n/a	Yes	2.728	n/a	5.0	GoodResponse	0	0.015	174.435	4	17	Feedback	AvoidedLoss	True
176.875	2.728	Lose2	0.8889	n/a	Yes	2.728	n/a	n/a	GoodResponse	0	0.0	n/a	4	17	ISIslide	AvoidedLoss	True
179.616	0.25	Lose2	0.8946999999999999	0.0	Yes	2.734	0.016	n/a	GoodResponse	0	n/a	n/a	4	18	Cue	AvoidedLoss	True
179.867	4.05	Lose2	0.8946999999999999	0.0	Yes	2.734	0.001	n/a	GoodResponse	0	n/a	n/a	4	18	Fixation	AvoidedLoss	True
183.912	0.22	Lose2	0.8946999999999999	0.004	Yes	2.734	-0.004	2.0	GoodResponse	0	0.188	183.1	4	18	Target	AvoidedLoss	True
184.1	0.3	Lose2	0.8946999999999999	0.004	Yes	2.734	-0.004	2.0	GoodResponse	0	0.188	n/a	4	18	ButtonPress	AvoidedLoss	True
184.146	0.48	Lose2	0.8946999999999999	n/a	Yes	2.734	n/a	n/a	GoodResponse	0	n/a	n/a	4	18	Blank	AvoidedLoss	True
184.614	1.45	Lose2	0.8946999999999999	n/a	Yes	2.734	n/a	5.0	GoodResponse	0	0.041	183.655	4	18	Feedback	AvoidedLoss	True
186.069	2.734	Lose2	0.8946999999999999	n/a	Yes	2.734	n/a	n/a	GoodResponse	0	0.0	n/a	4	18	ISIslide	AvoidedLoss	True
188.827	0.25	Control	0.85	0.0	No	2.923	0.027	n/a	LatePress	0	n/a	n/a	4	19	Cue	Neutral	True
189.078	3.95	Control	0.85	0.0	No	2.923	0.001	n/a	LatePress	0	n/a	n/a	4	19	Fixation	Neutral	True
193.023	0.21	Control	0.85	0.004	No	2.923	-0.004	2.0	LatePress	0	0.21	192.233	4	19	Target	Neutral	True
193.233	0.3	Control	0.85	0.004	No	2.923	-0.004	2.0	LatePress	0	0.21	n/a	4	19	ButtonPress	Neutral	True
193.24	0.49	Control	0.85	n/a	No	2.923	n/a	n/a	LatePress	0	n/a	n/a	4	19	Blank	Neutral	True
193.725	1.45	Control	0.85	n/a	No	2.923	n/a	5.0	LatePress	0	0.007	192.732	4	19	Feedback	Neutral	True
195.179	2.923	Control	0.85	n/a	No	2.923	n/a	n/a	LatePress	0	0.0	n/a	4	19	ISIslide	Neutral	True
198.121	0.25	Control	0.8571	0.0	Yes	2.629	0.021	n/a	GoodResponse	0	n/a	n/a	4	20	Cue	Neutral	True
198.372	4.05	Control	0.8571	0.0	Yes	2.629	0.001	n/a	GoodResponse	0	n/a	n/a	4	20	Fixation	Neutral	True
202.418	0.2	Control	0.8571	0.003	Yes	2.629	-0.003	2.0	GoodResponse	0	0.19	201.608	4	20	Target	Neutral	True
202.608	0.3	Control	0.8571	0.003	Yes	2.629	-0.003	2.0	GoodResponse	0	0.19	n/a	4	20	ButtonPress	Neutral	True
202.618	0.5	Control	0.8571	n/a	Yes	2.629	n/a	n/a	GoodResponse	0	n/a	n/a	4	20	Blank	Neutral	True
203.12	1.45	Control	0.8571	n/a	Yes	2.629	n/a	5.0	GoodResponse	0	0.023	202.143	4	20	Feedback	Neutral	True
204.574	2.629	Control	0.8571	n/a	Yes	2.629	n/a	n/a	GoodResponse	0	0.0	n/a	4	20	ISIslide	Neutral	True
207.215	0.25	Control	0.8181999999999999	0.0	No	2.785	0.015	n/a	NoResponse	0	n/a	n/a	4	21	Cue	Neutral	True
207.466	4.1	Control	0.8181999999999999	0.0	No	2.785	0.001	n/a	NoResponse	0	n/a	n/a	4	21	Fixation	Neutral	True
211.561	0.19	Control	0.8181999999999999	0.004	No	2.785	-0.004	2.0	NoResponse	0	0.213	210.774	4	21	Target	Neutral	True
211.762	0.51	Control	0.8181999999999999	n/a	No	2.785	n/a	n/a	NoResponse	0	n/a	n/a	4	21	Blank	Neutral	True
211.774	0.3	Control	0.8181999999999999	0.004	No	2.785	-0.004	2.0	NoResponse	0	0.213	n/a	4	21	ButtonPress	Neutral	True
212.264	1.45	Control	0.8181999999999999	n/a	No	2.785	n/a	5.0	NoResponse	0	0.0	211.264	4	21	Feedback	Neutral	True
213.718	2.785	Control	0.8181999999999999	n/a	No	2.785	n/a	n/a	NoResponse	0	0.0	n/a	4	21	ISIslide	Neutral	True
216.526	0.25	Control	0.7826000000000001	0.0	No	2.774	0.026	n/a	NoResponse	0	n/a	n/a	4	22	Cue	Neutral	True
216.777	4.0	Control	0.7826000000000001	0.0	No	2.774	0.001	n/a	NoResponse	0	n/a	n/a	4	22	Fixation	Neutral	True
220.772	0.18	Control	0.7826000000000001	0.004	No	2.774	-0.004	2.0	NoResponse	0	0.193	219.965	4	22	Target	Neutral	True
220.956	0.52	Control	0.7826000000000001	n/a	No	2.774	n/a	n/a	NoResponse	0	n/a	n/a	4	22	Blank	Neutral	True
220.965	0.3	Control	0.7826000000000001	0.004	No	2.774	-0.004	2.0	NoResponse	0	0.193	n/a	4	22	ButtonPress	Neutral	True
221.474	1.45	Control	0.7826000000000001	n/a	No	2.774	n/a	5.0	NoResponse	0	0.009	220.483	4	22	Feedback	Neutral	True
222.929	2.774	Control	0.7826000000000001	n/a	No	2.774	n/a	n/a	NoResponse	0	0.0	n/a	4	22	ISIslide	Neutral	True
225.72	0.25	Control	0.75	0.001	No	2.78	0.02	n/a	NoResponse	0	n/a	n/a	4	23	Cue	Neutral	True
225.971	3.9	Control	0.75	0.0	No	2.78	0.001	n/a	NoResponse	0	n/a	n/a	4	23	Fixation	Neutral	True
229.866	0.17	Control	0.75	0.004	No	2.78	-0.004	2.0	NoResponse	0	0.199	229.065	4	23	Target	Neutral	True
230.05	0.53	Control	0.75	n/a	No	2.78	n/a	n/a	NoResponse	0	n/a	n/a	4	23	Blank	Neutral	True
230.065	0.3	Control	0.75	0.004	No	2.78	-0.004	2.0	NoResponse	0	0.199	n/a	4	23	ButtonPress	Neutral	True
230.568	1.45	Control	0.75	n/a	No	2.78	n/a	5.0	NoResponse	0	0.037	229.605	4	23	Feedback	Neutral	True
232.023	2.78	Control	0.75	n/a	No	2.78	n/a	n/a	NoResponse	0	0.0	n/a	4	23	ISIslide	Neutral	True
234.831	0.25	Win2	0.76	0.0	Yes	3.119	0.031	n/a	GoodResponse	1	n/a	n/a	5	24	Cue	Win	True
235.082	3.95	Win2	0.76	0.0	Yes	3.119	0.001	n/a	GoodResponse	1	n/a	n/a	5	24	Fixation	Win	True
239.027	0.16	Win2	0.76	0.004	Yes	3.119	-0.004	2.0	GoodResponse	1	0.159	238.186	5	24	Target	Win	True
239.186	0.3	Win2	0.76	0.004	Yes	3.119	-0.004	2.0	GoodResponse	1	0.159	n/a	5	24	ButtonPress	Win	True
239.194	0.54	Win2	0.76	n/a	Yes	3.119	n/a	n/a	GoodResponse	1	n/a	n/a	5	24	Blank	Win	True
239.729	1.45	Win2	0.76	n/a	Yes	3.119	n/a	5.0	GoodResponse	1	0.047	238.776	5	24	Feedback	Win	True
241.183	3.119	Win2	0.76	n/a	Yes	3.119	n/a	n/a	GoodResponse	1	0.0	n/a	5	24	ISIslide	Win	True
244.326	0.25	Win2	0.7308	0.0	No	3.074	0.026	n/a	NoResponse	0	n/a	n/a	5	25	Cue	MissedWin	True
244.577	4.0	Win2	0.7308	0.0	No	3.074	0.001	n/a	NoResponse	0	n/a	n/a	5	25	Fixation	MissedWin	True
248.572	0.15	Win2	0.7308	0.004	No	3.074	-0.004	2.0	NoResponse	0	0.225	247.797	5	25	Target	MissedWin	True
248.722	0.55	Win2	0.7308	n/a	No	3.074	n/a	n/a	NoResponse	0	n/a	n/a	5	25	Blank	MissedWin	True
248.797	0.3	Win2	0.7308	0.004	No	3.074	-0.004	2.0	NoResponse	0	0.225	n/a	5	25	ButtonPress	MissedWin	True
249.274	1.45	Win2	0.7308	n/a	No	3.074	n/a	5.0	NoResponse	0	0.014	248.288	5	25	Feedback	MissedWin	True
250.728	3.074	Win2	0.7308	n/a	No	3.074	n/a	n/a	NoResponse	0	0.0	n/a	5	25	ISIslide	MissedWin	True
253.821	0.25	Win2	0.7037	0.0	No	2.929	0.021	n/a	NoResponse	0	n/a	n/a	5	26	Cue	MissedWin	True
254.072	3.95	Win2	0.7037	0.0	No	2.929	0.001	n/a	NoResponse	0	n/a	n/a	5	26	Fixation	MissedWin	True
258.017	0.15	Win2	0.7037	0.004	No	2.929	-0.004	2.0	NoResponse	0	0.219	257.236	5	26	Target	MissedWin	True
258.167	0.55	Win2	0.7037	n/a	No	2.929	n/a	n/a	NoResponse	0	n/a	n/a	5	26	Blank	MissedWin	True
258.236	0.3	Win2	0.7037	0.004	No	2.929	-0.004	2.0	NoResponse	0	0.219	n/a	5	26	ButtonPress	MissedWin	True
258.719	1.45	Win2	0.7037	n/a	No	2.929	n/a	5.0	NoResponse	0	0.032	257.751	5	26	Feedback	MissedWin	True
260.173	2.929	Win2	0.7037	n/a	No	2.929	n/a	n/a	NoResponse	0	0.0	n/a	5	26	ISIslide	MissedWin	True
263.115	0.25	Lose2	0.6786	0.001	No	2.835	0.015	n/a	NoResponse	-1	n/a	n/a	4	27	Cue	Loss	True
263.366	4.05	Lose2	0.6786	0.0	No	2.835	0.001	n/a	NoResponse	-1	n/a	n/a	4	27	Fixation	Loss	True
267.412	0.15	Lose2	0.6786	0.003	No	2.835	-0.003	2.0	NoResponse	-1	0.176	266.588	4	27	Target	Loss	True
267.562	0.55	Lose2	0.6786	n/a	No	2.835	n/a	n/a	NoResponse	-1	n/a	n/a	4	27	Blank	Loss	True
267.588	0.3	Lose2	0.6786	0.003	No	2.835	-0.003	2.0	NoResponse	-1	0.176	n/a	4	27	ButtonPress	Loss	True
268.114	1.45	Lose2	0.6786	n/a	No	2.835	n/a	5.0	NoResponse	-1	0.006	267.12	4	27	Feedback	Loss	True
269.568	2.835	Lose2	0.6786	n/a	No	2.835	n/a	n/a	NoResponse	-1	0.0	n/a	4	27	ISIslide	Loss	True
272.427	0.25	Control	0.6552	0.0	No	2.823	0.027	n/a	NoResponse	0	n/a	n/a	4	28	Cue	Neutral	False
272.677	4.05	Control	0.6552	0.0	No	2.823	0.0	2.0	NoResponse	0	3.277	274.954	4	28	Fixation	Neutral	False
275.954	0.3	Control	0.6552	0.0	No	2.823	0.0	2.0	NoResponse	0	3.277	n/a	4	28	ButtonPress	Neutral	False
276.723	0.15	Control	0.6552	0.004	No	2.823	-0.004	2.0	NoResponse	0	0.279	276.002	4	28	Target	Neutral	False
276.873	0.55	Control	0.6552	n/a	No	2.823	n/a	n/a	NoResponse	0	n/a	n/a	4	28	Blank	Neutral	False
277.002	0.3	Control	0.6552	0.004	No	2.823	-0.004	2.0	NoResponse	0	0.279	n/a	4	28	ButtonPress	Neutral	False
277.425	1.45	Control	0.6552	n/a	No	2.823	n/a	5.0	NoResponse	0	0.009	276.434	4	28	Feedback	Neutral	False
278.879	2.823	Control	0.6552	n/a	No	2.823	n/a	n/a	NoResponse	0	0.0	n/a	4	28	ISIslide	Neutral	False
281.721	0.25	Lose2	0.6333	0.0	No	2.829	0.021	n/a	NoResponse	-1	n/a	n/a	3	29	Cue	Loss	True
281.972	3.95	Lose2	0.6333	0.0	No	2.829	0.001	n/a	NoResponse	-1	n/a	n/a	3	29	Fixation	Loss	True
285.917	0.15	Lose2	0.6333	0.004	No	2.829	-0.004	2.0	NoResponse	-1	0.187	285.104	3	29	Target	Loss	True
286.067	0.55	Lose2	0.6333	n/a	No	2.829	n/a	n/a	NoResponse	-1	n/a	n/a	3	29	Blank	Loss	True
286.104	0.3	Lose2	0.6333	0.004	No	2.829	-0.004	2.0	NoResponse	-1	0.187	n/a	3	29	ButtonPress	Loss	True
286.619	1.45	Lose2	0.6333	n/a	No	2.829	n/a	5.0	NoResponse	-1	0.034	285.653	3	29	Feedback	Loss	True
288.073	2.829	Lose2	0.6333	n/a	No	2.829	n/a	n/a	NoResponse	-1	0.0	n/a	3	29	ISIslide	Loss	True
290.915	0.25	Win2	0.6129	0.0	No	2.785	0.015	n/a	NoResponse	0	n/a	n/a	3	30	Cue	MissedWin	True
291.166	3.9	Win2	0.6129	0.0	No	2.785	0.001	n/a	NoResponse	0	n/a	n/a	3	30	Fixation	MissedWin	True
295.061	0.16	Win2	0.6129	0.004	No	2.785	-0.004	2.0	NoResponse	0	0.226	294.287	3	30	Target	MissedWin	True
295.228	0.54	Win2	0.6129	n/a	No	2.785	n/a	n/a	NoResponse	0	n/a	n/a	3	30	Blank	MissedWin	True
295.287	0.3	Win2	0.6129	0.004	No	2.785	-0.004	2.0	NoResponse	0	0.226	n/a	3	30	ButtonPress	MissedWin	True
295.763	1.45	Win2	0.6129	n/a	No	2.785	n/a	5.0	NoResponse	0	0.012	294.775	3	30	Feedback	MissedWin	True
297.217	2.785	Win2	0.6129	n/a	No	2.785	n/a	n/a	NoResponse	0	0.0	n/a	3	30	ISIslide	MissedWin	True
300.026	0.25	Lose2	0.5938	0.0	No	2.824	0.026	n/a	NoResponse	-1	n/a	n/a	2	31	Cue	Loss	True
300.276	4.05	Lose2	0.5938	0.0	No	2.824	0.0	n/a	NoResponse	-1	n/a	n/a	2	31	Fixation	Loss	True
304.322	0.17	Lose2	0.5938	0.004	No	2.824	-0.004	2.0	NoResponse	-1	0.201	303.523	2	31	Target	Loss	True
304.506	0.53	Lose2	0.5938	n/a	No	2.824	n/a	n/a	NoResponse	-1	n/a	n/a	2	31	Blank	Loss	True
304.523	0.3	Lose2	0.5938	0.004	No	2.824	-0.004	2.0	NoResponse	-1	0.201	n/a	2	31	ButtonPress	Loss	True
305.024	1.45	Lose2	0.5938	n/a	No	2.824	n/a	5.0	NoResponse	-1	0.019	304.043	2	31	Feedback	Loss	True
306.478	2.824	Lose2	0.5938	n/a	No	2.824	n/a	n/a	NoResponse	-1	0.0	n/a	2	31	ISIslide	Loss	True
309.32	0.25	Lose2	0.5758	0.0	No	2.63	0.02	n/a	NoResponse	-1	n/a	n/a	1	32	Cue	Loss	True
309.571	4.15	Lose2	0.5758	0.0	No	2.63	0.001	n/a	NoResponse	-1	n/a	n/a	1	32	Fixation	Loss	True
313.717	0.18	Lose2	0.5758	0.003	No	2.63	-0.003	2.0	NoResponse	-1	0.206	312.923	1	32	Target	Loss	True
313.9	0.52	Lose2	0.5758	n/a	No	2.63	n/a	n/a	NoResponse	-1	n/a	n/a	1	32	Blank	Loss	True
313.923	0.3	Lose2	0.5758	0.003	No	2.63	-0.003	2.0	NoResponse	-1	0.206	n/a	1	32	ButtonPress	Loss	True
314.419	1.45	Lose2	0.5758	n/a	No	2.63	n/a	5.0	NoResponse	-1	0.039	313.458	1	32	Feedback	Loss	True
315.873	2.63	Lose2	0.5758	n/a	No	2.63	n/a	n/a	NoResponse	-1	0.0	n/a	1	32	ISIslide	Loss	True
318.531	0.25	Win2	0.5588000000000001	0.0	No	2.669	0.031	n/a	LatePress	0	n/a	n/a	1	33	Cue	MissedWin	True
318.782	4.0	Win2	0.5588000000000001	0.0	No	2.669	0.001	n/a	LatePress	0	n/a	n/a	1	33	Fixation	MissedWin	True
322.777	0.19	Win2	0.5588000000000001	0.004	No	2.669	-0.004	2.0	LatePress	0	0.193	321.97	1	33	Target	MissedWin	True
322.97	0.3	Win2	0.5588000000000001	0.004	No	2.669	-0.004	2.0	LatePress	0	0.193	n/a	1	33	ButtonPress	MissedWin	True
322.978	0.51	Win2	0.5588000000000001	n/a	No	2.669	n/a	n/a	LatePress	0	n/a	n/a	1	33	Blank	MissedWin	True
323.479	1.45	Win2	0.5588000000000001	n/a	No	2.669	n/a	5.0	LatePress	0	0.007	322.486	1	33	Feedback	MissedWin	True
324.933	2.669	Win2	0.5588000000000001	n/a	No	2.669	n/a	n/a	LatePress	0	0.0	n/a	1	33	ISIslide	MissedWin	True
327.625	0.25	Lose2	0.5714	0.0	Yes	2.625	0.025	n/a	GoodResponse	0	n/a	n/a	1	34	Cue	AvoidedLoss	True
327.876	4.05	Lose2	0.5714	0.0	Yes	2.625	0.001	n/a	GoodResponse	0	n/a	n/a	1	34	Fixation	AvoidedLoss	True
331.921	0.2	Lose2	0.5714	0.004	Yes	2.625	-0.004	2.0	GoodResponse	0	0.198	331.119	1	34	Target	AvoidedLoss	True
332.119	0.3	Lose2	0.5714	0.004	Yes	2.625	-0.004	2.0	GoodResponse	0	0.198	n/a	1	34	ButtonPress	AvoidedLoss	True
332.122	0.5	Lose2	0.5714	n/a	Yes	2.625	n/a	n/a	GoodResponse	0	n/a	n/a	1	34	Blank	AvoidedLoss	True
332.623	1.45	Lose2	0.5714	n/a	Yes	2.625	n/a	5.0	GoodResponse	0	0.029	331.652	1	34	Feedback	AvoidedLoss	True
334.077	2.625	Lose2	0.5714	n/a	Yes	2.625	n/a	n/a	GoodResponse	0	0.0	n/a	1	34	ISIslide	AvoidedLoss	True
336.719	0.25	Lose2	0.5832999999999999	0.0	Yes	2.681	0.019	n/a	GoodResponse	0	n/a	n/a	1	35	Cue	AvoidedLoss	True
336.969	4.0	Lose2	0.5832999999999999	0.0	Yes	2.681	0.0	n/a	GoodResponse	0	n/a	n/a	1	35	Fixation	AvoidedLoss	True
340.965	0.21	Lose2	0.5832999999999999	0.004	Yes	2.681	-0.004	2.0	GoodResponse	0	0.2	340.165	1	35	Target	AvoidedLoss	True
341.165	0.3	Lose2	0.5832999999999999	0.004	Yes	2.681	-0.004	2.0	GoodResponse	0	0.2	n/a	1	35	ButtonPress	AvoidedLoss	True
341.182	0.49	Lose2	0.5832999999999999	n/a	Yes	2.681	n/a	n/a	GoodResponse	0	n/a	n/a	1	35	Blank	AvoidedLoss	True
341.667	1.45	Lose2	0.5832999999999999	n/a	Yes	2.681	n/a	5.0	GoodResponse	0	0.01	340.677	1	35	Feedback	AvoidedLoss	True
343.121	2.681	Lose2	0.5832999999999999	n/a	Yes	2.681	n/a	n/a	GoodResponse	0	0.0	n/a	1	35	ISIslide	AvoidedLoss	True
345.829	0.25	Control	0.5676	0.0	No	2.671	0.029	n/a	NoResponse	0	n/a	n/a	1	36	Cue	Neutral	True
346.08	4.0	Control	0.5676	0.0	No	2.671	0.001	n/a	NoResponse	0	n/a	n/a	1	36	Fixation	Neutral	True
350.075	0.22	Control	0.5676	0.004	No	2.671	-0.004	2.0	NoResponse	0	0.389	349.464	1	36	Target	Neutral	True
350.309	0.48	Control	0.5676	n/a	No	2.671	n/a	n/a	NoResponse	0	n/a	n/a	1	36	Blank	Neutral	True
350.464	0.3	Control	0.5676	0.004	No	2.671	-0.004	2.0	NoResponse	0	0.389	n/a	1	36	ButtonPress	Neutral	True
350.777	1.45	Control	0.5676	n/a	No	2.671	n/a	5.0	NoResponse	0	0.022	349.799	1	36	Feedback	Neutral	True
352.232	2.671	Control	0.5676	n/a	No	2.671	n/a	n/a	NoResponse	0	0.0	n/a	1	36	ISIslide	Neutral	True
354.923	0.25	Win2	0.5789	0.0	Yes	2.877	0.023	n/a	GoodResponse	1	n/a	n/a	2	37	Cue	Win	True
355.174	4.0	Win2	0.5789	0.0	Yes	2.877	0.001	n/a	GoodResponse	1	n/a	n/a	2	37	Fixation	Win	True
359.169	0.23	Win2	0.5789	0.004	Yes	2.877	-0.004	2.0	GoodResponse	1	0.187	358.356	2	37	Target	Win	True
359.356	0.3	Win2	0.5789	0.004	Yes	2.877	-0.004	2.0	GoodResponse	1	0.187	n/a	2	37	ButtonPress	Win	True
359.403	0.47	Win2	0.5789	n/a	Yes	2.877	n/a	n/a	GoodResponse	1	n/a	n/a	2	37	Blank	Win	True
359.871	1.45	Win2	0.5789	n/a	Yes	2.877	n/a	5.0	GoodResponse	1	0.0	358.871	2	37	Feedback	Win	True
361.325	2.877	Win2	0.5789	n/a	Yes	2.877	n/a	n/a	GoodResponse	1	0.0	n/a	2	37	ISIslide	Win	True
364.217	0.25	Lose2	0.5897	0.001	Yes	2.833	0.017	n/a	GoodResponse	0	n/a	n/a	2	38	Cue	AvoidedLoss	True
364.468	3.95	Lose2	0.5897	0.0	Yes	2.833	0.001	n/a	GoodResponse	0	n/a	n/a	2	38	Fixation	AvoidedLoss	True
368.413	0.24	Lose2	0.5897	0.004	Yes	2.833	-0.004	2.0	GoodResponse	0	0.205	367.618	2	38	Target	AvoidedLoss	True
368.618	0.3	Lose2	0.5897	0.004	Yes	2.833	-0.004	2.0	GoodResponse	0	0.205	n/a	2	38	ButtonPress	AvoidedLoss	True
368.664	0.46	Lose2	0.5897	n/a	Yes	2.833	n/a	n/a	GoodResponse	0	n/a	n/a	2	38	Blank	AvoidedLoss	True
369.115	1.45	Lose2	0.5897	n/a	Yes	2.833	n/a	5.0	GoodResponse	0	0.025	368.14	2	38	Feedback	AvoidedLoss	True
370.57	2.833	Lose2	0.5897	n/a	Yes	2.833	n/a	n/a	GoodResponse	0	0.0	n/a	2	38	ISIslide	AvoidedLoss	True
373.428	0.25	Win2	0.6	0.0	Yes	2.972	0.028	n/a	GoodResponse	1	n/a	n/a	3	39	Cue	Win	True
373.679	4.1	Win2	0.6	0.0	Yes	2.972	0.001	n/a	GoodResponse	1	n/a	n/a	3	39	Fixation	Win	True
377.775	0.25	Win2	0.6	0.003	Yes	2.972	-0.003	2.0	GoodResponse	1	0.161	376.936	3	39	Target	Win	True
377.936	0.3	Win2	0.6	0.003	Yes	2.972	-0.003	2.0	GoodResponse	1	0.161	n/a	3	39	ButtonPress	Win	True
378.025	0.45	Win2	0.6	n/a	Yes	2.972	n/a	n/a	GoodResponse	1	n/a	n/a	3	39	Blank	Win	True
378.477	1.45	Win2	0.6	n/a	Yes	2.972	n/a	5.0	GoodResponse	1	0.028	377.505	3	39	Feedback	Win	True
379.931	2.972	Win2	0.6	n/a	Yes	2.972	n/a	n/a	GoodResponse	1	0.0	n/a	3	39	ISIslide	Win	True
382.923	0.25	Win2	0.6098	0.0	Yes	2.727	0.023	n/a	GoodResponse	1	n/a	n/a	4	40	Cue	Win	True
383.174	3.95	Win2	0.6098	0.0	Yes	2.727	0.001	n/a	GoodResponse	1	n/a	n/a	4	40	Fixation	Win	True
387.119	0.26	Win2	0.6098	0.004	Yes	2.727	-0.004	2.0	GoodResponse	1	0.221	386.34	4	40	Target	Win	True
387.34	0.3	Win2	0.6098	0.004	Yes	2.727	-0.004	2.0	GoodResponse	1	0.221	n/a	4	40	ButtonPress	Win	True
387.387	0.44	Win2	0.6098	n/a	Yes	2.727	n/a	n/a	GoodResponse	1	n/a	n/a	4	40	Blank	Win	True
387.821	1.45	Win2	0.6098	n/a	Yes	2.727	n/a	5.0	GoodResponse	1	0.002	386.823	4	40	Feedback	Win	True
389.276	2.727	Win2	0.6098	n/a	Yes	2.727	n/a	n/a	GoodResponse	1	0.0	n/a	4	40	ISIslide	Win	True
392.017	0.25	Win2	0.619	0.0	Yes	2.783	0.017	n/a	GoodResponse	1	n/a	n/a	5	41	Cue	Win	True
392.268	3.9	Win2	0.619	0.0	Yes	2.783	0.001	n/a	GoodResponse	1	n/a	n/a	5	41	Fixation	Win	True
396.163	0.27	Win2	0.619	0.004	Yes	2.783	-0.004	2.0	GoodResponse	1	0.198	395.361	5	41	Target	Win	True
396.361	0.3	Win2	0.619	0.004	Yes	2.783	-0.004	2.0	GoodResponse	1	0.198	n/a	5	41	ButtonPress	Win	True
396.447	0.43	Win2	0.619	n/a	Yes	2.783	n/a	n/a	GoodResponse	1	n/a	n/a	5	41	Blank	Win	True
396.865	1.45	Win2	0.619	n/a	Yes	2.783	n/a	5.0	GoodResponse	1	0.03	395.895	5	41	Feedback	Win	True
398.319	2.783	Win2	0.619	n/a	Yes	2.783	n/a	n/a	GoodResponse	1	0.0	n/a	5	41	ISIslide	Win	True
401.128	0.25	Control	0.6279	0.0	Yes	2.922	0.028	n/a	GoodResponse	0	n/a	n/a	5	42	Cue	Neutral	True
401.378	3.85	Control	0.6279	0.0	Yes	2.922	0.0	n/a	GoodResponse	0	n/a	n/a	5	42	Fixation	Neutral	True
405.24	0.28	Control	0.6279	0.0	Yes	2.922	0.012	2.0	GoodResponse	0	0.241	404.481	5	42	Target	Neutral	True
405.481	0.3	Control	0.6279	0.0	Yes	2.922	0.012	2.0	GoodResponse	0	0.241	n/a	5	42	ButtonPress	Neutral	True
405.507	0.42	Control	0.6279	n/a	Yes	2.922	n/a	n/a	GoodResponse	0	n/a	n/a	5	42	Blank	Neutral	True
405.925	1.45	Control	0.6279	n/a	Yes	2.922	n/a	5.0	GoodResponse	0	0.043	404.968	5	42	Feedback	Neutral	True
407.38	2.922	Control	0.6279	n/a	Yes	2.922	n/a	n/a	GoodResponse	0	0.0	n/a	5	42	ISIslide	Neutral	True
410.322	0.25	Win2	0.6364	0.0	Yes	3.178	0.022	n/a	GoodResponse	1	n/a	n/a	6	43	Cue	Win	True
410.572	4.0	Win2	0.6364	0.001	Yes	3.178	0.0	n/a	GoodResponse	1	n/a	n/a	6	43	Fixation	Win	True
414.568	0.29	Win2	0.6364	0.004	Yes	3.178	-0.004	2.0	GoodResponse	1	0.178	413.746	6	43	Target	Win	True
414.746	0.3	Win2	0.6364	0.004	Yes	3.178	-0.004	2.0	GoodResponse	1	0.178	n/a	6	43	ButtonPress	Win	True
414.869	0.41	Win2	0.6364	n/a	Yes	3.178	n/a	n/a	GoodResponse	1	n/a	n/a	6	43	Blank	Win	True
415.27	1.45	Win2	0.6364	n/a	Yes	3.178	n/a	5.0	GoodResponse	1	0.015	414.285	6	43	Feedback	Win	True
416.724	3.178	Win2	0.6364	n/a	Yes	3.178	n/a	n/a	GoodResponse	1	0.0	n/a	6	43	ISIslide	Win	True
419.917	0.25	Win2	0.6444	0.0	Yes	2.983	0.017	n/a	GoodResponse	1	n/a	n/a	7	44	Cue	Win	True
420.168	4.0	Win2	0.6444	0.0	Yes	2.983	0.001	n/a	GoodResponse	1	n/a	n/a	7	44	Fixation	Win	True
424.163	0.3	Win2	0.6444	0.004	Yes	2.983	-0.004	2.0	GoodResponse	1	0.249	423.412	7	44	Target	Win	True
424.412	0.3	Win2	0.6444	0.004	Yes	2.983	-0.004	2.0	GoodResponse	1	0.249	n/a	7	44	ButtonPress	Win	True
424.464	0.4	Win2	0.6444	n/a	Yes	2.983	n/a	n/a	GoodResponse	1	n/a	n/a	7	44	Blank	Win	True
424.865	1.45	Win2	0.6444	n/a	Yes	2.983	n/a	5.0	GoodResponse	1	0.03	423.895	7	44	Feedback	Win	True
426.32	2.983	Win2	0.6444	n/a	Yes	2.983	n/a	n/a	GoodResponse	1	0.0	n/a	7	44	ISIslide	Win	True
429.329	0.25	Control	0.6522	0.0	Yes	2.871	0.029	n/a	GoodResponse	0	n/a	n/a	7	45	Cue	Neutral	True
429.579	4.1	Control	0.6522	0.0	Yes	2.871	0.0	n/a	GoodResponse	0	n/a	n/a	7	45	Fixation	Neutral	True
433.675	0.31	Control	0.6522	0.004	Yes	2.871	-0.004	2.0	GoodResponse	0	0.254	432.929	7	45	Target	Neutral	True
433.929	0.3	Control	0.6522	0.004	Yes	2.871	-0.004	2.0	GoodResponse	0	0.254	n/a	7	45	ButtonPress	Neutral	True
433.992	0.39	Control	0.6522	n/a	Yes	2.871	n/a	n/a	GoodResponse	0	n/a	n/a	7	45	Blank	Neutral	True
434.377	1.45	Control	0.6522	n/a	Yes	2.871	n/a	5.0	GoodResponse	0	0.029	433.406	7	45	Feedback	Neutral	True
435.831	2.871	Control	0.6522	n/a	Yes	2.871	n/a	n/a	GoodResponse	0	0.0	n/a	7	45	ISIslide	Neutral	True
438.723	0.25	Lose2	0.6596	0.0	Yes	3.377	0.023	n/a	GoodResponse	0	n/a	n/a	7	46	Cue	AvoidedLoss	True
438.974	4.0	Lose2	0.6596	0.0	Yes	3.377	0.001	n/a	GoodResponse	0	n/a	n/a	7	46	Fixation	AvoidedLoss	True
442.969	0.32	Lose2	0.6596	0.004	Yes	3.377	-0.004	2.0	GoodResponse	0	0.184	442.153	7	46	Target	AvoidedLoss	True
443.153	0.3	Lose2	0.6596	0.004	Yes	3.377	-0.004	2.0	GoodResponse	0	0.184	n/a	7	46	ButtonPress	AvoidedLoss	True
443.304	0.38	Lose2	0.6596	n/a	Yes	3.377	n/a	n/a	GoodResponse	0	n/a	n/a	7	46	Blank	AvoidedLoss	True
443.671	1.45	Lose2	0.6596	n/a	Yes	3.377	n/a	5.0	GoodResponse	0	0.008	442.679	7	46	Feedback	AvoidedLoss	True
445.126	3.377	Lose2	0.6596	n/a	Yes	3.377	n/a	n/a	GoodResponse	0	0.0	n/a	7	46	ISIslide	AvoidedLoss	True
448.519	0.25	Lose2	0.6667000000000001	0.0	Yes	2.681	0.019	n/a	GoodResponse	0	n/a	n/a	7	47	Cue	AvoidedLoss	True
448.77	4.0	Lose2	0.6667000000000001	0.0	Yes	2.681	0.001	n/a	GoodResponse	0	n/a	n/a	7	47	Fixation	AvoidedLoss	True
452.765	0.32	Lose2	0.6667000000000001	0.004	Yes	2.681	-0.004	2.0	GoodResponse	0	0.192	451.957	7	47	Target	AvoidedLoss	True
452.957	0.3	Lose2	0.6667000000000001	0.004	Yes	2.681	-0.004	2.0	GoodResponse	0	0.192	n/a	7	47	ButtonPress	AvoidedLoss	True
453.1	0.38	Lose2	0.6667000000000001	n/a	Yes	2.681	n/a	n/a	GoodResponse	0	n/a	n/a	7	47	Blank	AvoidedLoss	True
453.467	1.45	Lose2	0.6667000000000001	n/a	Yes	2.681	n/a	5.0	GoodResponse	0	0.013	452.48	7	47	Feedback	AvoidedLoss	True
454.922	2.681	Lose2	0.6667000000000001	n/a	Yes	2.681	n/a	n/a	GoodResponse	0	0.0	n/a	7	47	ISIslide	AvoidedLoss	True
457.63	0.25	Lose2	0.6735	0.0	Yes	3.02	0.03	n/a	GoodResponse	0	n/a	n/a	7	48	Cue	AvoidedLoss	True
457.88	3.95	Lose2	0.6735	0.001	Yes	3.02	0.0	n/a	GoodResponse	0	n/a	n/a	7	48	Fixation	AvoidedLoss	True
461.826	0.31	Lose2	0.6735	0.004	Yes	3.02	-0.004	2.0	GoodResponse	0	0.239	461.065	7	48	Target	AvoidedLoss	True
462.065	0.3	Lose2	0.6735	0.004	Yes	3.02	-0.004	2.0	GoodResponse	0	0.239	n/a	7	48	ButtonPress	AvoidedLoss	True
462.143	0.39	Lose2	0.6735	n/a	Yes	3.02	n/a	n/a	GoodResponse	0	n/a	n/a	7	48	Blank	AvoidedLoss	True
462.528	1.45	Lose2	0.6735	n/a	Yes	3.02	n/a	5.0	GoodResponse	0	0.025	461.553	7	48	Feedback	AvoidedLoss	True
463.982	3.02	Lose2	0.6735	n/a	Yes	3.02	n/a	n/a	GoodResponse	0	0.0	n/a	7	48	ISIslide	AvoidedLoss	True
467.024	0.25	Control	0.68	0.001	Yes	2.876	0.024	n/a	GoodResponse	0	n/a	n/a	7	49	Cue	Neutral	True
467.275	4.0	Control	0.68	0.0	Yes	2.876	0.001	n/a	GoodResponse	0	n/a	n/a	7	49	Fixation	Neutral	True
471.27	0.3	Control	0.68	0.004	Yes	2.876	-0.004	2.0	GoodResponse	0	0.214	470.484	7	49	Target	Neutral	True
471.484	0.3	Control	0.68	0.004	Yes	2.876	-0.004	2.0	GoodResponse	0	0.214	n/a	7	49	ButtonPress	Neutral	True
471.571	0.4	Control	0.68	n/a	Yes	2.876	n/a	n/a	GoodResponse	0	n/a	n/a	7	49	Blank	Neutral	True
471.973	1.45	Control	0.68	n/a	Yes	2.876	n/a	5.0	GoodResponse	0	0.043	471.016	7	49	Feedback	Neutral	True
473.427	2.876	Control	0.68	n/a	Yes	2.876	n/a	n/a	GoodResponse	0	0.0	n/a	7	49	ISIslide	Neutral	True
476.319	0.25	Control	0.6667000000000001	0.0	No	2.781	0.019	n/a	NoResponse	0	n/a	n/a	7	50	Cue	Neutral	False
476.57	4.0	Control	0.6667000000000001	0.0	No	2.781	0.001	n/a	NoResponse	0	n/a	n/a	7	50	Fixation	Neutral	False
480.565	0.29	Control	0.6667000000000001	0.004	No	2.781	-0.004	n/a	NoResponse	0	n/a	n/a	7	50	Target	Neutral	False
480.866	0.41	Control	0.6667000000000001	n/a	No	2.781	n/a	n/a	NoResponse	0	n/a	n/a	7	50	Blank	Neutral	False
481.267	1.45	Control	0.6667000000000001	n/a	No	2.781	n/a	5.0	NoResponse	0	0.017	480.284	7	50	Feedback	Neutral	False
482.721	2.781	Control	0.6667000000000001	n/a	No	2.781	n/a	n/a	NoResponse	0	0.0	n/a	7	50	ISIslide	Neutral	False
485.53	0.25	Control	0.6731	0.0	Yes	2.72	0.03	n/a	GoodResponse	0	n/a	n/a	7	51	Cue	Neutral	True
485.78	3.95	Control	0.6731	0.001	Yes	2.72	0.0	n/a	GoodResponse	0	n/a	n/a	7	51	Fixation	Neutral	True
489.726	0.28	Control	0.6731	0.004	Yes	2.72	-0.004	2.0	GoodResponse	0	0.226	488.952	7	51	Target	Neutral	True
489.952	0.3	Control	0.6731	0.004	Yes	2.72	-0.004	2.0	GoodResponse	0	0.226	n/a	7	51	ButtonPress	Neutral	True
490.01	0.42	Control	0.6731	n/a	Yes	2.72	n/a	n/a	GoodResponse	0	n/a	n/a	7	51	Blank	Neutral	True
490.428	1.45	Control	0.6731	n/a	Yes	2.72	n/a	5.0	GoodResponse	0	0.027	489.455	7	51	Feedback	Neutral	True
491.882	2.72	Control	0.6731	n/a	Yes	2.72	n/a	n/a	GoodResponse	0	0.0	n/a	7	51	ISIslide	Neutral	True
494.624	0.25	Control	0.6792	0.0	Yes	2.626	0.024	n/a	GoodResponse	0	n/a	n/a	7	52	Cue	Neutral	True
494.874	4.05	Control	0.6792	0.0	Yes	2.626	0.0	n/a	GoodResponse	0	n/a	n/a	7	52	Fixation	Neutral	True
498.92	0.27	Control	0.6792	0.004	Yes	2.626	-0.004	2.0	GoodResponse	0	0.185	498.105	7	52	Target	Neutral	True
499.105	0.3	Control	0.6792	0.004	Yes	2.626	-0.004	2.0	GoodResponse	0	0.185	n/a	7	52	ButtonPress	Neutral	True
499.204	0.43	Control	0.6792	n/a	Yes	2.626	n/a	n/a	GoodResponse	0	n/a	n/a	7	52	Blank	Neutral	True
499.622	1.45	Control	0.6792	n/a	Yes	2.626	n/a	5.0	GoodResponse	0	0.008	498.63	7	52	Feedback	Neutral	True
501.076	2.626	Control	0.6792	n/a	Yes	2.626	n/a	n/a	GoodResponse	0	0.0	n/a	7	52	ISIslide	Neutral	True
503.717	0.25	Win2	0.6851999999999999	0.0	Yes	2.933	0.017	n/a	GoodResponse	1	n/a	n/a	8	53	Cue	Win	True
503.968	4.05	Win2	0.6851999999999999	0.0	Yes	2.933	0.001	n/a	GoodResponse	1	n/a	n/a	8	53	Fixation	Win	True
508.014	0.26	Win2	0.6851999999999999	0.003	Yes	2.933	-0.003	2.0	GoodResponse	1	0.212	507.226	8	53	Target	Win	True
508.226	0.3	Win2	0.6851999999999999	0.003	Yes	2.933	-0.003	2.0	GoodResponse	1	0.212	n/a	8	53	ButtonPress	Win	True
508.281	0.44	Win2	0.6851999999999999	n/a	Yes	2.933	n/a	n/a	GoodResponse	1	n/a	n/a	8	53	Blank	Win	True
508.716	1.45	Win2	0.6851999999999999	n/a	Yes	2.933	n/a	5.0	GoodResponse	1	0.031	507.747	8	53	Feedback	Win	True
510.17	2.933	Win2	0.6851999999999999	n/a	Yes	2.933	n/a	n/a	GoodResponse	1	0.0	n/a	8	53	ISIslide	Win	True
513.129	0.25	Win2	0.6909000000000001	0.0	Yes	2.721	0.029	n/a	GoodResponse	1	n/a	n/a	9	54	Cue	Win	True
513.38	3.95	Win2	0.6909000000000001	0.0	Yes	2.721	0.001	n/a	GoodResponse	1	n/a	n/a	9	54	Fixation	Win	True
517.325	0.25	Win2	0.6909000000000001	0.004	Yes	2.721	-0.004	2.0	GoodResponse	1	0.218	516.543	9	54	Target	Win	True
517.543	0.3	Win2	0.6909000000000001	0.004	Yes	2.721	-0.004	2.0	GoodResponse	1	0.218	n/a	9	54	ButtonPress	Win	True
517.575	0.45	Win2	0.6909000000000001	n/a	Yes	2.721	n/a	n/a	GoodResponse	1	n/a	n/a	9	54	Blank	Win	True
518.027	1.45	Win2	0.6909000000000001	n/a	Yes	2.721	n/a	5.0	GoodResponse	1	0.037	517.064	9	54	Feedback	Win	True
519.481	2.721	Win2	0.6909000000000001	n/a	Yes	2.721	n/a	n/a	GoodResponse	1	0.0	n/a	9	54	ISIslide	Win	True
522.223	0.25	Control	0.6964	0.0	Yes	3.027	0.023	n/a	GoodResponse	0	n/a	n/a	9	55	Cue	Neutral	True
522.473	3.95	Control	0.6964	0.0	Yes	3.027	0.0	n/a	GoodResponse	0	n/a	n/a	9	55	Fixation	Neutral	True
526.435	0.24	Control	0.6964	0.0	Yes	3.027	0.012	2.0	GoodResponse	0	0.184	525.619	9	55	Target	Neutral	True
526.619	0.3	Control	0.6964	0.0	Yes	3.027	0.012	2.0	GoodResponse	0	0.184	n/a	9	55	ButtonPress	Neutral	True
526.669	0.46	Control	0.6964	n/a	Yes	3.027	n/a	n/a	GoodResponse	0	n/a	n/a	9	55	Blank	Neutral	True
527.121	1.45	Control	0.6964	n/a	Yes	3.027	n/a	5.0	GoodResponse	0	0.016	526.137	9	55	Feedback	Neutral	True
528.575	3.027	Control	0.6964	n/a	Yes	3.027	n/a	n/a	GoodResponse	0	0.0	n/a	9	55	ISIslide	Neutral	True
531.617	0.25	Control	0.7018000000000001	0.0	Yes	2.833	0.017	n/a	GoodResponse	0	n/a	n/a	9	56	Cue	Neutral	True
531.868	3.95	Control	0.7018000000000001	0.0	Yes	2.833	0.001	n/a	GoodResponse	0	n/a	n/a	9	56	Fixation	Neutral	True
535.813	0.23	Control	0.7018000000000001	0.004	Yes	2.833	-0.004	2.0	GoodResponse	0	0.227	535.04	9	56	Target	Neutral	True
536.04	0.3	Control	0.7018000000000001	0.004	Yes	2.833	-0.004	2.0	GoodResponse	0	0.227	n/a	9	56	ButtonPress	Neutral	True
536.047	0.47	Control	0.7018000000000001	n/a	Yes	2.833	n/a	n/a	GoodResponse	0	n/a	n/a	9	56	Blank	Neutral	True
536.515	1.45	Control	0.7018000000000001	n/a	Yes	2.833	n/a	5.0	GoodResponse	0	0.037	535.552	9	56	Feedback	Neutral	True
537.97	2.833	Control	0.7018000000000001	n/a	Yes	2.833	n/a	n/a	GoodResponse	0	0.0	n/a	9	56	ISIslide	Neutral	True
540.828	0.25	Control	0.7069	0.0	Yes	3.472	0.028	n/a	GoodResponse	0	n/a	n/a	9	57	Cue	Neutral	True
541.079	4.0	Control	0.7069	0.0	Yes	3.472	0.001	n/a	GoodResponse	0	n/a	n/a	9	57	Fixation	Neutral	True
545.074	0.22	Control	0.7069	0.004	Yes	3.472	-0.004	2.0	GoodResponse	0	0.216	544.29	9	57	Target	Neutral	True
545.29	0.3	Control	0.7069	0.004	Yes	3.472	-0.004	2.0	GoodResponse	0	0.216	n/a	9	57	ButtonPress	Neutral	True
545.308	0.48	Control	0.7069	n/a	Yes	3.472	n/a	n/a	GoodResponse	0	n/a	n/a	9	57	Blank	Neutral	True
545.776	1.45	Control	0.7069	n/a	Yes	3.472	n/a	5.0	GoodResponse	0	0.043	544.819	9	57	Feedback	Neutral	True
547.231	3.472	Control	0.7069	n/a	Yes	3.472	n/a	n/a	GoodResponse	0	0.0	n/a	9	57	ISIslide	Neutral	True
550.724	0.25	Win2	0.7119	0.001	Yes	2.726	0.024	n/a	GoodResponse	1	n/a	n/a	10	58	Cue	Win	True
550.975	4.05	Win2	0.7119	0.0	Yes	2.726	0.001	n/a	GoodResponse	1	n/a	n/a	10	58	Fixation	Win	True
555.021	0.21	Win2	0.7119	0.003	Yes	2.726	-0.003	2.0	GoodResponse	1	0.207	554.228	10	58	Target	Win	True
555.228	0.3	Win2	0.7119	0.003	Yes	2.726	-0.003	2.0	GoodResponse	1	0.207	n/a	10	58	ButtonPress	Win	True
555.238	0.49	Win2	0.7119	n/a	Yes	2.726	n/a	n/a	GoodResponse	1	n/a	n/a	10	58	Blank	Win	True
555.723	1.45	Win2	0.7119	n/a	Yes	2.726	n/a	5.0	GoodResponse	1	0.048	554.771	10	58	Feedback	Win	True
557.177	2.726	Win2	0.7119	n/a	Yes	2.726	n/a	n/a	GoodResponse	1	0.0	n/a	10	58	ISIslide	Win	True
559.919	0.25	Lose2	0.7	0.0	No	2.681	0.019	n/a	NoResponse	-1	n/a	n/a	9	59	Cue	Loss	True
560.169	4.0	Lose2	0.7	0.0	No	2.681	0.0	n/a	NoResponse	-1	n/a	n/a	9	59	Fixation	Loss	True
564.165	0.2	Lose2	0.7	0.004	No	2.681	-0.004	2.0	NoResponse	-1	0.232	563.397	9	59	Target	Loss	True
564.365	0.5	Lose2	0.7	n/a	No	2.681	n/a	n/a	NoResponse	-1	n/a	n/a	9	59	Blank	Loss	True
564.397	0.3	Lose2	0.7	0.004	No	2.681	-0.004	2.0	NoResponse	-1	0.232	n/a	9	59	ButtonPress	Loss	True
564.867	1.45	Lose2	0.7	n/a	No	2.681	n/a	5.0	NoResponse	-1	0.026	563.893	9	59	Feedback	Loss	True
566.321	2.681	Lose2	0.7	n/a	No	2.681	n/a	n/a	NoResponse	-1	0.0	n/a	9	59	ISIslide	Loss	True
569.029	0.25	Control	0.6884999999999999	0.0	No	2.671	0.029	n/a	NoResponse	0	n/a	n/a	9	60	Cue	Neutral	True
569.28	4.0	Control	0.6884999999999999	0.0	No	2.671	0.001	n/a	NoResponse	0	n/a	n/a	9	60	Fixation	Neutral	True
573.275	0.19	Control	0.6884999999999999	0.004	No	2.671	-0.004	2.0	NoResponse	0	0.22	572.495	9	60	Target	Neutral	True
573.476	0.51	Control	0.6884999999999999	n/a	No	2.671	n/a	n/a	NoResponse	0	n/a	n/a	9	60	Blank	Neutral	True
573.495	0.3	Control	0.6884999999999999	0.004	No	2.671	-0.004	2.0	NoResponse	0	0.22	n/a	9	60	ButtonPress	Neutral	True
573.977	1.45	Control	0.6884999999999999	n/a	No	2.671	n/a	5.0	NoResponse	0	0.038	573.015	9	60	Feedback	Neutral	True
575.432	2.671	Control	0.6884999999999999	n/a	No	2.671	n/a	n/a	NoResponse	0	0.0	n/a	9	60	ISIslide	Neutral	True
578.123	0.25	Lose2	0.6774	0.0	No	2.977	0.023	n/a	NoResponse	-1	n/a	n/a	8	61	Cue	Loss	True
578.374	4.0	Lose2	0.6774	0.0	No	2.977	0.001	n/a	NoResponse	-1	n/a	n/a	8	61	Fixation	Loss	True
582.369	0.18	Lose2	0.6774	0.004	No	2.977	-0.004	2.0	NoResponse	-1	0.185	581.554	8	61	Target	Loss	True
582.553	0.52	Lose2	0.6774	n/a	No	2.977	n/a	n/a	NoResponse	-1	n/a	n/a	8	61	Blank	Loss	True
582.554	0.3	Lose2	0.6774	0.004	No	2.977	-0.004	2.0	NoResponse	-1	0.185	n/a	8	61	ButtonPress	Loss	True
583.071	1.45	Lose2	0.6774	n/a	No	2.977	n/a	5.0	NoResponse	-1	0.016	582.087	8	61	Feedback	Loss	True
584.525	2.977	Lose2	0.6774	n/a	No	2.977	n/a	n/a	NoResponse	-1	0.0	n/a	8	61	ISIslide	Loss	True
587.518	0.25	Lose2	0.6825	0.0	Yes	2.882	0.018	n/a	GoodResponse	0	n/a	n/a	8	62	Cue	AvoidedLoss	False
587.768	3.9	Lose2	0.6825	0.0	Yes	2.882	0.0	2.0	GoodResponse	0	3.463	590.231	8	62	Fixation	AvoidedLoss	False
591.231	0.3	Lose2	0.6825	0.0	Yes	2.882	0.0	2.0	GoodResponse	0	3.463	n/a	8	62	ButtonPress	AvoidedLoss	False
591.68	0.17	Lose2	0.6825	0.0	Yes	2.882	0.012	2.0	GoodResponse	0	0.107	590.787	8	62	Target	AvoidedLoss	False
591.787	0.3	Lose2	0.6825	0.0	Yes	2.882	0.012	2.0	GoodResponse	0	0.107	n/a	8	62	ButtonPress	AvoidedLoss	False
591.847	0.53	Lose2	0.6825	n/a	Yes	2.882	n/a	n/a	GoodResponse	0	n/a	n/a	8	62	Blank	AvoidedLoss	False
592.365	1.45	Lose2	0.6825	n/a	Yes	2.882	n/a	5.0	GoodResponse	0	0.039	591.404	8	62	Feedback	AvoidedLoss	False
593.82	2.882	Lose2	0.6825	n/a	Yes	2.882	n/a	n/a	GoodResponse	0	0.0	n/a	8	62	ISIslide	AvoidedLoss	False
596.728	0.25	Lose2	0.6718999999999999	0.001	No	2.622	0.028	n/a	NoResponse	-1	n/a	n/a	7	63	Cue	Loss	True
596.979	4.05	Lose2	0.6718999999999999	0.0	No	2.622	0.001	n/a	NoResponse	-1	n/a	n/a	7	63	Fixation	Loss	True
601.025	0.16	Lose2	0.6718999999999999	0.003	No	2.622	-0.003	2.0	NoResponse	-1	0.195	600.22	7	63	Target	Loss	True
601.192	0.54	Lose2	0.6718999999999999	n/a	No	2.622	n/a	n/a	NoResponse	-1	n/a	n/a	7	63	Blank	Loss	True
601.22	0.3	Lose2	0.6718999999999999	0.003	No	2.622	-0.003	2.0	NoResponse	-1	0.195	n/a	7	63	ButtonPress	Loss	True
601.727	1.45	Lose2	0.6718999999999999	n/a	No	2.622	n/a	5.0	NoResponse	-1	0.043	600.77	7	63	Feedback	Loss	True
603.181	2.622	Lose2	0.6718999999999999	n/a	No	2.622	n/a	n/a	NoResponse	-1	0.0	n/a	7	63	ISIslide	Loss	True
605.822	0.25	Win2	0.6615000000000001	0.0	No	3.128	0.022	n/a	NoResponse	0	n/a	n/a	7	64	Cue	MissedWin	True
606.073	4.15	Win2	0.6615000000000001	0.0	No	3.128	0.001	n/a	NoResponse	0	n/a	n/a	7	64	Fixation	MissedWin	True
610.219	0.15	Win2	0.6615000000000001	0.003	No	3.128	-0.003	2.0	NoResponse	0	0.185	609.404	7	64	Target	MissedWin	True
610.369	0.55	Win2	0.6615000000000001	n/a	No	3.128	n/a	n/a	NoResponse	0	n/a	n/a	7	64	Blank	MissedWin	True
610.404	0.3	Win2	0.6615000000000001	0.003	No	3.128	-0.003	2.0	NoResponse	0	0.185	n/a	7	64	ButtonPress	MissedWin	True
610.921	1.45	Win2	0.6615000000000001	n/a	No	3.128	n/a	5.0	NoResponse	0	0.02	609.941	7	64	Feedback	MissedWin	True
612.375	3.128	Win2	0.6615000000000001	n/a	No	3.128	n/a	n/a	NoResponse	0	0.0	n/a	7	64	ISIslide	MissedWin	True
615.518	0.25	Control	0.6515000000000001	0.0	No	2.782	0.018	n/a	NoResponse	0	n/a	n/a	7	65	Cue	Neutral	True
615.769	4.0	Control	0.6515000000000001	0.0	No	2.782	0.001	n/a	NoResponse	0	n/a	n/a	7	65	Fixation	Neutral	True
619.764	0.15	Control	0.6515000000000001	0.004	No	2.782	-0.004	2.0	NoResponse	0	0.4	619.164	7	65	Target	Neutral	True
619.914	0.55	Control	0.6515000000000001	n/a	No	2.782	n/a	n/a	NoResponse	0	n/a	n/a	7	65	Blank	Neutral	True
620.164	0.3	Control	0.6515000000000001	0.004	No	2.782	-0.004	2.0	NoResponse	0	0.4	n/a	7	65	ButtonPress	Neutral	True
620.466	1.45	Control	0.6515000000000001	n/a	No	2.782	n/a	5.0	NoResponse	0	0.035	619.501	7	65	Feedback	Neutral	True
621.92	2.782	Control	0.6515000000000001	n/a	No	2.782	n/a	n/a	NoResponse	0	0.0	n/a	7	65	ISIslide	Neutral	True
624.729	0.25	Win2	0.6418	0.0	No	2.771	0.029	n/a	NoResponse	0	n/a	n/a	7	66	Cue	MissedWin	True
624.979	3.9	Win2	0.6418	0.001	No	2.771	0.0	n/a	NoResponse	0	n/a	n/a	7	66	Fixation	MissedWin	True
628.874	0.16	Win2	0.6418	0.005	No	2.771	-0.005	2.0	NoResponse	0	0.176	628.05	7	66	Target	MissedWin	True
629.042	0.54	Win2	0.6418	n/a	No	2.771	n/a	n/a	NoResponse	0	n/a	n/a	7	66	Blank	MissedWin	True
629.05	0.3	Win2	0.6418	0.005	No	2.771	-0.005	2.0	NoResponse	0	0.176	n/a	7	66	ButtonPress	MissedWin	True
629.577	1.45	Win2	0.6418	n/a	No	2.771	n/a	5.0	NoResponse	0	0.046	628.623	7	66	Feedback	MissedWin	True
631.031	2.771	Win2	0.6418	n/a	No	2.771	n/a	n/a	NoResponse	0	0.0	n/a	7	66	ISIslide	MissedWin	True
633.823	0.25	Control	0.6324000000000001	0.0	No	2.727	0.023	n/a	NoResponse	0	n/a	n/a	7	67	Cue	Neutral	True
634.073	3.95	Control	0.6324000000000001	0.0	No	2.727	0.0	n/a	NoResponse	0	n/a	n/a	7	67	Fixation	Neutral	True
638.035	0.17	Control	0.6324000000000001	0.0	No	2.727	0.012	2.0	NoResponse	0	0.185	637.22	7	67	Target	Neutral	True
638.202	0.53	Control	0.6324000000000001	n/a	No	2.727	n/a	n/a	NoResponse	0	n/a	n/a	7	67	Blank	Neutral	True
638.22	0.3	Control	0.6324000000000001	0.0	No	2.727	0.012	2.0	NoResponse	0	0.185	n/a	7	67	ButtonPress	Neutral	True
638.721	1.45	Control	0.6324000000000001	n/a	No	2.727	n/a	5.0	NoResponse	0	0.024	637.745	7	67	Feedback	Neutral	True
640.175	2.727	Control	0.6324000000000001	n/a	No	2.727	n/a	n/a	NoResponse	0	0.0	n/a	7	67	ISIslide	Neutral	True
642.916	0.25	Win2	0.6232	0.001	No	3.084	0.016	n/a	NoResponse	0	n/a	n/a	7	68	Cue	MissedWin	True
643.167	4.0	Win2	0.6232	0.0	No	3.084	0.001	n/a	NoResponse	0	n/a	n/a	7	68	Fixation	MissedWin	True
647.162	0.18	Win2	0.6232	0.004	No	3.084	-0.004	2.0	NoResponse	0	0.213	646.375	7	68	Target	MissedWin	True
647.346	0.52	Win2	0.6232	n/a	No	3.084	n/a	n/a	NoResponse	0	n/a	n/a	7	68	Blank	MissedWin	True
647.375	0.3	Win2	0.6232	0.004	No	3.084	-0.004	2.0	NoResponse	0	0.213	n/a	7	68	ButtonPress	MissedWin	True
647.865	1.45	Win2	0.6232	n/a	No	3.084	n/a	5.0	NoResponse	0	0.007	646.872	7	68	Feedback	MissedWin	True
649.319	3.084	Win2	0.6232	n/a	No	3.084	n/a	n/a	NoResponse	0	0.0	n/a	7	68	ISIslide	MissedWin	True
652.428	0.25	Win2	0.6143	0.0	No	3.222	0.028	n/a	PrematurePress	0	n/a	n/a	7	69	Cue	MissedWin	True
652.679	3.95	Win2	0.6143	0.0	No	3.222	0.001	n/a	PrematurePress	0	n/a	n/a	7	69	Fixation	MissedWin	True
656.624	0.19	Win2	0.6143	0.004	No	3.222	-0.004	2.0	PrematurePress	0	0.077	655.701	7	69	Target	MissedWin	True
656.701	0.3	Win2	0.6143	0.004	No	3.222	-0.004	2.0	PrematurePress	0	0.077	n/a	7	69	ButtonPress	MissedWin	True
656.825	0.51	Win2	0.6143	n/a	No	3.222	n/a	n/a	PrematurePress	0	n/a	n/a	7	69	Blank	MissedWin	True
657.326	1.45	Win2	0.6143	n/a	No	3.222	n/a	5.0	PrematurePress	0	0.007	656.333	7	69	Feedback	MissedWin	True
658.78	3.222	Win2	0.6143	n/a	No	3.222	n/a	n/a	PrematurePress	0	0.0	n/a	7	69	ISIslide	MissedWin	True
662.023	0.25	Lose2	0.6056	0.001	No	3.027	0.023	n/a	NoResponse	-1	n/a	n/a	6	70	Cue	Loss	True
662.274	4.05	Lose2	0.6056	0.0	No	3.027	0.001	n/a	NoResponse	-1	n/a	n/a	6	70	Fixation	Loss	True
666.32	0.2	Lose2	0.6056	0.003	No	3.027	-0.003	2.0	NoResponse	-1	0.293	665.613	6	70	Target	Loss	True
666.52	0.5	Lose2	0.6056	n/a	No	3.027	n/a	n/a	NoResponse	-1	n/a	n/a	6	70	Blank	Loss	True
666.613	0.3	Lose2	0.6056	0.003	No	3.027	-0.003	2.0	NoResponse	-1	0.293	n/a	6	70	ButtonPress	Loss	True
667.022	1.45	Lose2	0.6056	n/a	No	3.027	n/a	5.0	NoResponse	-1	0.015	666.037	6	70	Feedback	Loss	True
668.476	3.027	Lose2	0.6056	n/a	No	3.027	n/a	n/a	NoResponse	-1	0.0	n/a	6	70	ISIslide	Loss	True
671.518	0.25	Win2	0.6111	0.001	Yes	2.732	0.018	n/a	GoodResponse	1	n/a	n/a	7	71	Cue	Win	True
671.769	4.05	Win2	0.6111	0.0	Yes	2.732	0.001	n/a	GoodResponse	1	n/a	n/a	7	71	Fixation	Win	True
675.815	0.21	Win2	0.6111	0.003	Yes	2.732	-0.003	2.0	GoodResponse	1	0.183	674.998	7	71	Target	Win	True
675.998	0.3	Win2	0.6111	0.003	Yes	2.732	-0.003	2.0	GoodResponse	1	0.183	n/a	7	71	ButtonPress	Win	True
676.032	0.49	Win2	0.6111	n/a	Yes	2.732	n/a	n/a	GoodResponse	1	n/a	n/a	7	71	Blank	Win	True
676.517	1.45	Win2	0.6111	n/a	Yes	2.732	n/a	5.0	GoodResponse	1	0.032	675.549	7	71	Feedback	Win	True
677.971	2.732	Win2	0.6111	n/a	Yes	2.732	n/a	n/a	GoodResponse	1	0.0	n/a	7	71	ISIslide	Win	True
680.729	0.25	Win2	0.6164000000000001	0.0	Yes	2.771	0.029	n/a	GoodResponse	1	n/a	n/a	8	72	Cue	Win	True
680.98	4.1	Win2	0.6164000000000001	0.0	Yes	2.771	0.001	n/a	GoodResponse	1	n/a	n/a	8	72	Fixation	Win	True
685.076	0.22	Win2	0.6164000000000001	0.003	Yes	2.771	-0.003	2.0	GoodResponse	1	0.189	684.265	8	72	Target	Win	True
685.265	0.3	Win2	0.6164000000000001	0.003	Yes	2.771	-0.003	2.0	GoodResponse	1	0.189	n/a	8	72	ButtonPress	Win	True
685.31	0.48	Win2	0.6164000000000001	n/a	Yes	2.771	n/a	n/a	GoodResponse	1	n/a	n/a	8	72	Blank	Win	True
685.778	1.45	Win2	0.6164000000000001	n/a	Yes	2.771	n/a	5.0	GoodResponse	1	0.04	684.818	8	72	Feedback	Win	True
687.232	2.771	Win2	0.6164000000000001	n/a	Yes	2.771	n/a	n/a	GoodResponse	1	0.0	n/a	8	72	ISIslide	Win	True
690.024	0.25	Win2	0.6215999999999999	0.0	Yes	2.676	0.024	n/a	GoodResponse	1	n/a	n/a	9	73	Cue	Win	True
690.274	4.0	Win2	0.6215999999999999	0.001	Yes	2.676	0.0	n/a	GoodResponse	1	n/a	n/a	9	73	Fixation	Win	True
694.27	0.23	Win2	0.6215999999999999	0.004	Yes	2.676	-0.004	2.0	GoodResponse	1	0.198	693.468	9	73	Target	Win	True
694.468	0.3	Win2	0.6215999999999999	0.004	Yes	2.676	-0.004	2.0	GoodResponse	1	0.198	n/a	9	73	ButtonPress	Win	True
694.504	0.47	Win2	0.6215999999999999	n/a	Yes	2.676	n/a	n/a	GoodResponse	1	n/a	n/a	9	73	Blank	Win	True
694.972	1.45	Win2	0.6215999999999999	n/a	Yes	2.676	n/a	5.0	GoodResponse	1	0.016	693.988	9	73	Feedback	Win	True
696.426	2.676	Win2	0.6215999999999999	n/a	Yes	2.676	n/a	n/a	GoodResponse	1	0.0	n/a	9	73	ISIslide	Win	True
699.118	0.25	Lose2	0.6133	0.0	No	2.632	0.018	n/a	NoResponse	-1	n/a	n/a	8	74	Cue	Loss	False
699.368	4.05	Lose2	0.6133	0.0	No	2.632	0.0	2.0	NoResponse	-1	3.828	702.196	8	74	Fixation	Loss	False
703.196	0.3	Lose2	0.6133	0.0	No	2.632	0.0	2.0	NoResponse	-1	3.828	n/a	8	74	ButtonPress	Loss	False
703.414	0.24	Lose2	0.6133	0.004	No	2.632	-0.004	2.0	NoResponse	-1	0.344	702.758	8	74	Target	Loss	False
703.664	0.46	Lose2	0.6133	n/a	No	2.632	n/a	n/a	NoResponse	-1	n/a	n/a	8	74	Blank	Loss	False
703.758	0.3	Lose2	0.6133	0.004	No	2.632	-0.004	2.0	NoResponse	-1	0.344	n/a	8	74	ButtonPress	Loss	False
704.116	1.45	Lose2	0.6133	n/a	No	2.632	n/a	5.0	NoResponse	-1	0.042	703.158	8	74	Feedback	Loss	False
705.57	2.632	Lose2	0.6133	n/a	No	2.632	n/a	n/a	NoResponse	-1	0.0	n/a	8	74	ISIslide	Loss	False
708.228	0.25	Lose2	0.6053000000000001	0.0	No	2.922	0.028	n/a	NoResponse	-1	n/a	n/a	7	75	Cue	Loss	True
708.479	3.95	Lose2	0.6053000000000001	0.0	No	2.922	0.001	n/a	NoResponse	-1	n/a	n/a	7	75	Fixation	Loss	True
712.424	0.25	Lose2	0.6053000000000001	0.004	No	2.922	-0.004	2.0	NoResponse	-1	0.265	711.689	7	75	Target	Loss	True
712.675	0.45	Lose2	0.6053000000000001	n/a	No	2.922	n/a	n/a	NoResponse	-1	n/a	n/a	7	75	Blank	Loss	True
712.689	0.3	Lose2	0.6053000000000001	0.004	No	2.922	-0.004	2.0	NoResponse	-1	0.265	n/a	7	75	ButtonPress	Loss	True
713.126	1.45	Lose2	0.6053000000000001	n/a	No	2.922	n/a	5.0	NoResponse	-1	0.008	712.134	7	75	Feedback	Loss	True
714.58	2.922	Lose2	0.6053000000000001	n/a	No	2.922	n/a	n/a	NoResponse	-1	0.0	n/a	7	75	ISIslide	Loss	True
717.523	0.25	Control	0.6103999999999999	0.0	Yes	3.227	0.023	n/a	GoodResponse	0	n/a	n/a	7	76	Cue	Neutral	True
717.773	4.05	Control	0.6103999999999999	0.0	Yes	3.227	0.0	n/a	GoodResponse	0	n/a	n/a	7	76	Fixation	Neutral	True
721.819	0.26	Control	0.6103999999999999	0.004	Yes	3.227	-0.004	2.0	GoodResponse	0	0.213	721.032	7	76	Target	Neutral	True
722.032	0.3	Control	0.6103999999999999	0.004	Yes	3.227	-0.004	2.0	GoodResponse	0	0.213	n/a	7	76	ButtonPress	Neutral	True
722.086	0.44	Control	0.6103999999999999	n/a	Yes	3.227	n/a	n/a	GoodResponse	0	n/a	n/a	7	76	Blank	Neutral	True
722.521	1.45	Control	0.6103999999999999	n/a	Yes	3.227	n/a	5.0	GoodResponse	0	0.028	721.549	7	76	Feedback	Neutral	True
723.975	3.227	Control	0.6103999999999999	n/a	Yes	3.227	n/a	n/a	GoodResponse	0	0.0	n/a	7	76	ISIslide	Neutral	True
727.218	0.25	Lose2	0.6026	0.0	No	2.582	0.018	n/a	NoResponse	-1	n/a	n/a	6	77	Cue	Loss	True
727.469	3.95	Lose2	0.6026	0.0	No	2.582	0.001	2.0	NoResponse	-1	3.756	730.225	6	77	Fixation	Loss	True
731.225	0.3	Lose2	0.6026	0.0	No	2.582	0.001	2.0	NoResponse	-1	3.756	n/a	6	77	ButtonPress	Loss	True
731.414	0.27	Lose2	0.6026	0.004	No	2.582	-0.004	n/a	NoResponse	-1	n/a	n/a	6	77	Target	Loss	True
731.698	0.43	Lose2	0.6026	n/a	No	2.582	n/a	n/a	NoResponse	-1	n/a	n/a	6	77	Blank	Loss	True
732.116	1.45	Lose2	0.6026	n/a	No	2.582	n/a	5.0	NoResponse	-1	0.042	731.158	6	77	Feedback	Loss	True
733.57	2.582	Lose2	0.6026	n/a	No	2.582	n/a	n/a	NoResponse	-1	0.0	n/a	6	77	ISIslide	Loss	True
