onset	duration	cue_type	current_mean_accuracy	duration_error	is_hit	isi_adjusted	onset_delay	response	response_type	reward	rt	rt_time	total_reward	trial_number	trial_phase	trial_type	one_press
11.111	0.25	Control	1.0	0.0	Yes	2.939	0.011	n/a	GoodResponse	0	n/a	n/a	0	0	Cue	Neutral	True
11.361	3.85	Control	1.0	0.0	Yes	2.939	0.0	n/a	GoodResponse	0	n/a	n/a	0	0	Fixation	Neutral	True
15.21	0.4	Control	1.0	0.001	Yes	2.939	-0.001	4.0	GoodResponse	0	0.203	14.413	0	0	Target	Neutral	True
15.413	0.3	Control	1.0	0.001	Yes	2.939	-0.001	4.0	GoodResponse	0	0.203	n/a	0	0	ButtonPress	Neutral	True
15.609	0.3	Control	1.0	n/a	Yes	2.939	n/a	n/a	GoodResponse	0	n/a	n/a	0	0	Blank	Neutral	True
15.909	1.45	Control	1.0	n/a	Yes	2.939	n/a	5.0	GoodResponse	0	0.019	14.928	0	0	Feedback	Neutral	True
17.359	2.939	Control	1.0	n/a	Yes	2.939	n/a	n/a	GoodResponse	0	0.0	n/a	0	0	ISIslide	Neutral	True
20.324	0.25	Lose2	1.0	0.001	Yes	2.776	0.024	n/a	GoodResponse	0	n/a	n/a	0	1	Cue	AvoidedLoss	True
20.574	4.0	Lose2	1.0	0.0	Yes	2.776	0.0	n/a	GoodResponse	0	n/a	n/a	0	1	Fixation	AvoidedLoss	True
24.573	0.39	Lose2	1.0	0.001	Yes	2.776	-0.001	4.0	GoodResponse	0	0.23	23.803	0	1	Target	AvoidedLoss	True
24.803	0.3	Lose2	1.0	0.001	Yes	2.776	-0.001	4.0	GoodResponse	0	0.23	n/a	0	1	ButtonPress	AvoidedLoss	True
24.973	0.31	Lose2	1.0	n/a	Yes	2.776	n/a	n/a	GoodResponse	0	n/a	n/a	0	1	Blank	AvoidedLoss	True
25.273	1.45	Lose2	1.0	n/a	Yes	2.776	n/a	5.0	GoodResponse	0	0.021	24.294	0	1	Feedback	AvoidedLoss	True
26.722	2.776	Lose2	1.0	n/a	Yes	2.776	n/a	n/a	GoodResponse	0	0.0	n/a	0	1	ISIslide	AvoidedLoss	True
29.521	0.25	Control	0.6667000000000001	0.0	No	2.579	0.021	n/a	NoResponse	0	n/a	n/a	0	2	Cue	Neutral	False
29.771	4.1	Control	0.6667000000000001	0.0	No	2.579	0.0	n/a	NoResponse	0	n/a	n/a	0	2	Fixation	Neutral	False
33.87	0.38	Control	0.6667000000000001	0.001	No	2.579	-0.001	n/a	NoResponse	0	n/a	n/a	0	2	Target	Neutral	False
34.253	0.32	Control	0.6667000000000001	n/a	No	2.579	n/a	n/a	NoResponse	0	n/a	n/a	0	2	Blank	Neutral	False
34.569	1.45	Control	0.6667000000000001	n/a	No	2.579	n/a	5.0	NoResponse	0	0.042	33.611	0	2	Feedback	Neutral	False
36.019	2.579	Control	0.6667000000000001	n/a	No	2.579	n/a	n/a	NoResponse	0	0.0	n/a	0	2	ISIslide	Neutral	False
38.618	0.25	Win2	0.5	0.0	No	2.832	0.018	n/a	NoResponse	0	n/a	n/a	0	3	Cue	MissedWin	True
38.868	3.95	Win2	0.5	0.0	No	2.832	0.0	4.0	NoResponse	0	3.903	41.771	0	3	Fixation	MissedWin	True
42.771	0.3	Win2	0.5	0.0	No	2.832	0.0	4.0	NoResponse	0	3.903	n/a	0	3	ButtonPress	MissedWin	True
42.816	0.37	Win2	0.5	0.002	No	2.832	-0.002	n/a	NoResponse	0	n/a	n/a	0	3	Target	MissedWin	True
43.2	0.33	Win2	0.5	n/a	No	2.832	n/a	n/a	NoResponse	0	n/a	n/a	0	3	Blank	MissedWin	True
43.516	1.45	Win2	0.5	n/a	No	2.832	n/a	5.0	NoResponse	0	0.022	42.538	0	3	Feedback	MissedWin	True
44.966	2.832	Win2	0.5	n/a	No	2.832	n/a	n/a	NoResponse	0	0.0	n/a	0	3	ISIslide	MissedWin	True
47.815	0.25	Win2	0.6	0.0	Yes	3.285	0.015	n/a	GoodResponse	1	n/a	n/a	1	4	Cue	Win	True
48.065	4.0	Win2	0.6	0.0	Yes	3.285	0.0	n/a	GoodResponse	1	n/a	n/a	1	4	Fixation	Win	True
52.063	0.38	Win2	0.6	0.002	Yes	3.285	-0.002	4.0	GoodResponse	1	0.203	51.266	1	4	Target	Win	True
52.266	0.3	Win2	0.6	0.002	Yes	3.285	-0.002	4.0	GoodResponse	1	0.203	n/a	1	4	ButtonPress	Win	True
52.446	0.32	Win2	0.6	n/a	Yes	3.285	n/a	n/a	GoodResponse	1	n/a	n/a	1	4	Blank	Win	True
52.763	1.45	Win2	0.6	n/a	Yes	3.285	n/a	5.0	GoodResponse	1	0.043	51.806	1	4	Feedback	Win	True
54.212	3.285	Win2	0.6	n/a	Yes	3.285	n/a	n/a	GoodResponse	1	0.0	n/a	1	4	ISIslide	Win	True
57.528	0.25	Win2	0.6667000000000001	0.0	Yes	2.772	0.028	n/a	GoodResponse	1	n/a	n/a	2	5	Cue	Win	False
57.778	4.0	Win2	0.6667000000000001	0.0	Yes	2.772	0.0	4.0	GoodResponse	1	3.553	60.331	2	5	Fixation	Win	False
61.331	0.3	Win2	0.6667000000000001	0.0	Yes	2.772	0.0	4.0	GoodResponse	1	3.553	n/a	2	5	ButtonPress	Win	False
61.776	0.39	Win2	0.6667000000000001	0.002	Yes	2.772	-0.002	4.0	GoodResponse	1	0.255	61.031	2	5	Target	Win	False
62.031	0.3	Win2	0.6667000000000001	0.002	Yes	2.772	-0.002	4.0	GoodResponse	1	0.255	n/a	2	5	ButtonPress	Win	False
62.176	0.31	Win2	0.6667000000000001	n/a	Yes	2.772	n/a	n/a	GoodResponse	1	n/a	n/a	2	5	Blank	Win	False
62.476	1.45	Win2	0.6667000000000001	n/a	Yes	2.772	n/a	5.0	GoodResponse	1	0.037	61.513	2	5	Feedback	Win	False
63.926	2.772	Win2	0.6667000000000001	n/a	Yes	2.772	n/a	n/a	GoodResponse	1	0.0	n/a	2	5	ISIslide	Win	False
66.725	0.25	Lose2	0.7143	0.0	Yes	2.725	0.025	n/a	GoodResponse	0	n/a	n/a	2	6	Cue	AvoidedLoss	True
66.974	3.95	Lose2	0.7143	0.001	Yes	2.725	-0.001	n/a	GoodResponse	0	n/a	n/a	2	6	Fixation	AvoidedLoss	True
70.923	0.38	Lose2	0.7143	0.002	Yes	2.725	-0.002	4.0	GoodResponse	0	0.347	70.27	2	6	Target	AvoidedLoss	True
71.27	0.3	Lose2	0.7143	0.002	Yes	2.725	-0.002	4.0	GoodResponse	0	0.347	n/a	2	6	ButtonPress	AvoidedLoss	True
71.306	0.32	Lose2	0.7143	n/a	Yes	2.725	n/a	n/a	GoodResponse	0	n/a	n/a	2	6	Blank	AvoidedLoss	True
71.623	1.45	Lose2	0.7143	n/a	Yes	2.725	n/a	5.0	GoodResponse	0	0.012	70.635	2	6	Feedback	AvoidedLoss	True
73.072	2.725	Lose2	0.7143	n/a	Yes	2.725	n/a	n/a	GoodResponse	0	0.0	n/a	2	6	ISIslide	AvoidedLoss	True
75.821	0.25	Lose2	0.75	0.0	Yes	4.029	0.021	n/a	GoodResponse	0	n/a	n/a	2	7	Cue	AvoidedLoss	True
76.071	4.05	Lose2	0.75	0.0	Yes	4.029	0.0	n/a	GoodResponse	0	n/a	n/a	2	7	Fixation	AvoidedLoss	True
80.12	0.37	Lose2	0.75	0.001	Yes	4.029	-0.001	4.0	GoodResponse	0	0.305	79.425	2	7	Target	AvoidedLoss	True
80.425	0.3	Lose2	0.75	0.001	Yes	4.029	-0.001	4.0	GoodResponse	0	0.305	n/a	2	7	ButtonPress	AvoidedLoss	True
80.503	0.33	Lose2	0.75	n/a	Yes	4.029	n/a	n/a	GoodResponse	0	n/a	n/a	2	7	Blank	AvoidedLoss	True
80.82	1.45	Lose2	0.75	n/a	Yes	4.029	n/a	5.0	GoodResponse	0	0.035	79.855	2	7	Feedback	AvoidedLoss	True
82.269	4.029	Lose2	0.75	n/a	Yes	4.029	n/a	n/a	GoodResponse	0	0.0	n/a	2	7	ISIslide	AvoidedLoss	True
86.318	0.25	Lose2	0.7778	0.0	Yes	3.032	0.018	n/a	GoodResponse	0	n/a	n/a	2	8	Cue	AvoidedLoss	True
86.567	3.95	Lose2	0.7778	0.001	Yes	3.032	-0.001	n/a	GoodResponse	0	n/a	n/a	2	8	Fixation	AvoidedLoss	True
90.516	0.36	Lose2	0.7778	0.002	Yes	3.032	-0.002	4.0	GoodResponse	0	0.314	89.83	2	8	Target	AvoidedLoss	True
90.83	0.3	Lose2	0.7778	0.002	Yes	3.032	-0.002	4.0	GoodResponse	0	0.314	n/a	2	8	ButtonPress	AvoidedLoss	True
90.883	0.34	Lose2	0.7778	n/a	Yes	3.032	n/a	n/a	GoodResponse	0	n/a	n/a	2	8	Blank	AvoidedLoss	True
91.216	1.45	Lose2	0.7778	n/a	Yes	3.032	n/a	5.0	GoodResponse	0	0.028	90.244	2	8	Feedback	AvoidedLoss	True
92.665	3.032	Lose2	0.7778	n/a	Yes	3.032	n/a	n/a	GoodResponse	0	0.0	n/a	2	8	ISIslide	AvoidedLoss	True
95.714	0.25	Lose2	0.8	0.0	Yes	3.136	0.014	n/a	GoodResponse	0	n/a	n/a	2	9	Cue	AvoidedLoss	True
95.964	3.95	Lose2	0.8	0.0	Yes	3.136	0.0	n/a	GoodResponse	0	n/a	n/a	2	9	Fixation	AvoidedLoss	True
99.913	0.35	Lose2	0.8	0.001	Yes	3.136	-0.001	4.0	GoodResponse	0	0.214	99.127	2	9	Target	AvoidedLoss	True
100.127	0.3	Lose2	0.8	0.001	Yes	3.136	-0.001	4.0	GoodResponse	0	0.214	n/a	2	9	ButtonPress	AvoidedLoss	True
100.263	0.35	Lose2	0.8	n/a	Yes	3.136	n/a	n/a	GoodResponse	0	n/a	n/a	2	9	Blank	AvoidedLoss	True
100.613	1.45	Lose2	0.8	n/a	Yes	3.136	n/a	5.0	GoodResponse	0	0.046	99.659	2	9	Feedback	AvoidedLoss	True
102.062	3.136	Lose2	0.8	n/a	Yes	3.136	n/a	n/a	GoodResponse	0	0.0	n/a	2	9	ISIslide	AvoidedLoss	True
105.228	0.25	Control	0.8181999999999999	0.0	Yes	3.272	0.028	n/a	GoodResponse	0	n/a	n/a	2	10	Cue	Neutral	True
105.477	4.0	Control	0.8181999999999999	0.001	Yes	3.272	-0.001	n/a	GoodResponse	0	n/a	n/a	2	10	Fixation	Neutral	True
109.476	0.34	Control	0.8181999999999999	0.002	Yes	3.272	-0.002	4.0	GoodResponse	0	0.256	108.732	2	10	Target	Neutral	True
109.732	0.3	Control	0.8181999999999999	0.002	Yes	3.272	-0.002	4.0	GoodResponse	0	0.256	n/a	2	10	ButtonPress	Neutral	True
109.826	0.36	Control	0.8181999999999999	n/a	Yes	3.272	n/a	n/a	GoodResponse	0	n/a	n/a	2	10	Blank	Neutral	True
110.176	1.45	Control	0.8181999999999999	n/a	Yes	3.272	n/a	5.0	GoodResponse	0	0.044	109.22	2	10	Feedback	Neutral	True
111.625	3.272	Control	0.8181999999999999	n/a	Yes	3.272	n/a	n/a	GoodResponse	0	0.0	n/a	2	10	ISIslide	Neutral	True
114.924	0.25	Lose2	0.75	0.0	No	2.726	0.024	n/a	PrematurePress	-1	n/a	n/a	1	11	Cue	Loss	True
115.174	4.05	Lose2	0.75	0.0	No	2.726	0.0	n/a	PrematurePress	-1	n/a	n/a	1	11	Fixation	Loss	True
119.223	0.33	Lose2	0.75	0.001	No	2.726	-0.001	4.0	PrematurePress	-1	0.004	118.227	1	11	Target	Loss	True
119.227	0.3	Lose2	0.75	0.001	No	2.726	-0.001	4.0	PrematurePress	-1	0.004	n/a	1	11	ButtonPress	Loss	True
119.556	0.37	Lose2	0.75	n/a	No	2.726	n/a	n/a	PrematurePress	-1	n/a	n/a	1	11	Blank	Loss	True
119.922	1.45	Lose2	0.75	n/a	No	2.726	n/a	5.0	PrematurePress	-1	0.006	118.928	1	11	Feedback	Loss	True
121.372	2.726	Lose2	0.75	n/a	No	2.726	n/a	n/a	PrematurePress	-1	0.0	n/a	1	11	ISIslide	Loss	True
124.121	0.25	Control	0.6923	0.0	No	2.979	0.021	n/a	NoResponse	0	n/a	n/a	1	12	Cue	Neutral	True
124.371	3.9	Control	0.6923	0.0	No	2.979	0.0	n/a	NoResponse	0	n/a	n/a	1	12	Fixation	Neutral	True
128.269	0.32	Control	0.6923	0.002	No	2.979	-0.002	4.0	NoResponse	0	0.539	127.808	1	12	Target	Neutral	True
128.603	0.38	Control	0.6923	n/a	No	2.979	n/a	n/a	NoResponse	0	n/a	n/a	1	12	Blank	Neutral	True
128.808	0.3	Control	0.6923	0.002	No	2.979	-0.002	4.0	NoResponse	0	0.539	n/a	1	12	ButtonPress	Neutral	True
128.969	1.45	Control	0.6923	n/a	No	2.979	n/a	5.0	NoResponse	0	0.031	128.0	1	12	Feedback	Neutral	True
130.419	2.979	Control	0.6923	n/a	No	2.979	n/a	n/a	NoResponse	0	0.0	n/a	1	12	ISIslide	Neutral	True
133.418	0.25	Control	0.7143	0.0	Yes	2.782	0.018	n/a	GoodResponse	0	n/a	n/a	1	13	Cue	Neutral	True
133.667	4.0	Control	0.7143	0.001	Yes	2.782	-0.001	n/a	GoodResponse	0	n/a	n/a	1	13	Fixation	Neutral	True
137.666	0.31	Control	0.7143	0.002	Yes	2.782	-0.002	4.0	GoodResponse	0	0.289	136.955	1	13	Target	Neutral	True
137.955	0.3	Control	0.7143	0.002	Yes	2.782	-0.002	4.0	GoodResponse	0	0.289	n/a	1	13	ButtonPress	Neutral	True
137.983	0.39	Control	0.7143	n/a	Yes	2.782	n/a	n/a	GoodResponse	0	n/a	n/a	1	13	Blank	Neutral	True
138.366	1.45	Control	0.7143	n/a	Yes	2.782	n/a	5.0	GoodResponse	0	0.0	137.366	1	13	Feedback	Neutral	True
139.815	2.782	Control	0.7143	n/a	Yes	2.782	n/a	n/a	GoodResponse	0	0.0	n/a	1	13	ISIslide	Neutral	True
142.614	0.25	Win2	0.7333	0.0	Yes	2.686	0.014	n/a	GoodResponse	1	n/a	n/a	2	14	Cue	Win	True
142.864	4.1	Win2	0.7333	0.0	Yes	2.686	0.0	n/a	GoodResponse	1	n/a	n/a	2	14	Fixation	Win	True
146.963	0.3	Win2	0.7333	0.001	Yes	2.686	-0.001	4.0	GoodResponse	1	0.206	146.169	2	14	Target	Win	True
147.169	0.3	Win2	0.7333	0.001	Yes	2.686	-0.001	4.0	GoodResponse	1	0.206	n/a	2	14	ButtonPress	Win	True
147.263	0.4	Win2	0.7333	n/a	Yes	2.686	n/a	n/a	GoodResponse	1	n/a	n/a	2	14	Blank	Win	True
147.662	1.45	Win2	0.7333	n/a	Yes	2.686	n/a	5.0	GoodResponse	1	0.021	146.683	2	14	Feedback	Win	True
149.112	2.686	Win2	0.7333	n/a	Yes	2.686	n/a	n/a	GoodResponse	1	0.0	n/a	2	14	ISIslide	Win	True
151.811	0.25	Control	0.75	0.0	Yes	2.989	0.011	n/a	GoodResponse	0	n/a	n/a	2	15	Cue	Neutral	True
152.061	4.0	Control	0.75	0.0	Yes	2.989	0.0	n/a	GoodResponse	0	n/a	n/a	2	15	Fixation	Neutral	True
156.059	0.29	Control	0.75	0.002	Yes	2.989	-0.002	4.0	GoodResponse	0	0.27	155.329	2	15	Target	Neutral	True
156.329	0.3	Control	0.75	0.002	Yes	2.989	-0.002	4.0	GoodResponse	0	0.27	n/a	2	15	ButtonPress	Neutral	True
156.359	0.41	Control	0.75	n/a	Yes	2.989	n/a	n/a	GoodResponse	0	n/a	n/a	2	15	Blank	Neutral	True
156.759	1.45	Control	0.75	n/a	Yes	2.989	n/a	5.0	GoodResponse	0	0.046	155.805	2	15	Feedback	Neutral	True
158.209	2.989	Control	0.75	n/a	Yes	2.989	n/a	n/a	GoodResponse	0	0.0	n/a	2	15	ISIslide	Neutral	True
161.224	0.25	Win2	0.7646999999999999	0.0	Yes	2.876	0.024	n/a	GoodResponse	1	n/a	n/a	3	16	Cue	Win	True
161.474	4.0	Win2	0.7646999999999999	0.0	Yes	2.876	0.0	n/a	GoodResponse	1	n/a	n/a	3	16	Fixation	Win	True
165.473	0.28	Win2	0.7646999999999999	0.001	Yes	2.876	-0.001	4.0	GoodResponse	1	0.22	164.693	3	16	Target	Win	True
165.693	0.3	Win2	0.7646999999999999	0.001	Yes	2.876	-0.001	4.0	GoodResponse	1	0.22	n/a	3	16	ButtonPress	Win	True
165.756	0.42	Win2	0.7646999999999999	n/a	Yes	2.876	n/a	n/a	GoodResponse	1	n/a	n/a	3	16	Blank	Win	True
166.173	1.45	Win2	0.7646999999999999	n/a	Yes	2.876	n/a	5.0	GoodResponse	1	0.046	165.219	3	16	Feedback	Win	True
167.622	2.876	Win2	0.7646999999999999	n/a	Yes	2.876	n/a	n/a	GoodResponse	1	0.0	n/a	3	16	ISIslide	Win	True
170.521	0.25	Lose2	0.7778	0.0	Yes	2.729	0.021	n/a	GoodResponse	0	n/a	n/a	3	17	Cue	AvoidedLoss	True
170.771	3.95	Lose2	0.7778	0.0	Yes	2.729	0.0	n/a	GoodResponse	0	n/a	n/a	3	17	Fixation	AvoidedLoss	True
174.719	0.27	Lose2	0.7778	0.002	Yes	2.729	-0.002	4.0	GoodResponse	0	0.264	173.983	3	17	Target	AvoidedLoss	True
174.983	0.3	Lose2	0.7778	0.002	Yes	2.729	-0.002	4.0	GoodResponse	0	0.264	n/a	3	17	ButtonPress	AvoidedLoss	True
175.003	0.43	Lose2	0.7778	n/a	Yes	2.729	n/a	n/a	GoodResponse	0	n/a	n/a	3	17	Blank	AvoidedLoss	True
175.419	1.45	Lose2	0.7778	n/a	Yes	2.729	n/a	5.0	GoodResponse	0	0.019	174.438	3	17	Feedback	AvoidedLoss	True
176.869	2.729	Lose2	0.7778	n/a	Yes	2.729	n/a	n/a	GoodResponse	0	0.0	n/a	3	17	ISIslide	AvoidedLoss	True
179.618	0.25	Lose2	0.7368000000000001	0.0	No	2.732	0.018	n/a	NoResponse	-1	n/a	n/a	2	18	Cue	Loss	True
179.868	4.05	Lose2	0.7368000000000001	0.0	No	2.732	0.0	n/a	NoResponse	-1	n/a	n/a	2	18	Fixation	Loss	True
183.916	0.26	Lose2	0.7368000000000001	0.002	No	2.732	-0.002	4.0	NoResponse	-1	0.311	183.227	2	18	Target	Loss	True
184.183	0.44	Lose2	0.7368000000000001	n/a	No	2.732	n/a	n/a	NoResponse	-1	n/a	n/a	2	18	Blank	Loss	True
184.227	0.3	Lose2	0.7368000000000001	0.002	No	2.732	-0.002	4.0	NoResponse	-1	0.311	n/a	2	18	ButtonPress	Loss	True
184.616	1.45	Lose2	0.7368000000000001	n/a	No	2.732	n/a	5.0	NoResponse	-1	0.042	183.658	2	18	Feedback	Loss	True
186.065	2.732	Lose2	0.7368000000000001	n/a	No	2.732	n/a	n/a	NoResponse	-1	0.0	n/a	2	18	ISIslide	Loss	True
188.814	0.25	Control	0.75	0.001	Yes	2.936	0.014	n/a	GoodResponse	0	n/a	n/a	2	19	Cue	Neutral	True
189.064	3.95	Control	0.75	0.001	Yes	2.936	0.0	n/a	GoodResponse	0	n/a	n/a	2	19	Fixation	Neutral	True
193.013	0.25	Control	0.75	0.001	Yes	2.936	-0.001	4.0	GoodResponse	0	0.118	192.131	2	19	Target	Neutral	True
193.131	0.3	Control	0.75	0.001	Yes	2.936	-0.001	4.0	GoodResponse	0	0.118	n/a	2	19	ButtonPress	Neutral	True
193.263	0.45	Control	0.75	n/a	Yes	2.936	n/a	n/a	GoodResponse	0	n/a	n/a	2	19	Blank	Neutral	True
193.713	1.45	Control	0.75	n/a	Yes	2.936	n/a	5.0	GoodResponse	0	0.018	192.731	2	19	Feedback	Neutral	True
195.162	2.936	Control	0.75	n/a	Yes	2.936	n/a	n/a	GoodResponse	0	0.0	n/a	2	19	ISIslide	Neutral	True
198.111	0.25	Control	0.7143	0.0	No	2.639	0.011	n/a	NoResponse	0	n/a	n/a	2	20	Cue	Neutral	True
198.361	4.05	Control	0.7143	0.0	No	2.639	0.0	4.0	NoResponse	0	3.925	201.286	2	20	Fixation	Neutral	True
202.286	0.3	Control	0.7143	0.0	No	2.639	0.0	4.0	NoResponse	0	3.925	n/a	2	20	ButtonPress	Neutral	True
202.41	0.24	Control	0.7143	0.001	No	2.639	-0.001	n/a	NoResponse	0	n/a	n/a	2	20	Target	Neutral	True
202.66	0.46	Control	0.7143	n/a	No	2.639	n/a	n/a	NoResponse	0	n/a	n/a	2	20	Blank	Neutral	True
203.109	1.45	Control	0.7143	n/a	No	2.639	n/a	5.0	NoResponse	0	0.036	202.145	2	20	Feedback	Neutral	True
204.559	2.639	Control	0.7143	n/a	No	2.639	n/a	n/a	NoResponse	0	0.0	n/a	2	20	ISIslide	Neutral	True
207.225	0.25	Control	0.6818000000000001	0.0	No	2.775	0.025	n/a	NoResponse	0	n/a	n/a	2	21	Cue	Neutral	True
207.474	4.1	Control	0.6818000000000001	0.001	No	2.775	-0.001	n/a	NoResponse	0	n/a	n/a	2	21	Fixation	Neutral	True
211.573	0.23	Control	0.6818000000000001	0.002	No	2.775	-0.002	4.0	NoResponse	0	0.239	210.812	2	21	Target	Neutral	True
211.806	0.47	Control	0.6818000000000001	n/a	No	2.775	n/a	n/a	NoResponse	0	n/a	n/a	2	21	Blank	Neutral	True
211.812	0.3	Control	0.6818000000000001	0.002	No	2.775	-0.002	4.0	NoResponse	0	0.239	n/a	2	21	ButtonPress	Neutral	True
212.273	1.45	Control	0.6818000000000001	n/a	No	2.775	n/a	5.0	NoResponse	0	0.043	211.316	2	21	Feedback	Neutral	True
213.722	2.775	Control	0.6818000000000001	n/a	No	2.775	n/a	n/a	NoResponse	0	0.0	n/a	2	21	ISIslide	Neutral	True
216.521	0.25	Control	0.6522	0.0	No	2.779	0.021	n/a	PrematurePress	0	n/a	n/a	2	22	Cue	Neutral	True
216.771	4.0	Control	0.6522	0.0	No	2.779	0.0	n/a	PrematurePress	0	n/a	n/a	2	22	Fixation	Neutral	True
220.77	0.22	Control	0.6522	0.001	No	2.779	-0.001	4.0	PrematurePress	0	0.028	219.798	2	22	Target	Neutral	True
220.798	0.3	Control	0.6522	0.001	No	2.779	-0.001	4.0	PrematurePress	0	0.028	n/a	2	22	ButtonPress	Neutral	True
220.986	0.48	Control	0.6522	n/a	No	2.779	n/a	n/a	PrematurePress	0	n/a	n/a	2	22	Blank	Neutral	True
221.47	1.45	Control	0.6522	n/a	No	2.779	n/a	5.0	PrematurePress	0	0.017	220.487	2	22	Feedback	Neutral	True
222.919	2.779	Control	0.6522	n/a	No	2.779	n/a	n/a	PrematurePress	0	0.0	n/a	2	22	ISIslide	Neutral	True
225.718	0.25	Control	0.625	0.0	No	2.782	0.018	n/a	NoResponse	0	n/a	n/a	2	23	Cue	Neutral	True
225.968	3.9	Control	0.625	0.0	No	2.782	0.0	n/a	NoResponse	0	n/a	n/a	2	23	Fixation	Neutral	True
229.867	0.23	Control	0.625	0.001	No	2.782	-0.001	4.0	NoResponse	0	0.312	229.179	2	23	Target	Neutral	True
230.1	0.47	Control	0.625	n/a	No	2.782	n/a	n/a	NoResponse	0	n/a	n/a	2	23	Blank	Neutral	True
230.179	0.3	Control	0.625	0.001	No	2.782	-0.001	4.0	NoResponse	0	0.312	n/a	2	23	ButtonPress	Neutral	True
230.566	1.45	Control	0.625	n/a	No	2.782	n/a	5.0	NoResponse	0	0.043	229.609	2	23	Feedback	Neutral	True
232.016	2.782	Control	0.625	n/a	No	2.782	n/a	n/a	NoResponse	0	0.0	n/a	2	23	ISIslide	Neutral	True
234.815	0.25	Win2	0.6	0.0	No	3.135	0.015	n/a	NoResponse	0	n/a	n/a	2	24	Cue	MissedWin	False
235.065	3.95	Win2	0.6	0.0	No	3.135	0.0	n/a	NoResponse	0	n/a	n/a	2	24	Fixation	MissedWin	False
239.013	0.24	Win2	0.6	0.002	No	3.135	-0.002	n/a	NoResponse	0	n/a	n/a	2	24	Target	MissedWin	False
239.263	0.46	Win2	0.6	n/a	No	3.135	n/a	n/a	NoResponse	0	n/a	n/a	2	24	Blank	MissedWin	False
239.713	1.45	Win2	0.6	n/a	No	3.135	n/a	5.0	NoResponse	0	0.017	238.73	2	24	Feedback	MissedWin	False
241.163	3.135	Win2	0.6	n/a	No	3.135	n/a	n/a	NoResponse	0	0.0	n/a	2	24	ISIslide	MissedWin	False
244.311	0.25	Win2	0.5769	0.0	No	3.089	0.011	n/a	NoResponse	0	n/a	n/a	2	25	Cue	MissedWin	False
244.561	4.0	Win2	0.5769	0.0	No	3.089	0.0	n/a	NoResponse	0	n/a	n/a	2	25	Fixation	MissedWin	False
248.56	0.25	Win2	0.5769	0.001	No	3.089	-0.001	n/a	NoResponse	0	n/a	n/a	2	25	Target	MissedWin	False
248.81	0.45	Win2	0.5769	n/a	No	3.089	n/a	n/a	NoResponse	0	n/a	n/a	2	25	Blank	MissedWin	False
249.26	1.45	Win2	0.5769	n/a	No	3.089	n/a	5.0	NoResponse	0	0.031	248.291	2	25	Feedback	MissedWin	False
250.709	3.089	Win2	0.5769	n/a	No	3.089	n/a	n/a	NoResponse	0	0.0	n/a	2	25	ISIslide	MissedWin	False
253.825	0.25	Win2	0.5556	0.0	No	2.925	0.025	n/a	NoResponse	0	n/a	n/a	2	26	Cue	MissedWin	True
254.075	3.95	Win2	0.5556	0.0	No	2.925	0.0	n/a	NoResponse	0	n/a	n/a	2	26	Fixation	MissedWin	True
258.023	0.26	Win2	0.5556	0.002	No	2.925	-0.002	4.0	NoResponse	0	0.275	257.298	2	26	Target	MissedWin	True
258.29	0.44	Win2	0.5556	n/a	No	2.925	n/a	n/a	NoResponse	0	n/a	n/a	2	26	Blank	MissedWin	True
258.298	0.3	Win2	0.5556	0.002	No	2.925	-0.002	4.0	NoResponse	0	0.275	n/a	2	26	ButtonPress	MissedWin	True
258.723	1.45	Win2	0.5556	n/a	No	2.925	n/a	5.0	NoResponse	0	0.032	257.755	2	26	Feedback	MissedWin	True
260.172	2.925	Win2	0.5556	n/a	No	2.925	n/a	n/a	NoResponse	0	0.0	n/a	2	26	ISIslide	MissedWin	True
263.121	0.25	Lose2	0.5357	0.0	No	2.829	0.021	n/a	NoResponse	-1	n/a	n/a	1	27	Cue	Loss	True
263.371	4.05	Lose2	0.5357	0.0	No	2.829	0.0	4.0	NoResponse	-1	3.528	265.899	1	27	Fixation	Loss	True
266.899	0.3	Lose2	0.5357	0.0	No	2.829	0.0	4.0	NoResponse	-1	3.528	n/a	1	27	ButtonPress	Loss	True
267.42	0.27	Lose2	0.5357	0.001	No	2.829	-0.001	n/a	NoResponse	-1	n/a	n/a	1	27	Target	Loss	True
267.686	0.43	Lose2	0.5357	n/a	No	2.829	n/a	n/a	NoResponse	-1	n/a	n/a	1	27	Blank	Loss	True
268.12	1.45	Lose2	0.5357	n/a	No	2.829	n/a	5.0	NoResponse	-1	0.001	267.121	1	27	Feedback	Loss	True
269.569	2.829	Lose2	0.5357	n/a	No	2.829	n/a	n/a	NoResponse	-1	0.0	n/a	1	27	ISIslide	Loss	True
272.418	0.25	Control	0.5172	0.0	No	2.832	0.018	n/a	NoResponse	0	n/a	n/a	1	28	Cue	Neutral	True
272.668	4.05	Control	0.5172	0.0	No	2.832	0.0	n/a	NoResponse	0	n/a	n/a	1	28	Fixation	Neutral	True
276.717	0.28	Control	0.5172	0.001	No	2.832	-0.001	4.0	NoResponse	0	0.39	276.107	1	28	Target	Neutral	True
277	0.42	Control	0.5172	n/a	No	2.832	n/a	n/a	NoResponse	0	n/a	n/a	1	28	Blank	Neutral	True
277.107	0.3	Control	0.5172	0.001	No	2.832	-0.001	4.0	NoResponse	0	0.39	n/a	1	28	ButtonPress	Neutral	True
277.416	1.45	Control	0.5172	n/a	No	2.832	n/a	5.0	NoResponse	0	0.021	276.437	1	28	Feedback	Neutral	True
278.866	2.832	Control	0.5172	n/a	No	2.832	n/a	n/a	NoResponse	0	0.0	n/a	1	28	ISIslide	Neutral	True
281.715	0.25	Lose2	0.5333	0.0	Yes	2.835	0.015	n/a	GoodResponse	0	n/a	n/a	1	29	Cue	AvoidedLoss	True
281.965	3.95	Lose2	0.5333	0.0	Yes	2.835	0.0	n/a	GoodResponse	0	n/a	n/a	1	29	Fixation	AvoidedLoss	True
285.913	0.29	Lose2	0.5333	0.002	Yes	2.835	-0.002	4.0	GoodResponse	0	0.224	285.137	1	29	Target	AvoidedLoss	True
286.137	0.3	Lose2	0.5333	0.002	Yes	2.835	-0.002	4.0	GoodResponse	0	0.224	n/a	1	29	ButtonPress	AvoidedLoss	True
286.213	0.41	Lose2	0.5333	n/a	Yes	2.835	n/a	n/a	GoodResponse	0	n/a	n/a	1	29	Blank	AvoidedLoss	True
286.613	1.45	Lose2	0.5333	n/a	Yes	2.835	n/a	5.0	GoodResponse	0	0.043	285.656	1	29	Feedback	AvoidedLoss	True
288.062	2.835	Lose2	0.5333	n/a	Yes	2.835	n/a	n/a	GoodResponse	0	0.0	n/a	1	29	ISIslide	AvoidedLoss	True
290.928	0.25	Win2	0.5161	0.0	No	2.772	0.028	n/a	NoResponse	0	n/a	n/a	1	30	Cue	MissedWin	True
291.178	3.9	Win2	0.5161	0.0	No	2.772	0.0	4.0	NoResponse	0	3.297	293.475	1	30	Fixation	MissedWin	True
294.475	0.3	Win2	0.5161	0.0	No	2.772	0.0	4.0	NoResponse	0	3.297	n/a	1	30	ButtonPress	MissedWin	True
295.077	0.3	Win2	0.5161	0.001	No	2.772	-0.001	n/a	NoResponse	0	n/a	n/a	1	30	Target	MissedWin	True
295.377	0.4	Win2	0.5161	n/a	No	2.772	n/a	n/a	NoResponse	0	n/a	n/a	1	30	Blank	MissedWin	True
295.776	1.45	Win2	0.5161	n/a	No	2.772	n/a	5.0	NoResponse	0	0.002	294.778	1	30	Feedback	MissedWin	True
297.226	2.772	Win2	0.5161	n/a	No	2.772	n/a	n/a	NoResponse	0	0.0	n/a	1	30	ISIslide	MissedWin	True
300.025	0.25	Lose2	0.5312	0.0	Yes	2.825	0.025	n/a	GoodResponse	0	n/a	n/a	1	31	Cue	AvoidedLoss	True
300.275	4.05	Lose2	0.5312	0.0	Yes	2.825	0.0	n/a	GoodResponse	0	n/a	n/a	1	31	Fixation	AvoidedLoss	True
304.323	0.31	Lose2	0.5312	0.002	Yes	2.825	-0.002	4.0	GoodResponse	0	0.275	303.598	1	31	Target	AvoidedLoss	True
304.598	0.3	Lose2	0.5312	0.002	Yes	2.825	-0.002	4.0	GoodResponse	0	0.275	n/a	1	31	ButtonPress	AvoidedLoss	True
304.64	0.39	Lose2	0.5312	n/a	Yes	2.825	n/a	n/a	GoodResponse	0	n/a	n/a	1	31	Blank	AvoidedLoss	True
305.023	1.45	Lose2	0.5312	n/a	Yes	2.825	n/a	5.0	GoodResponse	0	0.024	304.047	1	31	Feedback	AvoidedLoss	True
306.473	2.825	Lose2	0.5312	n/a	Yes	2.825	n/a	n/a	GoodResponse	0	0.0	n/a	1	31	ISIslide	AvoidedLoss	True
309.322	0.25	Lose2	0.5152	0.0	No	2.628	0.022	n/a	NoResponse	-1	n/a	n/a	0	32	Cue	Loss	True
309.572	4.15	Lose2	0.5152	0.0	No	2.628	0.0	4.0	NoResponse	-1	3.563	312.135	0	32	Fixation	Loss	True
313.135	0.3	Lose2	0.5152	0.0	No	2.628	0.0	4.0	NoResponse	-1	3.563	n/a	0	32	ButtonPress	Loss	True
313.72	0.32	Lose2	0.5152	0.002	No	2.628	-0.002	n/a	NoResponse	-1	n/a	n/a	0	32	Target	Loss	True
314.053	0.38	Lose2	0.5152	n/a	No	2.628	n/a	n/a	NoResponse	-1	n/a	n/a	0	32	Blank	Loss	True
314.42	1.45	Lose2	0.5152	n/a	No	2.628	n/a	5.0	NoResponse	-1	0.041	313.461	0	32	Feedback	Loss	True
315.869	2.628	Lose2	0.5152	n/a	No	2.628	n/a	n/a	NoResponse	-1	0.0	n/a	0	32	ISIslide	Loss	True
318.518	0.25	Win2	0.5294	0.0	Yes	2.682	0.018	n/a	GoodResponse	1	n/a	n/a	1	33	Cue	Win	True
318.768	4.0	Win2	0.5294	0.0	Yes	2.682	0.0	n/a	GoodResponse	1	n/a	n/a	1	33	Fixation	Win	True
322.767	0.33	Win2	0.5294	0.001	Yes	2.682	-0.001	4.0	GoodResponse	1	0.241	322.008	1	33	Target	Win	True
323.008	0.3	Win2	0.5294	0.001	Yes	2.682	-0.001	4.0	GoodResponse	1	0.241	n/a	1	33	ButtonPress	Win	True
323.1	0.37	Win2	0.5294	n/a	Yes	2.682	n/a	n/a	GoodResponse	1	n/a	n/a	1	33	Blank	Win	True
323.467	1.45	Win2	0.5294	n/a	Yes	2.682	n/a	5.0	GoodResponse	1	0.018	322.485	1	33	Feedback	Win	True
324.916	2.682	Win2	0.5294	n/a	Yes	2.682	n/a	n/a	GoodResponse	1	0.0	n/a	1	33	ISIslide	Win	True
327.615	0.25	Lose2	0.5143	0.0	No	2.635	0.015	n/a	PrematurePress	-1	n/a	n/a	0	34	Cue	Loss	True
327.865	4.05	Lose2	0.5143	0.0	No	2.635	0.0	n/a	PrematurePress	-1	n/a	n/a	0	34	Fixation	Loss	True
331.914	0.34	Lose2	0.5143	0.001	No	2.635	-0.001	4.0	PrematurePress	-1	0.02	330.934	0	34	Target	Loss	True
331.934	0.3	Lose2	0.5143	0.001	No	2.635	-0.001	4.0	PrematurePress	-1	0.02	n/a	0	34	ButtonPress	Loss	True
332.263	0.36	Lose2	0.5143	n/a	No	2.635	n/a	n/a	PrematurePress	-1	n/a	n/a	0	34	Blank	Loss	True
332.613	1.45	Lose2	0.5143	n/a	No	2.635	n/a	5.0	PrematurePress	-1	0.043	331.656	0	34	Feedback	Loss	True
334.063	2.635	Lose2	0.5143	n/a	No	2.635	n/a	n/a	PrematurePress	-1	0.0	n/a	0	34	ISIslide	Loss	True
336.729	0.25	Lose2	0.5278	0.0	Yes	2.671	0.029	n/a	GoodResponse	0	n/a	n/a	0	35	Cue	AvoidedLoss	False
336.978	4.0	Lose2	0.5278	0.001	Yes	2.671	-0.001	4.0	GoodResponse	0	3.692	339.67	0	35	Fixation	AvoidedLoss	False
340.67	0.3	Lose2	0.5278	0.001	Yes	2.671	-0.001	4.0	GoodResponse	0	3.692	n/a	0	35	ButtonPress	AvoidedLoss	False
340.977	0.35	Lose2	0.5278	0.002	Yes	2.671	-0.002	4.0	GoodResponse	0	0.264	340.241	0	35	Target	AvoidedLoss	False
341.241	0.3	Lose2	0.5278	0.002	Yes	2.671	-0.002	4.0	GoodResponse	0	0.264	n/a	0	35	ButtonPress	AvoidedLoss	False
341.327	0.35	Lose2	0.5278	n/a	Yes	2.671	n/a	n/a	GoodResponse	0	n/a	n/a	0	35	Blank	AvoidedLoss	False
341.677	1.45	Lose2	0.5278	n/a	Yes	2.671	n/a	5.0	GoodResponse	0	0.004	340.681	0	35	Feedback	AvoidedLoss	False
343.126	2.671	Lose2	0.5278	n/a	Yes	2.671	n/a	n/a	GoodResponse	0	0.0	n/a	0	35	ISIslide	AvoidedLoss	False
345.825	0.25	Control	0.5405	0.0	Yes	2.675	0.025	n/a	GoodResponse	0	n/a	n/a	0	36	Cue	Neutral	True
346.075	4.0	Control	0.5405	0.0	Yes	2.675	0.0	n/a	GoodResponse	0	n/a	n/a	0	36	Fixation	Neutral	True
350.074	0.36	Control	0.5405	0.001	Yes	2.675	-0.001	4.0	GoodResponse	0	0.258	349.332	0	36	Target	Neutral	True
350.332	0.3	Control	0.5405	0.001	Yes	2.675	-0.001	4.0	GoodResponse	0	0.258	n/a	0	36	ButtonPress	Neutral	True
350.44	0.34	Control	0.5405	n/a	Yes	2.675	n/a	n/a	GoodResponse	0	n/a	n/a	0	36	Blank	Neutral	True
350.774	1.45	Control	0.5405	n/a	Yes	2.675	n/a	5.0	GoodResponse	0	0.027	349.801	0	36	Feedback	Neutral	True
352.223	2.675	Control	0.5405	n/a	Yes	2.675	n/a	n/a	GoodResponse	0	0.0	n/a	0	36	ISIslide	Neutral	True
354.922	0.25	Win2	0.5526	0.0	Yes	2.878	0.022	n/a	GoodResponse	1	n/a	n/a	1	37	Cue	Win	False
355.172	4.0	Win2	0.5526	0.0	Yes	2.878	0.0	4.0	GoodResponse	1	3.698	357.87	1	37	Fixation	Win	False
358.87	0.3	Win2	0.5526	0.0	Yes	2.878	0.0	4.0	GoodResponse	1	3.698	n/a	1	37	ButtonPress	Win	False
359.171	0.37	Win2	0.5526	0.001	Yes	2.878	-0.001	4.0	GoodResponse	1	0.294	358.465	1	37	Target	Win	False
359.465	0.3	Win2	0.5526	0.001	Yes	2.878	-0.001	4.0	GoodResponse	1	0.294	n/a	1	37	ButtonPress	Win	False
359.554	0.33	Win2	0.5526	n/a	Yes	2.878	n/a	n/a	GoodResponse	1	n/a	n/a	1	37	Blank	Win	False
359.87	1.45	Win2	0.5526	n/a	Yes	2.878	n/a	5.0	GoodResponse	1	0.005	358.875	1	37	Feedback	Win	False
361.32	2.878	Win2	0.5526	n/a	Yes	2.878	n/a	n/a	GoodResponse	1	0.0	n/a	1	37	ISIslide	Win	False
364.219	0.25	Lose2	0.5385	0.0	No	2.831	0.019	n/a	NoResponse	-1	n/a	n/a	0	38	Cue	Loss	True
364.469	3.95	Lose2	0.5385	0.0	No	2.831	0.0	n/a	NoResponse	-1	n/a	n/a	0	38	Fixation	Loss	True
368.417	0.38	Lose2	0.5385	0.002	No	2.831	-0.002	4.0	NoResponse	-1	0.524	367.941	0	38	Target	Loss	True
368.8	0.32	Lose2	0.5385	n/a	No	2.831	n/a	n/a	NoResponse	-1	n/a	n/a	0	38	Blank	Loss	True
368.941	0.3	Lose2	0.5385	0.002	No	2.831	-0.002	4.0	NoResponse	-1	0.524	n/a	0	38	ButtonPress	Loss	True
369.117	1.45	Lose2	0.5385	n/a	No	2.831	n/a	5.0	NoResponse	-1	0.026	368.143	0	38	Feedback	Loss	True
370.566	2.831	Lose2	0.5385	n/a	No	2.831	n/a	n/a	NoResponse	-1	0.0	n/a	0	38	ISIslide	Loss	True
373.415	0.25	Win2	0.525	0.001	No	2.985	0.015	n/a	NoResponse	0	n/a	n/a	0	39	Cue	MissedWin	False
373.665	4.1	Win2	0.525	0.0	No	2.985	0.0	n/a	NoResponse	0	n/a	n/a	0	39	Fixation	MissedWin	False
377.764	0.39	Win2	0.525	0.001	No	2.985	-0.001	n/a	NoResponse	0	n/a	n/a	0	39	Target	MissedWin	False
378.164	0.31	Win2	0.525	n/a	No	2.985	n/a	n/a	NoResponse	0	n/a	n/a	0	39	Blank	MissedWin	False
378.464	1.45	Win2	0.525	n/a	No	2.985	n/a	5.0	NoResponse	0	0.045	377.509	0	39	Feedback	MissedWin	False
379.913	2.985	Win2	0.525	n/a	No	2.985	n/a	n/a	NoResponse	0	0.0	n/a	0	39	ISIslide	MissedWin	False
382.912	0.25	Win2	0.5366	0.0	Yes	2.738	0.012	n/a	GoodResponse	1	n/a	n/a	1	40	Cue	Win	True
383.162	3.95	Win2	0.5366	0.0	Yes	2.738	0.0	n/a	GoodResponse	1	n/a	n/a	1	40	Fixation	Win	True
387.111	0.4	Win2	0.5366	0.001	Yes	2.738	-0.001	4.0	GoodResponse	1	0.225	386.336	1	40	Target	Win	True
387.336	0.3	Win2	0.5366	0.001	Yes	2.738	-0.001	4.0	GoodResponse	1	0.225	n/a	1	40	ButtonPress	Win	True
387.51	0.3	Win2	0.5366	n/a	Yes	2.738	n/a	n/a	GoodResponse	1	n/a	n/a	1	40	Blank	Win	True
387.81	1.45	Win2	0.5366	n/a	Yes	2.738	n/a	5.0	GoodResponse	1	0.015	386.825	1	40	Feedback	Win	True
389.26	2.738	Win2	0.5366	n/a	Yes	2.738	n/a	n/a	GoodResponse	1	0.0	n/a	1	40	ISIslide	Win	True
392.026	0.25	Win2	0.5476	0.0	Yes	2.774	0.026	n/a	GoodResponse	1	n/a	n/a	2	41	Cue	Win	True
392.275	3.9	Win2	0.5476	0.001	Yes	2.774	-0.001	n/a	GoodResponse	1	n/a	n/a	2	41	Fixation	Win	True
396.174	0.41	Win2	0.5476	0.002	Yes	2.774	-0.002	4.0	GoodResponse	1	0.231	395.405	2	41	Target	Win	True
396.405	0.3	Win2	0.5476	0.002	Yes	2.774	-0.002	4.0	GoodResponse	1	0.231	n/a	2	41	ButtonPress	Win	True
396.591	0.29	Win2	0.5476	n/a	Yes	2.774	n/a	n/a	GoodResponse	1	n/a	n/a	2	41	Blank	Win	True
396.874	1.45	Win2	0.5476	n/a	Yes	2.774	n/a	5.0	GoodResponse	1	0.025	395.899	2	41	Feedback	Win	True
398.323	2.774	Win2	0.5476	n/a	Yes	2.774	n/a	n/a	GoodResponse	1	0.0	n/a	2	41	ISIslide	Win	True
401.122	0.25	Control	0.5349	0.0	No	2.928	0.022	n/a	NoResponse	0	n/a	n/a	2	42	Cue	Neutral	False
401.372	3.85	Control	0.5349	0.0	No	2.928	0.0	n/a	NoResponse	0	n/a	n/a	2	42	Fixation	Neutral	False
405.221	0.42	Control	0.5349	0.001	No	2.928	-0.001	n/a	NoResponse	0	n/a	n/a	2	42	Target	Neutral	False
405.654	0.28	Control	0.5349	n/a	No	2.928	n/a	n/a	NoResponse	0	n/a	n/a	2	42	Blank	Neutral	False
405.921	1.45	Control	0.5349	n/a	No	2.928	n/a	5.0	NoResponse	0	0.004	404.925	2	42	Feedback	Neutral	False
407.37	2.928	Control	0.5349	n/a	No	2.928	n/a	n/a	NoResponse	0	0.0	n/a	2	42	ISIslide	Neutral	False
410.319	0.25	Win2	0.5455	0.0	Yes	3.181	0.019	n/a	GoodResponse	1	n/a	n/a	3	43	Cue	Win	True
410.569	4.0	Win2	0.5455	0.0	Yes	3.181	0.0	n/a	GoodResponse	1	n/a	n/a	3	43	Fixation	Win	True
414.567	0.43	Win2	0.5455	0.002	Yes	3.181	-0.002	4.0	GoodResponse	1	0.255	413.822	3	43	Target	Win	True
414.822	0.3	Win2	0.5455	0.002	Yes	3.181	-0.002	4.0	GoodResponse	1	0.255	n/a	3	43	ButtonPress	Win	True
415.001	0.27	Win2	0.5455	n/a	Yes	3.181	n/a	n/a	GoodResponse	1	n/a	n/a	3	43	Blank	Win	True
415.267	1.45	Win2	0.5455	n/a	Yes	3.181	n/a	5.0	GoodResponse	1	0.022	414.289	3	43	Feedback	Win	True
416.717	3.181	Win2	0.5455	n/a	Yes	3.181	n/a	n/a	GoodResponse	1	0.0	n/a	3	43	ISIslide	Win	True
419.916	0.25	Win2	0.5333	0.0	No	2.984	0.016	n/a	NoResponse	0	n/a	n/a	3	44	Cue	MissedWin	False
420.166	4.0	Win2	0.5333	0.0	No	2.984	0.0	n/a	NoResponse	0	n/a	n/a	3	44	Fixation	MissedWin	False
424.164	0.44	Win2	0.5333	0.002	No	2.984	-0.002	n/a	NoResponse	0	n/a	n/a	3	44	Target	MissedWin	False
424.614	0.26	Win2	0.5333	n/a	No	2.984	n/a	n/a	NoResponse	0	n/a	n/a	3	44	Blank	MissedWin	False
424.864	1.45	Win2	0.5333	n/a	No	2.984	n/a	5.0	NoResponse	0	0.034	423.898	3	44	Feedback	MissedWin	False
426.313	2.984	Win2	0.5333	n/a	No	2.984	n/a	n/a	NoResponse	0	0.0	n/a	3	44	ISIslide	MissedWin	False
429.312	0.25	Control	0.5435	0.0	Yes	2.888	0.012	n/a	GoodResponse	0	n/a	n/a	3	45	Cue	Neutral	True
429.562	4.1	Control	0.5435	0.0	Yes	2.888	0.0	n/a	GoodResponse	0	n/a	n/a	3	45	Fixation	Neutral	True
433.661	0.45	Control	0.5435	0.001	Yes	2.888	-0.001	4.0	GoodResponse	0	0.223	432.884	3	45	Target	Neutral	True
433.884	0.3	Control	0.5435	0.001	Yes	2.888	-0.001	4.0	GoodResponse	0	0.223	n/a	3	45	ButtonPress	Neutral	True
434.111	0.25	Control	0.5435	n/a	Yes	2.888	n/a	n/a	GoodResponse	0	n/a	n/a	3	45	Blank	Neutral	True
434.36	1.45	Control	0.5435	n/a	Yes	2.888	n/a	5.0	GoodResponse	0	0.004	433.364	3	45	Feedback	Neutral	True
435.81	2.888	Control	0.5435	n/a	Yes	2.888	n/a	n/a	GoodResponse	0	0.0	n/a	3	45	ISIslide	Neutral	True
438.726	0.25	Lose2	0.5318999999999999	0.0	No	3.374	0.026	n/a	NoResponse	-1	n/a	n/a	2	46	Cue	Loss	True
438.975	4.0	Lose2	0.5318999999999999	0.001	No	3.374	-0.001	4.0	NoResponse	-1	3.78	441.755	2	46	Fixation	Loss	True
442.755	0.3	Lose2	0.5318999999999999	0.001	No	3.374	-0.001	4.0	NoResponse	-1	3.78	n/a	2	46	ButtonPress	Loss	True
442.974	0.46	Lose2	0.5318999999999999	0.002	No	3.374	-0.002	n/a	NoResponse	-1	n/a	n/a	2	46	Target	Loss	True
443.441	0.24	Lose2	0.5318999999999999	n/a	No	3.374	n/a	n/a	NoResponse	-1	n/a	n/a	2	46	Blank	Loss	True
443.674	1.45	Lose2	0.5318999999999999	n/a	No	3.374	n/a	5.0	NoResponse	-1	0.005	442.679	2	46	Feedback	Loss	True
445.123	3.374	Lose2	0.5318999999999999	n/a	No	3.374	n/a	n/a	NoResponse	-1	0.0	n/a	2	46	ISIslide	Loss	True
448.522	0.25	Lose2	0.5417000000000001	0.0	Yes	2.678	0.022	n/a	GoodResponse	0	n/a	n/a	2	47	Cue	AvoidedLoss	True
448.772	4.0	Lose2	0.5417000000000001	0.0	Yes	2.678	0.0	n/a	GoodResponse	0	n/a	n/a	2	47	Fixation	AvoidedLoss	True
452.771	0.47	Lose2	0.5417000000000001	0.001	Yes	2.678	-0.001	4.0	GoodResponse	0	0.294	452.065	2	47	Target	AvoidedLoss	True
453.065	0.3	Lose2	0.5417000000000001	0.001	Yes	2.678	-0.001	4.0	GoodResponse	0	0.294	n/a	2	47	ButtonPress	AvoidedLoss	True
453.254	0.23	Lose2	0.5417000000000001	n/a	Yes	2.678	n/a	n/a	GoodResponse	0	n/a	n/a	2	47	Blank	AvoidedLoss	True
453.47	1.45	Lose2	0.5417000000000001	n/a	Yes	2.678	n/a	5.0	GoodResponse	0	0.014	452.484	2	47	Feedback	AvoidedLoss	True
454.92	2.678	Lose2	0.5417000000000001	n/a	Yes	2.678	n/a	n/a	GoodResponse	0	0.0	n/a	2	47	ISIslide	AvoidedLoss	True
457.619	0.25	Lose2	0.5306000000000001	0.0	No	3.031	0.019	n/a	NoResponse	-1	n/a	n/a	1	48	Cue	Loss	False
457.869	3.95	Lose2	0.5306000000000001	0.0	No	3.031	0.0	n/a	NoResponse	-1	n/a	n/a	1	48	Fixation	Loss	False
461.817	0.48	Lose2	0.5306000000000001	0.002	No	3.031	-0.002	n/a	NoResponse	-1	n/a	n/a	1	48	Target	Loss	False
462.301	0.22	Lose2	0.5306000000000001	n/a	No	3.031	n/a	n/a	NoResponse	-1	n/a	n/a	1	48	Blank	Loss	False
462.517	1.45	Lose2	0.5306000000000001	n/a	No	3.031	n/a	5.0	NoResponse	-1	0.039	461.556	1	48	Feedback	Loss	False
463.967	3.031	Lose2	0.5306000000000001	n/a	No	3.031	n/a	n/a	NoResponse	-1	0.0	n/a	1	48	ISIslide	Loss	False
467.015	0.25	Control	0.54	0.001	Yes	2.885	0.015	n/a	GoodResponse	0	n/a	n/a	1	49	Cue	Neutral	True
467.265	4.0	Control	0.54	0.001	Yes	2.885	0.0	n/a	GoodResponse	0	n/a	n/a	1	49	Fixation	Neutral	True
471.264	0.49	Control	0.54	0.001	Yes	2.885	-0.001	4.0	GoodResponse	0	0.319	470.583	1	49	Target	Neutral	True
471.583	0.3	Control	0.54	0.001	Yes	2.885	-0.001	4.0	GoodResponse	0	0.319	n/a	1	49	ButtonPress	Neutral	True
471.764	0.21	Control	0.54	n/a	Yes	2.885	n/a	n/a	GoodResponse	0	n/a	n/a	1	49	Blank	Neutral	True
471.964	1.45	Control	0.54	n/a	Yes	2.885	n/a	5.0	GoodResponse	0	0.007	470.971	1	49	Feedback	Neutral	True
473.413	2.885	Control	0.54	n/a	Yes	2.885	n/a	n/a	GoodResponse	0	0.0	n/a	1	49	ISIslide	Neutral	True
476.312	0.25	Control	0.5489999999999999	0.0	Yes	2.788	0.012	n/a	GoodResponse	0	n/a	n/a	1	50	Cue	Neutral	True
476.562	4.0	Control	0.5489999999999999	0.0	Yes	2.788	0.0	n/a	GoodResponse	0	n/a	n/a	1	50	Fixation	Neutral	True
480.561	0.5	Control	0.5489999999999999	0.001	Yes	2.788	-0.001	4.0	GoodResponse	0	0.24	479.801	1	50	Target	Neutral	True
480.801	0.3	Control	0.5489999999999999	0.001	Yes	2.788	-0.001	4.0	GoodResponse	0	0.24	n/a	1	50	ButtonPress	Neutral	True
481.061	0.2	Control	0.5489999999999999	n/a	Yes	2.788	n/a	n/a	GoodResponse	0	n/a	n/a	1	50	Blank	Neutral	True
481.26	1.45	Control	0.5489999999999999	n/a	Yes	2.788	n/a	5.0	GoodResponse	0	0.028	480.288	1	50	Feedback	Neutral	True
482.71	2.788	Control	0.5489999999999999	n/a	Yes	2.788	n/a	n/a	GoodResponse	0	0.0	n/a	1	50	ISIslide	Neutral	True
485.526	0.25	Control	0.5577000000000001	0.0	Yes	2.724	0.026	n/a	GoodResponse	0	n/a	n/a	1	51	Cue	Neutral	True
485.776	3.95	Control	0.5577000000000001	0.0	Yes	2.724	0.0	n/a	GoodResponse	0	n/a	n/a	1	51	Fixation	Neutral	True
489.724	0.5	Control	0.5577000000000001	0.002	Yes	2.724	-0.002	4.0	GoodResponse	0	0.416	489.14	1	51	Target	Neutral	True
490.14	0.3	Control	0.5577000000000001	0.002	Yes	2.724	-0.002	4.0	GoodResponse	0	0.416	n/a	1	51	ButtonPress	Neutral	True
490.224	0.2	Control	0.5577000000000001	n/a	Yes	2.724	n/a	n/a	GoodResponse	0	n/a	n/a	1	51	Blank	Neutral	True
490.424	1.45	Control	0.5577000000000001	n/a	Yes	2.724	n/a	5.0	GoodResponse	0	0.035	489.459	1	51	Feedback	Neutral	True
491.873	2.724	Control	0.5577000000000001	n/a	Yes	2.724	n/a	n/a	GoodResponse	0	0.0	n/a	1	51	ISIslide	Neutral	True
494.622	0.25	Control	0.5472	0.0	No	2.628	0.022	n/a	NoResponse	0	n/a	n/a	1	52	Cue	Neutral	False
494.872	4.05	Control	0.5472	0.0	No	2.628	0.0	n/a	NoResponse	0	n/a	n/a	1	52	Fixation	Neutral	False
498.921	0.5	Control	0.5472	0.001	No	2.628	-0.001	n/a	NoResponse	0	n/a	n/a	1	52	Target	Neutral	False
499.421	0.2	Control	0.5472	n/a	No	2.628	n/a	n/a	NoResponse	0	n/a	n/a	1	52	Blank	Neutral	False
499.621	1.45	Control	0.5472	n/a	No	2.628	n/a	5.0	NoResponse	0	0.009	498.63	1	52	Feedback	Neutral	False
501.07	2.628	Control	0.5472	n/a	No	2.628	n/a	n/a	NoResponse	0	0.0	n/a	1	52	ISIslide	Neutral	False
503.719	0.25	Win2	0.5556	0.0	Yes	2.931	0.019	n/a	GoodResponse	1	n/a	n/a	2	53	Cue	Win	True
503.969	4.05	Win2	0.5556	0.0	Yes	2.931	0.0	n/a	GoodResponse	1	n/a	n/a	2	53	Fixation	Win	True
508.018	0.5	Win2	0.5556	0.001	Yes	2.931	-0.001	4.0	GoodResponse	1	0.253	507.271	2	53	Target	Win	True
508.271	0.3	Win2	0.5556	0.001	Yes	2.931	-0.001	4.0	GoodResponse	1	0.253	n/a	2	53	ButtonPress	Win	True
508.517	0.2	Win2	0.5556	n/a	Yes	2.931	n/a	n/a	GoodResponse	1	n/a	n/a	2	53	Blank	Win	True
508.717	1.45	Win2	0.5556	n/a	Yes	2.931	n/a	5.0	GoodResponse	1	0.034	507.751	2	53	Feedback	Win	True
510.167	2.931	Win2	0.5556	n/a	Yes	2.931	n/a	n/a	GoodResponse	1	0.0	n/a	2	53	ISIslide	Win	True
513.116	0.25	Win2	0.5455	0.0	No	2.734	0.016	n/a	NoResponse	0	n/a	n/a	2	54	Cue	MissedWin	False
513.366	3.95	Win2	0.5455	0.0	No	2.734	0.0	n/a	NoResponse	0	n/a	n/a	2	54	Fixation	MissedWin	False
517.314	0.5	Win2	0.5455	0.002	No	2.734	-0.002	n/a	NoResponse	0	n/a	n/a	2	54	Target	MissedWin	False
517.814	0.2	Win2	0.5455	n/a	No	2.734	n/a	n/a	NoResponse	0	n/a	n/a	2	54	Blank	MissedWin	False
518.014	1.45	Win2	0.5455	n/a	No	2.734	n/a	5.0	NoResponse	0	0.005	517.019	2	54	Feedback	MissedWin	False
519.464	2.734	Win2	0.5455	n/a	No	2.734	n/a	n/a	NoResponse	0	0.0	n/a	2	54	ISIslide	MissedWin	False
522.213	0.25	Control	0.5536	0.0	Yes	3.037	0.013	n/a	GoodResponse	0	n/a	n/a	2	55	Cue	Neutral	True
522.462	3.95	Control	0.5536	0.001	Yes	3.037	-0.001	n/a	GoodResponse	0	n/a	n/a	2	55	Fixation	Neutral	True
526.411	0.5	Control	0.5536	0.002	Yes	3.037	-0.002	4.0	GoodResponse	0	0.286	525.697	2	55	Target	Neutral	True
526.697	0.3	Control	0.5536	0.002	Yes	3.037	-0.002	4.0	GoodResponse	0	0.286	n/a	2	55	ButtonPress	Neutral	True
526.911	0.2	Control	0.5536	n/a	Yes	3.037	n/a	n/a	GoodResponse	0	n/a	n/a	2	55	Blank	Neutral	True
527.111	1.45	Control	0.5536	n/a	Yes	3.037	n/a	5.0	GoodResponse	0	0.03	526.141	2	55	Feedback	Neutral	True
528.56	3.037	Control	0.5536	n/a	Yes	3.037	n/a	n/a	GoodResponse	0	0.0	n/a	2	55	ISIslide	Neutral	True
531.626	0.25	Control	0.5614	0.0	Yes	2.824	0.026	n/a	GoodResponse	0	n/a	n/a	2	56	Cue	Neutral	True
531.876	3.95	Control	0.5614	0.0	Yes	2.824	0.0	n/a	GoodResponse	0	n/a	n/a	2	56	Fixation	Neutral	True
535.824	0.5	Control	0.5614	0.002	Yes	2.824	-0.002	4.0	GoodResponse	0	0.112	534.936	2	56	Target	Neutral	True
535.936	0.3	Control	0.5614	0.002	Yes	2.824	-0.002	4.0	GoodResponse	0	0.112	n/a	2	56	ButtonPress	Neutral	True
536.324	0.2	Control	0.5614	n/a	Yes	2.824	n/a	n/a	GoodResponse	0	n/a	n/a	2	56	Blank	Neutral	True
536.524	1.45	Control	0.5614	n/a	Yes	2.824	n/a	5.0	GoodResponse	0	0.031	535.555	2	56	Feedback	Neutral	True
537.974	2.824	Control	0.5614	n/a	Yes	2.824	n/a	n/a	GoodResponse	0	0.0	n/a	2	56	ISIslide	Neutral	True
540.823	0.25	Control	0.5517	0.0	No	3.477	0.023	n/a	NoResponse	0	n/a	n/a	2	57	Cue	Neutral	False
541.073	4.0	Control	0.5517	0.0	No	3.477	0.0	n/a	NoResponse	0	n/a	n/a	2	57	Fixation	Neutral	False
545.071	0.5	Control	0.5517	0.002	No	3.477	-0.002	n/a	NoResponse	0	n/a	n/a	2	57	Target	Neutral	False
545.571	0.2	Control	0.5517	n/a	No	3.477	n/a	n/a	NoResponse	0	n/a	n/a	2	57	Blank	Neutral	False
545.771	1.45	Control	0.5517	n/a	No	3.477	n/a	5.0	NoResponse	0	0.004	544.775	2	57	Feedback	Neutral	False
547.22	3.477	Control	0.5517	n/a	No	3.477	n/a	n/a	NoResponse	0	0.0	n/a	2	57	ISIslide	Neutral	False
550.719	0.25	Win2	0.5593	0.0	Yes	2.731	0.019	n/a	GoodResponse	1	n/a	n/a	3	58	Cue	Win	True
550.969	4.05	Win2	0.5593	0.0	Yes	2.731	0.0	n/a	GoodResponse	1	n/a	n/a	3	58	Fixation	Win	True
555.018	0.5	Win2	0.5593	0.001	Yes	2.731	-0.001	4.0	GoodResponse	1	0.266	554.284	3	58	Target	Win	True
555.284	0.3	Win2	0.5593	0.001	Yes	2.731	-0.001	4.0	GoodResponse	1	0.266	n/a	3	58	ButtonPress	Win	True
555.517	0.2	Win2	0.5593	n/a	Yes	2.731	n/a	n/a	GoodResponse	1	n/a	n/a	3	58	Blank	Win	True
555.717	1.45	Win2	0.5593	n/a	Yes	2.731	n/a	5.0	GoodResponse	1	0.009	554.726	3	58	Feedback	Win	True
557.167	2.731	Win2	0.5593	n/a	Yes	2.731	n/a	n/a	GoodResponse	1	0.0	n/a	3	58	ISIslide	Win	True
559.916	0.25	Lose2	0.5667	0.0	Yes	2.684	0.016	n/a	GoodResponse	0	n/a	n/a	3	59	Cue	AvoidedLoss	True
560.166	4.0	Lose2	0.5667	0.0	Yes	2.684	0.0	n/a	GoodResponse	0	n/a	n/a	3	59	Fixation	AvoidedLoss	True
564.164	0.5	Lose2	0.5667	0.002	Yes	2.684	-0.002	4.0	GoodResponse	0	0.262	563.426	3	59	Target	AvoidedLoss	True
564.426	0.3	Lose2	0.5667	0.002	Yes	2.684	-0.002	4.0	GoodResponse	0	0.262	n/a	3	59	ButtonPress	AvoidedLoss	True
564.664	0.2	Lose2	0.5667	n/a	Yes	2.684	n/a	n/a	GoodResponse	0	n/a	n/a	3	59	Blank	AvoidedLoss	True
564.864	1.45	Lose2	0.5667	n/a	Yes	2.684	n/a	5.0	GoodResponse	0	0.033	563.897	3	59	Feedback	AvoidedLoss	True
566.314	2.684	Lose2	0.5667	n/a	Yes	2.684	n/a	n/a	GoodResponse	0	0.0	n/a	3	59	ISIslide	AvoidedLoss	True
569.013	0.25	Control	0.5574	0.0	No	2.687	0.013	n/a	NoResponse	0	n/a	n/a	3	60	Cue	Neutral	False
569.262	4.0	Control	0.5574	0.001	No	2.687	-0.001	n/a	NoResponse	0	n/a	n/a	3	60	Fixation	Neutral	False
573.261	0.5	Control	0.5574	0.002	No	2.687	-0.002	n/a	NoResponse	0	n/a	n/a	3	60	Target	Neutral	False
573.761	0.2	Control	0.5574	n/a	No	2.687	n/a	n/a	NoResponse	0	n/a	n/a	3	60	Blank	Neutral	False
573.961	1.45	Control	0.5574	n/a	No	2.687	n/a	5.0	NoResponse	0	0.009	572.97	3	60	Feedback	Neutral	False
575.41	2.687	Control	0.5574	n/a	No	2.687	n/a	n/a	NoResponse	0	0.0	n/a	3	60	ISIslide	Neutral	False
578.126	0.25	Lose2	0.5645	0.0	Yes	2.974	0.026	n/a	GoodResponse	0	n/a	n/a	3	61	Cue	AvoidedLoss	True
578.376	4.0	Lose2	0.5645	0.0	Yes	2.974	0.0	n/a	GoodResponse	0	n/a	n/a	3	61	Fixation	AvoidedLoss	True
582.374	0.5	Lose2	0.5645	0.002	Yes	2.974	-0.002	4.0	GoodResponse	0	0.282	581.656	3	61	Target	AvoidedLoss	True
582.656	0.3	Lose2	0.5645	0.002	Yes	2.974	-0.002	4.0	GoodResponse	0	0.282	n/a	3	61	ButtonPress	AvoidedLoss	True
582.874	0.2	Lose2	0.5645	n/a	Yes	2.974	n/a	n/a	GoodResponse	0	n/a	n/a	3	61	Blank	AvoidedLoss	True
583.074	1.45	Lose2	0.5645	n/a	Yes	2.974	n/a	5.0	GoodResponse	0	0.017	582.091	3	61	Feedback	AvoidedLoss	True
584.524	2.974	Lose2	0.5645	n/a	Yes	2.974	n/a	n/a	GoodResponse	0	0.0	n/a	3	61	ISIslide	AvoidedLoss	True
587.523	0.25	Lose2	0.5556	0.0	No	2.877	0.023	n/a	NoResponse	-1	n/a	n/a	2	62	Cue	Loss	False
587.773	3.9	Lose2	0.5556	0.0	No	2.877	0.0	n/a	NoResponse	-1	n/a	n/a	2	62	Fixation	Loss	False
591.671	0.5	Lose2	0.5556	0.002	No	2.877	-0.002	n/a	NoResponse	-1	n/a	n/a	2	62	Target	Loss	False
592.171	0.2	Lose2	0.5556	n/a	No	2.877	n/a	n/a	NoResponse	-1	n/a	n/a	2	62	Blank	Loss	False
592.371	1.45	Lose2	0.5556	n/a	No	2.877	n/a	5.0	NoResponse	-1	0.037	591.408	2	62	Feedback	Loss	False
593.82	2.877	Lose2	0.5556	n/a	No	2.877	n/a	n/a	NoResponse	-1	0.0	n/a	2	62	ISIslide	Loss	False
596.719	0.25	Lose2	0.5625	0.0	Yes	2.631	0.019	n/a	GoodResponse	0	n/a	n/a	2	63	Cue	AvoidedLoss	True
596.969	4.05	Lose2	0.5625	0.0	Yes	2.631	0.0	n/a	GoodResponse	0	n/a	n/a	2	63	Fixation	AvoidedLoss	True
601.018	0.5	Lose2	0.5625	0.001	Yes	2.631	-0.001	4.0	GoodResponse	0	0.257	600.275	2	63	Target	AvoidedLoss	True
601.275	0.3	Lose2	0.5625	0.001	Yes	2.631	-0.001	4.0	GoodResponse	0	0.257	n/a	2	63	ButtonPress	AvoidedLoss	True
601.518	0.2	Lose2	0.5625	n/a	Yes	2.631	n/a	n/a	GoodResponse	0	n/a	n/a	2	63	Blank	AvoidedLoss	True
601.718	1.45	Lose2	0.5625	n/a	Yes	2.631	n/a	5.0	GoodResponse	0	0.008	600.726	2	63	Feedback	AvoidedLoss	True
603.167	2.631	Lose2	0.5625	n/a	Yes	2.631	n/a	n/a	GoodResponse	0	0.0	n/a	2	63	ISIslide	AvoidedLoss	True
605.816	0.25	Win2	0.5538000000000001	0.0	No	3.134	0.016	n/a	NoResponse	0	n/a	n/a	2	64	Cue	MissedWin	False
606.066	4.15	Win2	0.5538000000000001	0.0	No	3.134	0.0	n/a	NoResponse	0	n/a	n/a	2	64	Fixation	MissedWin	False
610.215	0.5	Win2	0.5538000000000001	0.001	No	3.134	-0.001	n/a	NoResponse	0	n/a	n/a	2	64	Target	MissedWin	False
610.714	0.2	Win2	0.5538000000000001	n/a	No	3.134	n/a	n/a	NoResponse	0	n/a	n/a	2	64	Blank	MissedWin	False
610.914	1.45	Win2	0.5538000000000001	n/a	No	3.134	n/a	5.0	NoResponse	0	0.031	609.945	2	64	Feedback	MissedWin	False
612.364	3.134	Win2	0.5538000000000001	n/a	No	3.134	n/a	n/a	NoResponse	0	0.0	n/a	2	64	ISIslide	MissedWin	False
615.513	0.25	Control	0.5606	0.0	Yes	2.787	0.013	n/a	GoodResponse	0	n/a	n/a	2	65	Cue	Neutral	True
615.763	4.0	Control	0.5606	0.0	Yes	2.787	0.0	n/a	GoodResponse	0	n/a	n/a	2	65	Fixation	Neutral	True
619.761	0.5	Control	0.5606	0.002	Yes	2.787	-0.002	4.0	GoodResponse	0	0.297	619.058	2	65	Target	Neutral	True
620.058	0.3	Control	0.5606	0.002	Yes	2.787	-0.002	4.0	GoodResponse	0	0.297	n/a	2	65	ButtonPress	Neutral	True
620.261	0.2	Control	0.5606	n/a	Yes	2.787	n/a	n/a	GoodResponse	0	n/a	n/a	2	65	Blank	Neutral	True
620.461	1.45	Control	0.5606	n/a	Yes	2.787	n/a	5.0	GoodResponse	0	0.044	619.505	2	65	Feedback	Neutral	True
621.91	2.787	Control	0.5606	n/a	Yes	2.787	n/a	n/a	GoodResponse	0	0.0	n/a	2	65	ISIslide	Neutral	True
624.726	0.25	Win2	0.5672	0.0	Yes	2.774	0.026	n/a	GoodResponse	1	n/a	n/a	3	66	Cue	Win	True
624.976	3.9	Win2	0.5672	0.0	Yes	2.774	0.0	n/a	GoodResponse	1	n/a	n/a	3	66	Fixation	Win	True
628.875	0.5	Win2	0.5672	0.001	Yes	2.774	-0.001	4.0	GoodResponse	1	0.222	628.097	3	66	Target	Win	True
629.097	0.3	Win2	0.5672	0.001	Yes	2.774	-0.001	4.0	GoodResponse	1	0.222	n/a	3	66	ButtonPress	Win	True
629.374	0.2	Win2	0.5672	n/a	Yes	2.774	n/a	n/a	GoodResponse	1	n/a	n/a	3	66	Blank	Win	True
629.574	1.45	Win2	0.5672	n/a	Yes	2.774	n/a	5.0	GoodResponse	1	0.005	628.579	3	66	Feedback	Win	True
631.024	2.774	Win2	0.5672	n/a	Yes	2.774	n/a	n/a	GoodResponse	1	0.0	n/a	3	66	ISIslide	Win	True
633.823	0.25	Control	0.5588000000000001	0.0	No	2.727	0.023	n/a	NoResponse	0	n/a	n/a	3	67	Cue	Neutral	False
634.073	3.95	Control	0.5588000000000001	0.0	No	2.727	0.0	n/a	NoResponse	0	n/a	n/a	3	67	Fixation	Neutral	False
638.021	0.5	Control	0.5588000000000001	0.002	No	2.727	-0.002	n/a	NoResponse	0	n/a	n/a	3	67	Target	Neutral	False
638.521	0.2	Control	0.5588000000000001	n/a	No	2.727	n/a	n/a	NoResponse	0	n/a	n/a	3	67	Blank	Neutral	False
638.721	1.45	Control	0.5588000000000001	n/a	No	2.727	n/a	5.0	NoResponse	0	0.028	637.749	3	67	Feedback	Neutral	False
640.171	2.727	Control	0.5588000000000001	n/a	No	2.727	n/a	n/a	NoResponse	0	0.0	n/a	3	67	ISIslide	Neutral	False
642.92	0.25	Win2	0.5507	0.0	No	3.08	0.02	n/a	NoResponse	0	n/a	n/a	3	68	Cue	MissedWin	False
643.17	4.0	Win2	0.5507	0.0	No	3.08	0.0	n/a	NoResponse	0	n/a	n/a	3	68	Fixation	MissedWin	False
647.168	0.5	Win2	0.5507	0.002	No	3.08	-0.002	n/a	NoResponse	0	n/a	n/a	3	68	Target	MissedWin	False
647.668	0.2	Win2	0.5507	n/a	No	3.08	n/a	n/a	NoResponse	0	n/a	n/a	3	68	Blank	MissedWin	False
647.868	1.45	Win2	0.5507	n/a	No	3.08	n/a	5.0	NoResponse	0	0.005	646.873	3	68	Feedback	MissedWin	False
649.317	3.08	Win2	0.5507	n/a	No	3.08	n/a	n/a	NoResponse	0	0.0	n/a	3	68	ISIslide	MissedWin	False
652.416	0.25	Win2	0.5571	0.0	Yes	3.234	0.016	n/a	GoodResponse	1	n/a	n/a	4	69	Cue	Win	True
652.666	3.95	Win2	0.5571	0.0	Yes	3.234	0.0	n/a	GoodResponse	1	n/a	n/a	4	69	Fixation	Win	True
656.615	0.5	Win2	0.5571	0.001	Yes	3.234	-0.001	4.0	GoodResponse	1	0.313	655.928	4	69	Target	Win	True
656.928	0.3	Win2	0.5571	0.001	Yes	3.234	-0.001	4.0	GoodResponse	1	0.313	n/a	4	69	ButtonPress	Win	True
657.115	0.2	Win2	0.5571	n/a	Yes	3.234	n/a	n/a	GoodResponse	1	n/a	n/a	4	69	Blank	Win	True
657.314	1.45	Win2	0.5571	n/a	Yes	3.234	n/a	5.0	GoodResponse	1	0.02	656.334	4	69	Feedback	Win	True
658.764	3.234	Win2	0.5571	n/a	Yes	3.234	n/a	n/a	GoodResponse	1	0.0	n/a	4	69	ISIslide	Win	True
662.013	0.25	Lose2	0.5634	0.0	Yes	3.037	0.013	n/a	GoodResponse	0	n/a	n/a	4	70	Cue	AvoidedLoss	True
662.263	4.05	Lose2	0.5634	0.0	Yes	3.037	0.0	n/a	GoodResponse	0	n/a	n/a	4	70	Fixation	AvoidedLoss	True
666.311	0.5	Lose2	0.5634	0.002	Yes	3.037	-0.002	4.0	GoodResponse	0	0.299	665.61	4	70	Target	AvoidedLoss	True
666.61	0.3	Lose2	0.5634	0.002	Yes	3.037	-0.002	4.0	GoodResponse	0	0.299	n/a	4	70	ButtonPress	AvoidedLoss	True
666.811	0.2	Lose2	0.5634	n/a	Yes	3.037	n/a	n/a	GoodResponse	0	n/a	n/a	4	70	Blank	AvoidedLoss	True
667.011	1.45	Lose2	0.5634	n/a	Yes	3.037	n/a	5.0	GoodResponse	0	0.03	666.041	4	70	Feedback	AvoidedLoss	True
668.461	3.037	Lose2	0.5634	n/a	Yes	3.037	n/a	n/a	GoodResponse	0	0.0	n/a	4	70	ISIslide	AvoidedLoss	True
671.526	0.25	Win2	0.5556	0.0	No	2.724	0.026	n/a	NoResponse	0	n/a	n/a	4	71	Cue	MissedWin	False
671.776	4.05	Win2	0.5556	0.0	No	2.724	0.0	n/a	NoResponse	0	n/a	n/a	4	71	Fixation	MissedWin	False
675.825	0.5	Win2	0.5556	0.001	No	2.724	-0.001	n/a	NoResponse	0	n/a	n/a	4	71	Target	MissedWin	False
676.324	0.2	Win2	0.5556	n/a	No	2.724	n/a	n/a	NoResponse	0	n/a	n/a	4	71	Blank	MissedWin	False
676.524	1.45	Win2	0.5556	n/a	No	2.724	n/a	5.0	NoResponse	0	0.03	675.554	4	71	Feedback	MissedWin	False
677.974	2.724	Win2	0.5556	n/a	No	2.724	n/a	n/a	NoResponse	0	0.0	n/a	4	71	ISIslide	MissedWin	False
680.723	0.25	Win2	0.5478999999999999	0.0	No	2.777	0.023	n/a	NoResponse	0	n/a	n/a	4	72	Cue	MissedWin	False
680.973	4.1	Win2	0.5478999999999999	0.0	No	2.777	0.0	n/a	NoResponse	0	n/a	n/a	4	72	Fixation	MissedWin	False
685.071	0.5	Win2	0.5478999999999999	0.002	No	2.777	-0.002	n/a	NoResponse	0	n/a	n/a	4	72	Target	MissedWin	False
685.571	0.2	Win2	0.5478999999999999	n/a	No	2.777	n/a	n/a	NoResponse	0	n/a	n/a	4	72	Blank	MissedWin	False
685.771	1.45	Win2	0.5478999999999999	n/a	No	2.777	n/a	5.0	NoResponse	0	0.002	684.773	4	72	Feedback	MissedWin	False
687.221	2.777	Win2	0.5478999999999999	n/a	No	2.777	n/a	n/a	NoResponse	0	0.0	n/a	4	72	ISIslide	MissedWin	False
690.02	0.25	Win2	0.5405	0.0	No	2.68	0.02	n/a	NoResponse	0	n/a	n/a	4	73	Cue	MissedWin	True
690.269	4.0	Win2	0.5405	0.001	No	2.68	-0.001	n/a	NoResponse	0	n/a	n/a	4	73	Fixation	MissedWin	True
694.268	0.5	Win2	0.5405	0.002	No	2.68	-0.002	4.0	NoResponse	0	0.509	693.777	4	73	Target	MissedWin	True
694.768	0.2	Win2	0.5405	n/a	No	2.68	n/a	n/a	NoResponse	0	n/a	n/a	4	73	Blank	MissedWin	True
694.777	0.3	Win2	0.5405	0.002	No	2.68	-0.002	4.0	NoResponse	0	0.509	n/a	4	73	ButtonPress	MissedWin	True
694.968	1.45	Win2	0.5405	n/a	No	2.68	n/a	5.0	NoResponse	0	0.024	693.992	4	73	Feedback	MissedWin	True
696.417	2.68	Win2	0.5405	n/a	No	2.68	n/a	n/a	NoResponse	0	0.0	n/a	4	73	ISIslide	MissedWin	True
699.116	0.25	Lose2	0.5467	0.0	Yes	2.634	0.016	n/a	GoodResponse	0	n/a	n/a	4	74	Cue	AvoidedLoss	True
699.366	4.05	Lose2	0.5467	0.0	Yes	2.634	0.0	n/a	GoodResponse	0	n/a	n/a	4	74	Fixation	AvoidedLoss	True
703.415	0.5	Lose2	0.5467	0.001	Yes	2.634	-0.001	4.0	GoodResponse	0	0.298	702.713	4	74	Target	AvoidedLoss	True
703.713	0.3	Lose2	0.5467	0.001	Yes	2.634	-0.001	4.0	GoodResponse	0	0.298	n/a	4	74	ButtonPress	AvoidedLoss	True
703.915	0.2	Lose2	0.5467	n/a	Yes	2.634	n/a	n/a	GoodResponse	0	n/a	n/a	4	74	Blank	AvoidedLoss	True
704.115	1.45	Lose2	0.5467	n/a	Yes	2.634	n/a	5.0	GoodResponse	0	0.048	703.163	4	74	Feedback	AvoidedLoss	True
705.564	2.634	Lose2	0.5467	n/a	Yes	2.634	n/a	n/a	GoodResponse	0	0.0	n/a	4	74	ISIslide	AvoidedLoss	True
708.213	0.25	Lose2	0.5395	0.0	No	2.937	0.013	n/a	NoResponse	-1	n/a	n/a	3	75	Cue	Loss	False
708.463	3.95	Lose2	0.5395	0.0	No	2.937	0.0	n/a	NoResponse	-1	n/a	n/a	3	75	Fixation	Loss	False
712.412	0.5	Lose2	0.5395	0.001	No	2.937	-0.001	n/a	NoResponse	-1	n/a	n/a	3	75	Target	Loss	False
712.911	0.2	Lose2	0.5395	n/a	No	2.937	n/a	n/a	NoResponse	-1	n/a	n/a	3	75	Blank	Loss	False
713.111	1.45	Lose2	0.5395	n/a	No	2.937	n/a	5.0	NoResponse	-1	0.028	712.139	3	75	Feedback	Loss	False
714.561	2.937	Lose2	0.5395	n/a	No	2.937	n/a	n/a	NoResponse	-1	0.0	n/a	3	75	ISIslide	Loss	False
717.526	0.25	Control	0.5325	0.0	No	3.224	0.026	n/a	NoResponse	0	n/a	n/a	3	76	Cue	Neutral	False
717.776	4.05	Control	0.5325	0.0	No	3.224	0.0	n/a	NoResponse	0	n/a	n/a	3	76	Fixation	Neutral	False
721.825	0.5	Control	0.5325	0.001	No	3.224	-0.001	n/a	NoResponse	0	n/a	n/a	3	76	Target	Neutral	False
722.325	0.2	Control	0.5325	n/a	No	3.224	n/a	n/a	NoResponse	0	n/a	n/a	3	76	Blank	Neutral	False
722.525	1.45	Control	0.5325	n/a	No	3.224	n/a	5.0	NoResponse	0	0.028	721.553	3	76	Feedback	Neutral	False
723.974	3.224	Control	0.5325	n/a	No	3.224	n/a	n/a	NoResponse	0	0.0	n/a	3	76	ISIslide	Neutral	False
727.223	0.25	Lose2	0.5385	0.0	Yes	2.577	0.023	n/a	GoodResponse	0	n/a	n/a	3	77	Cue	AvoidedLoss	True
727.473	3.95	Lose2	0.5385	0.0	Yes	2.577	0.0	n/a	GoodResponse	0	n/a	n/a	3	77	Fixation	AvoidedLoss	True
731.421	0.5	Lose2	0.5385	0.002	Yes	2.577	-0.002	4.0	GoodResponse	0	0.335	730.756	3	77	Target	AvoidedLoss	True
731.756	0.3	Lose2	0.5385	0.002	Yes	2.577	-0.002	4.0	GoodResponse	0	0.335	n/a	3	77	ButtonPress	AvoidedLoss	True
731.921	0.2	Lose2	0.5385	n/a	Yes	2.577	n/a	n/a	GoodResponse	0	n/a	n/a	3	77	Blank	AvoidedLoss	True
732.121	1.45	Lose2	0.5385	n/a	Yes	2.577	n/a	5.0	GoodResponse	0	0.041	731.162	3	77	Feedback	AvoidedLoss	True
733.571	2.577	Lose2	0.5385	n/a	Yes	2.577	n/a	n/a	GoodResponse	0	0.0	n/a	3	77	ISIslide	AvoidedLoss	True
