onset	duration	cue_type	current_mean_accuracy	duration_error	is_hit	isi_adjusted	onset_delay	response	response_type	reward	rt	rt_time	total_reward	trial_number	trial_phase	trial_type	one_press
11.098	0.25	Control	1.0	0.0	Yes	2.952	-0.002	n/a	GoodResponse	0	n/a	n/a	0	0	Cue	Neutral	True
11.349	3.85	Control	1.0	0.0	Yes	2.952	0.001	n/a	GoodResponse	0	n/a	n/a	0	0	Fixation	Neutral	True
15.194	0.4	Control	1.0	0.004	Yes	2.952	-0.004	2.0	GoodResponse	0	0.231	14.425	0	0	Target	Neutral	True
15.425	0.3	Control	1.0	0.004	Yes	2.952	-0.004	2.0	GoodResponse	0	0.231	n/a	0	0	ButtonPress	Neutral	True
15.595	0.3	Control	1.0	n/a	Yes	2.952	n/a	n/a	GoodResponse	0	n/a	n/a	0	0	Blank	Neutral	True
15.896	1.45	Control	1.0	n/a	Yes	2.952	n/a	5.0	GoodResponse	0	0.029	14.925	0	0	Feedback	Neutral	True
17.35	2.952	Control	1.0	n/a	Yes	2.952	n/a	n/a	GoodResponse	0	0.0	n/a	0	0	ISIslide	Neutral	True
20.326	0.25	Lose2	1.0	0.0	Yes	2.774	0.026	n/a	GoodResponse	0	n/a	n/a	0	1	Cue	AvoidedLoss	True
20.576	4.0	Lose2	1.0	0.0	Yes	2.774	0.0	n/a	GoodResponse	0	n/a	n/a	0	1	Fixation	AvoidedLoss	True
24.572	0.39	Lose2	1.0	0.004	Yes	2.774	-0.004	2.0	GoodResponse	0	0.212	23.784	0	1	Target	AvoidedLoss	True
24.784	0.3	Lose2	1.0	0.004	Yes	2.774	-0.004	2.0	GoodResponse	0	0.212	n/a	0	1	ButtonPress	AvoidedLoss	True
24.973	0.31	Lose2	1.0	n/a	Yes	2.774	n/a	n/a	GoodResponse	0	n/a	n/a	0	1	Blank	AvoidedLoss	True
25.274	1.45	Lose2	1.0	n/a	Yes	2.774	n/a	5.0	GoodResponse	0	0.017	24.291	0	1	Feedback	AvoidedLoss	True
26.728	2.774	Lose2	1.0	n/a	Yes	2.774	n/a	n/a	GoodResponse	0	0.0	n/a	0	1	ISIslide	AvoidedLoss	True
29.52	0.25	Control	1.0	0.0	Yes	2.58	0.02	n/a	GoodResponse	0	n/a	n/a	0	2	Cue	Neutral	True
29.771	4.1	Control	1.0	0.0	Yes	2.58	0.001	n/a	GoodResponse	0	n/a	n/a	0	2	Fixation	Neutral	True
33.866	0.38	Control	1.0	0.004	Yes	2.58	-0.004	2.0	GoodResponse	0	0.218	33.084	0	2	Target	Neutral	True
34.084	0.3	Control	1.0	0.004	Yes	2.58	-0.004	2.0	GoodResponse	0	0.218	n/a	0	2	ButtonPress	Neutral	True
34.251	0.32	Control	1.0	n/a	Yes	2.58	n/a	n/a	GoodResponse	0	n/a	n/a	0	2	Blank	Neutral	True
34.568	1.45	Control	1.0	n/a	Yes	2.58	n/a	5.0	GoodResponse	0	0.04	33.608	0	2	Feedback	Neutral	True
36.023	2.58	Control	1.0	n/a	Yes	2.58	n/a	n/a	GoodResponse	0	0.0	n/a	0	2	ISIslide	Neutral	True
38.631	0.25	Win2	1.0	0.0	Yes	2.819	0.031	n/a	GoodResponse	1	n/a	n/a	1	3	Cue	Win	True
38.881	3.95	Win2	1.0	0.0	Yes	2.819	0.0	n/a	GoodResponse	1	n/a	n/a	1	3	Fixation	Win	True
42.843	0.37	Win2	1.0	0.0	Yes	2.819	0.012	2.0	GoodResponse	1	0.21	42.053	1	3	Target	Win	True
43.053	0.3	Win2	1.0	0.0	Yes	2.819	0.012	2.0	GoodResponse	1	0.21	n/a	1	3	ButtonPress	Win	True
43.211	0.33	Win2	1.0	n/a	Yes	2.819	n/a	n/a	GoodResponse	1	n/a	n/a	1	3	Blank	Win	True
43.529	1.45	Win2	1.0	n/a	Yes	2.819	n/a	5.0	GoodResponse	1	0.006	42.535	1	3	Feedback	Win	True
44.983	2.819	Win2	1.0	n/a	Yes	2.819	n/a	n/a	GoodResponse	1	0.0	n/a	1	3	ISIslide	Win	True
47.825	0.25	Win2	1.0	0.0	Yes	3.275	0.025	n/a	GoodResponse	1	n/a	n/a	2	4	Cue	Win	True
48.075	4.0	Win2	1.0	0.001	Yes	3.275	0.0	n/a	GoodResponse	1	n/a	n/a	2	4	Fixation	Win	True
52.071	0.36	Win2	1.0	0.004	Yes	3.275	-0.004	2.0	GoodResponse	1	0.218	51.289	2	4	Target	Win	True
52.289	0.3	Win2	1.0	0.004	Yes	3.275	-0.004	2.0	GoodResponse	1	0.218	n/a	2	4	ButtonPress	Win	True
52.439	0.34	Win2	1.0	n/a	Yes	3.275	n/a	n/a	GoodResponse	1	n/a	n/a	2	4	Blank	Win	True
52.773	1.45	Win2	1.0	n/a	Yes	3.275	n/a	5.0	GoodResponse	1	0.031	51.804	2	4	Feedback	Win	True
54.227	3.275	Win2	1.0	n/a	Yes	3.275	n/a	n/a	GoodResponse	1	0.0	n/a	2	4	ISIslide	Win	True
57.52	0.25	Win2	1.0	0.001	Yes	2.78	0.02	n/a	GoodResponse	1	n/a	n/a	3	5	Cue	Win	True
57.771	4.0	Win2	1.0	0.0	Yes	2.78	0.001	n/a	GoodResponse	1	n/a	n/a	3	5	Fixation	Win	True
61.766	0.35	Win2	1.0	0.004	Yes	2.78	-0.004	2.0	GoodResponse	1	0.223	60.989	3	5	Target	Win	True
61.989	0.3	Win2	1.0	0.004	Yes	2.78	-0.004	2.0	GoodResponse	1	0.223	n/a	3	5	ButtonPress	Win	True
62.118	0.35	Win2	1.0	n/a	Yes	2.78	n/a	n/a	GoodResponse	1	n/a	n/a	3	5	Blank	Win	True
62.469	1.45	Win2	1.0	n/a	Yes	2.78	n/a	5.0	GoodResponse	1	0.041	61.51	3	5	Feedback	Win	True
63.923	2.78	Win2	1.0	n/a	Yes	2.78	n/a	n/a	GoodResponse	1	0.0	n/a	3	5	ISIslide	Win	True
66.731	0.25	Lose2	1.0	0.0	Yes	2.719	0.031	n/a	GoodResponse	0	n/a	n/a	3	6	Cue	AvoidedLoss	True
66.982	3.95	Lose2	1.0	0.0	Yes	2.719	0.001	n/a	GoodResponse	0	n/a	n/a	3	6	Fixation	AvoidedLoss	True
70.927	0.34	Lose2	1.0	0.004	Yes	2.719	-0.004	2.0	GoodResponse	0	0.201	70.128	3	6	Target	AvoidedLoss	True
71.128	0.3	Lose2	1.0	0.004	Yes	2.719	-0.004	2.0	GoodResponse	0	0.201	n/a	3	6	ButtonPress	AvoidedLoss	True
71.278	0.36	Lose2	1.0	n/a	Yes	2.719	n/a	n/a	GoodResponse	0	n/a	n/a	3	6	Blank	AvoidedLoss	True
71.629	1.45	Lose2	1.0	n/a	Yes	2.719	n/a	5.0	GoodResponse	0	0.007	70.636	3	6	Feedback	AvoidedLoss	True
73.084	2.719	Lose2	1.0	n/a	Yes	2.719	n/a	n/a	GoodResponse	0	0.0	n/a	3	6	ISIslide	AvoidedLoss	True
75.825	0.25	Lose2	1.0	0.0	Yes	4.025	0.025	n/a	GoodResponse	0	n/a	n/a	3	7	Cue	AvoidedLoss	True
76.076	4.05	Lose2	1.0	0.0	Yes	4.025	0.001	n/a	GoodResponse	0	n/a	n/a	3	7	Fixation	AvoidedLoss	True
80.121	0.33	Lose2	1.0	0.004	Yes	4.025	-0.004	2.0	GoodResponse	0	0.196	79.317	3	7	Target	AvoidedLoss	True
80.317	0.3	Lose2	1.0	0.004	Yes	4.025	-0.004	2.0	GoodResponse	0	0.196	n/a	3	7	ButtonPress	AvoidedLoss	True
80.456	0.37	Lose2	1.0	n/a	Yes	4.025	n/a	n/a	GoodResponse	0	n/a	n/a	3	7	Blank	AvoidedLoss	True
80.824	1.45	Lose2	1.0	n/a	Yes	4.025	n/a	5.0	GoodResponse	0	0.028	79.852	3	7	Feedback	AvoidedLoss	True
82.278	4.025	Lose2	1.0	n/a	Yes	4.025	n/a	n/a	GoodResponse	0	0.0	n/a	3	7	ISIslide	AvoidedLoss	True
86.323	0.25	Lose2	1.0	0.001	Yes	3.027	0.023	n/a	GoodResponse	0	n/a	n/a	3	8	Cue	AvoidedLoss	True
86.574	3.95	Lose2	1.0	0.0	Yes	3.027	0.001	n/a	GoodResponse	0	n/a	n/a	3	8	Fixation	AvoidedLoss	True
90.519	0.32	Lose2	1.0	0.004	Yes	3.027	-0.004	2.0	GoodResponse	0	0.208	89.727	3	8	Target	AvoidedLoss	True
90.727	0.3	Lose2	1.0	0.004	Yes	3.027	-0.004	2.0	GoodResponse	0	0.208	n/a	3	8	ButtonPress	AvoidedLoss	True
90.854	0.38	Lose2	1.0	n/a	Yes	3.027	n/a	n/a	GoodResponse	0	n/a	n/a	3	8	Blank	AvoidedLoss	True
91.221	1.45	Lose2	1.0	n/a	Yes	3.027	n/a	5.0	GoodResponse	0	0.021	90.242	3	8	Feedback	AvoidedLoss	True
92.676	3.027	Lose2	1.0	n/a	Yes	3.027	n/a	n/a	GoodResponse	0	0.0	n/a	3	8	ISIslide	AvoidedLoss	True
95.718	0.25	Lose2	1.0	0.0	Yes	3.132	0.018	n/a	GoodResponse	0	n/a	n/a	3	9	Cue	AvoidedLoss	True
95.969	3.95	Lose2	1.0	0.0	Yes	3.132	0.001	n/a	GoodResponse	0	n/a	n/a	3	9	Fixation	AvoidedLoss	True
99.914	0.31	Lose2	1.0	0.004	Yes	3.132	-0.004	2.0	GoodResponse	0	0.203	99.117	3	9	Target	AvoidedLoss	True
100.117	0.3	Lose2	1.0	0.004	Yes	3.132	-0.004	2.0	GoodResponse	0	0.203	n/a	3	9	ButtonPress	AvoidedLoss	True
100.232	0.39	Lose2	1.0	n/a	Yes	3.132	n/a	n/a	GoodResponse	0	n/a	n/a	3	9	Blank	AvoidedLoss	True
100.616	1.45	Lose2	1.0	n/a	Yes	3.132	n/a	5.0	GoodResponse	0	0.041	99.657	3	9	Feedback	AvoidedLoss	True
102.071	3.132	Lose2	1.0	n/a	Yes	3.132	n/a	n/a	GoodResponse	0	0.0	n/a	3	9	ISIslide	AvoidedLoss	True
105.23	0.25	Control	1.0	0.0	Yes	3.27	0.03	n/a	GoodResponse	0	n/a	n/a	3	10	Cue	Neutral	True
105.481	4.0	Control	1.0	0.0	Yes	3.27	0.001	n/a	GoodResponse	0	n/a	n/a	3	10	Fixation	Neutral	True
109.476	0.3	Control	1.0	0.004	Yes	3.27	-0.004	2.0	GoodResponse	0	0.234	108.71	3	10	Target	Neutral	True
109.71	0.3	Control	1.0	0.004	Yes	3.27	-0.004	2.0	GoodResponse	0	0.234	n/a	3	10	ButtonPress	Neutral	True
109.777	0.4	Control	1.0	n/a	Yes	3.27	n/a	n/a	GoodResponse	0	n/a	n/a	3	10	Blank	Neutral	True
110.178	1.45	Control	1.0	n/a	Yes	3.27	n/a	5.0	GoodResponse	0	0.04	109.218	3	10	Feedback	Neutral	True
111.633	3.27	Control	1.0	n/a	Yes	3.27	n/a	n/a	GoodResponse	0	0.0	n/a	3	10	ISIslide	Neutral	True
114.926	0.25	Lose2	1.0	0.0	Yes	2.724	0.026	n/a	GoodResponse	0	n/a	n/a	3	11	Cue	AvoidedLoss	True
115.177	4.05	Lose2	1.0	0.0	Yes	2.724	0.001	n/a	GoodResponse	0	n/a	n/a	3	11	Fixation	AvoidedLoss	True
119.222	0.29	Lose2	1.0	0.004	Yes	2.724	-0.004	2.0	GoodResponse	0	0.208	118.43	3	11	Target	AvoidedLoss	True
119.43	0.3	Lose2	1.0	0.004	Yes	2.724	-0.004	2.0	GoodResponse	0	0.208	n/a	3	11	ButtonPress	AvoidedLoss	True
119.523	0.41	Lose2	1.0	n/a	Yes	2.724	n/a	n/a	GoodResponse	0	n/a	n/a	3	11	Blank	AvoidedLoss	True
119.924	1.45	Lose2	1.0	n/a	Yes	2.724	n/a	5.0	GoodResponse	0	0.0	118.924	3	11	Feedback	AvoidedLoss	True
121.378	2.724	Lose2	1.0	n/a	Yes	2.724	n/a	n/a	GoodResponse	0	0.0	n/a	3	11	ISIslide	AvoidedLoss	True
124.12	0.25	Control	1.0	0.0	Yes	2.98	0.02	n/a	GoodResponse	0	n/a	n/a	3	12	Cue	Neutral	True
124.371	3.9	Control	1.0	0.0	Yes	2.98	0.001	n/a	GoodResponse	0	n/a	n/a	3	12	Fixation	Neutral	True
128.266	0.28	Control	1.0	0.004	Yes	2.98	-0.004	2.0	GoodResponse	0	0.213	127.479	3	12	Target	Neutral	True
128.479	0.3	Control	1.0	0.004	Yes	2.98	-0.004	2.0	GoodResponse	0	0.213	n/a	3	12	ButtonPress	Neutral	True
128.55	0.42	Control	1.0	n/a	Yes	2.98	n/a	n/a	GoodResponse	0	n/a	n/a	3	12	Blank	Neutral	True
128.968	1.45	Control	1.0	n/a	Yes	2.98	n/a	5.0	GoodResponse	0	0.03	127.998	3	12	Feedback	Neutral	True
130.422	2.98	Control	1.0	n/a	Yes	2.98	n/a	n/a	GoodResponse	0	0.0	n/a	3	12	ISIslide	Neutral	True
133.415	0.25	Control	1.0	0.0	Yes	2.785	0.015	n/a	GoodResponse	0	n/a	n/a	3	13	Cue	Neutral	True
133.665	4.0	Control	1.0	0.0	Yes	2.785	0.0	n/a	GoodResponse	0	n/a	n/a	3	13	Fixation	Neutral	True
137.661	0.27	Control	1.0	0.004	Yes	2.785	-0.004	2.0	GoodResponse	0	0.212	136.873	3	13	Target	Neutral	True
137.873	0.3	Control	1.0	0.004	Yes	2.785	-0.004	2.0	GoodResponse	0	0.212	n/a	3	13	ButtonPress	Neutral	True
137.945	0.43	Control	1.0	n/a	Yes	2.785	n/a	n/a	GoodResponse	0	n/a	n/a	3	13	Blank	Neutral	True
138.363	1.45	Control	1.0	n/a	Yes	2.785	n/a	5.0	GoodResponse	0	0.001	137.364	3	13	Feedback	Neutral	True
139.817	2.785	Control	1.0	n/a	Yes	2.785	n/a	n/a	GoodResponse	0	0.0	n/a	3	13	ISIslide	Neutral	True
142.625	0.25	Win2	1.0	0.001	Yes	2.675	0.025	n/a	GoodResponse	1	n/a	n/a	4	14	Cue	Win	True
142.876	4.1	Win2	1.0	0.0	Yes	2.675	0.001	n/a	GoodResponse	1	n/a	n/a	4	14	Fixation	Win	True
146.972	0.26	Win2	1.0	0.003	Yes	2.675	-0.003	2.0	GoodResponse	1	0.202	146.174	4	14	Target	Win	True
147.174	0.3	Win2	1.0	0.003	Yes	2.675	-0.003	2.0	GoodResponse	1	0.202	n/a	4	14	ButtonPress	Win	True
147.239	0.44	Win2	1.0	n/a	Yes	2.675	n/a	n/a	GoodResponse	1	n/a	n/a	4	14	Blank	Win	True
147.674	1.45	Win2	1.0	n/a	Yes	2.675	n/a	5.0	GoodResponse	1	0.007	146.681	4	14	Feedback	Win	True
149.128	2.675	Win2	1.0	n/a	Yes	2.675	n/a	n/a	GoodResponse	1	0.0	n/a	4	14	ISIslide	Win	True
151.82	0.25	Control	1.0	0.0	Yes	2.98	0.02	n/a	GoodResponse	0	n/a	n/a	4	15	Cue	Neutral	True
152.07	4.0	Control	1.0	0.0	Yes	2.98	0.0	n/a	GoodResponse	0	n/a	n/a	4	15	Fixation	Neutral	True
156.066	0.25	Control	1.0	0.004	Yes	2.98	-0.004	2.0	GoodResponse	0	0.187	155.253	4	15	Target	Neutral	True
156.253	0.3	Control	1.0	0.004	Yes	2.98	-0.004	2.0	GoodResponse	0	0.187	n/a	4	15	ButtonPress	Neutral	True
156.316	0.45	Control	1.0	n/a	Yes	2.98	n/a	n/a	GoodResponse	0	n/a	n/a	4	15	Blank	Neutral	True
156.768	1.45	Control	1.0	n/a	Yes	2.98	n/a	5.0	GoodResponse	0	0.035	155.803	4	15	Feedback	Neutral	True
158.222	2.98	Control	1.0	n/a	Yes	2.98	n/a	n/a	GoodResponse	0	0.0	n/a	4	15	ISIslide	Neutral	True
161.231	0.25	Win2	0.9412	0.0	No	2.869	0.031	n/a	LatePress	0	n/a	n/a	4	16	Cue	MissedWin	True
161.482	4.0	Win2	0.9412	0.0	No	2.869	0.001	n/a	LatePress	0	n/a	n/a	4	16	Fixation	MissedWin	True
165.477	0.24	Win2	0.9412	0.004	No	2.869	-0.004	2.0	LatePress	0	0.246	164.723	4	16	Target	MissedWin	True
165.723	0.3	Win2	0.9412	0.004	No	2.869	-0.004	2.0	LatePress	0	0.246	n/a	4	16	ButtonPress	MissedWin	True
165.728	0.46	Win2	0.9412	n/a	No	2.869	n/a	n/a	LatePress	0	n/a	n/a	4	16	Blank	MissedWin	True
166.179	1.45	Win2	0.9412	n/a	No	2.869	n/a	5.0	LatePress	0	0.039	165.218	4	16	Feedback	MissedWin	True
167.634	2.869	Win2	0.9412	n/a	No	2.869	n/a	n/a	LatePress	0	0.0	n/a	4	16	ISIslide	MissedWin	True
170.526	0.25	Lose2	0.8889	0.0	No	2.724	0.026	n/a	NoResponse	-1	n/a	n/a	3	17	Cue	Loss	True
170.776	3.95	Lose2	0.8889	0.001	No	2.724	0.0	n/a	NoResponse	-1	n/a	n/a	3	17	Fixation	Loss	True
174.722	0.23	Lose2	0.8889	0.004	No	2.724	-0.004	2.0	NoResponse	-1	0.266	173.988	3	17	Target	Loss	True
174.956	0.47	Lose2	0.8889	n/a	No	2.724	n/a	n/a	NoResponse	-1	n/a	n/a	3	17	Blank	Loss	True
174.988	0.3	Lose2	0.8889	0.004	No	2.724	-0.004	2.0	NoResponse	-1	0.266	n/a	3	17	ButtonPress	Loss	True
175.424	1.45	Lose2	0.8889	n/a	No	2.724	n/a	5.0	NoResponse	-1	0.013	174.437	3	17	Feedback	Loss	True
176.878	2.724	Lose2	0.8889	n/a	No	2.724	n/a	n/a	NoResponse	-1	0.0	n/a	3	17	ISIslide	Loss	True
179.62	0.25	Lose2	0.8946999999999999	0.0	Yes	2.73	0.02	n/a	GoodResponse	0	n/a	n/a	3	18	Cue	AvoidedLoss	True
179.87	4.05	Lose2	0.8946999999999999	0.0	Yes	2.73	0.0	n/a	GoodResponse	0	n/a	n/a	3	18	Fixation	AvoidedLoss	True
183.916	0.22	Lose2	0.8946999999999999	0.004	Yes	2.73	-0.004	2.0	GoodResponse	0	0.187	183.103	3	18	Target	AvoidedLoss	True
184.103	0.3	Lose2	0.8946999999999999	0.004	Yes	2.73	-0.004	2.0	GoodResponse	0	0.187	n/a	3	18	ButtonPress	AvoidedLoss	True
184.15	0.48	Lose2	0.8946999999999999	n/a	Yes	2.73	n/a	n/a	GoodResponse	0	n/a	n/a	3	18	Blank	AvoidedLoss	True
184.618	1.45	Lose2	0.8946999999999999	n/a	Yes	2.73	n/a	5.0	GoodResponse	0	0.038	183.656	3	18	Feedback	AvoidedLoss	True
186.072	2.73	Lose2	0.8946999999999999	n/a	Yes	2.73	n/a	n/a	GoodResponse	0	0.0	n/a	3	18	ISIslide	AvoidedLoss	True
188.831	0.25	Control	0.9	0.0	Yes	2.919	0.031	n/a	GoodResponse	0	n/a	n/a	3	19	Cue	Neutral	True
189.081	3.95	Control	0.9	0.0	Yes	2.919	0.0	n/a	GoodResponse	0	n/a	n/a	3	19	Fixation	Neutral	True
193.043	0.21	Control	0.9	0.0	Yes	2.919	0.012	2.0	GoodResponse	0	0.189	192.232	3	19	Target	Neutral	True
193.232	0.3	Control	0.9	0.0	Yes	2.919	0.012	2.0	GoodResponse	0	0.189	n/a	3	19	ButtonPress	Neutral	True
193.244	0.49	Control	0.9	n/a	Yes	2.919	n/a	n/a	GoodResponse	0	n/a	n/a	3	19	Blank	Neutral	True
193.729	1.45	Control	0.9	n/a	Yes	2.919	n/a	5.0	GoodResponse	0	0.0	192.729	3	19	Feedback	Neutral	True
195.183	2.919	Control	0.9	n/a	Yes	2.919	n/a	n/a	GoodResponse	0	0.0	n/a	3	19	ISIslide	Neutral	True
198.125	0.25	Control	0.9048	0.0	Yes	2.625	0.025	n/a	GoodResponse	0	n/a	n/a	3	20	Cue	Neutral	True
198.376	4.05	Control	0.9048	0.0	Yes	2.625	0.001	n/a	GoodResponse	0	n/a	n/a	3	20	Fixation	Neutral	True
202.421	0.2	Control	0.9048	0.004	Yes	2.625	-0.004	2.0	GoodResponse	0	0.199	201.62	3	20	Target	Neutral	True
202.62	0.3	Control	0.9048	0.004	Yes	2.625	-0.004	2.0	GoodResponse	0	0.199	n/a	3	20	ButtonPress	Neutral	True
202.622	0.5	Control	0.9048	n/a	Yes	2.625	n/a	n/a	GoodResponse	0	n/a	n/a	3	20	Blank	Neutral	True
203.123	1.45	Control	0.9048	n/a	Yes	2.625	n/a	5.0	GoodResponse	0	0.021	202.144	3	20	Feedback	Neutral	True
204.578	2.625	Control	0.9048	n/a	Yes	2.625	n/a	n/a	GoodResponse	0	0.0	n/a	3	20	ISIslide	Neutral	True
207.219	0.25	Control	0.8636	0.0	No	2.781	0.019	n/a	NoResponse	0	n/a	n/a	3	21	Cue	Neutral	True
207.47	4.1	Control	0.8636	0.0	No	2.781	0.001	n/a	NoResponse	0	n/a	n/a	3	21	Fixation	Neutral	True
211.565	0.19	Control	0.8636	0.004	No	2.781	-0.004	2.0	NoResponse	0	0.262	210.827	3	21	Target	Neutral	True
211.766	0.51	Control	0.8636	n/a	No	2.781	n/a	n/a	NoResponse	0	n/a	n/a	3	21	Blank	Neutral	True
211.827	0.3	Control	0.8636	0.004	No	2.781	-0.004	2.0	NoResponse	0	0.262	n/a	3	21	ButtonPress	Neutral	True
212.267	1.45	Control	0.8636	n/a	No	2.781	n/a	5.0	NoResponse	0	0.048	211.315	3	21	Feedback	Neutral	True
213.722	2.781	Control	0.8636	n/a	No	2.781	n/a	n/a	NoResponse	0	0.0	n/a	3	21	ISIslide	Neutral	True
216.53	0.25	Control	0.8261	0.0	No	2.77	0.03	n/a	NoResponse	0	n/a	n/a	3	22	Cue	Neutral	True
216.781	4.0	Control	0.8261	0.0	No	2.77	0.001	n/a	NoResponse	0	n/a	n/a	3	22	Fixation	Neutral	True
220.776	0.18	Control	0.8261	0.004	No	2.77	-0.004	2.0	NoResponse	0	0.235	220.011	3	22	Target	Neutral	True
220.96	0.52	Control	0.8261	n/a	No	2.77	n/a	n/a	NoResponse	0	n/a	n/a	3	22	Blank	Neutral	True
221.011	0.3	Control	0.8261	0.004	No	2.77	-0.004	2.0	NoResponse	0	0.235	n/a	3	22	ButtonPress	Neutral	True
221.478	1.45	Control	0.8261	n/a	No	2.77	n/a	5.0	NoResponse	0	0.008	220.486	3	22	Feedback	Neutral	True
222.933	2.77	Control	0.8261	n/a	No	2.77	n/a	n/a	NoResponse	0	0.0	n/a	3	22	ISIslide	Neutral	True
225.724	0.25	Control	0.7917000000000001	0.001	No	2.776	0.024	n/a	NoResponse	0	n/a	n/a	3	23	Cue	Neutral	True
225.975	3.9	Control	0.7917000000000001	0.0	No	2.776	0.001	n/a	NoResponse	0	n/a	n/a	3	23	Fixation	Neutral	True
229.87	0.17	Control	0.7917000000000001	0.004	No	2.776	-0.004	2.0	NoResponse	0	0.207	229.077	3	23	Target	Neutral	True
230.054	0.53	Control	0.7917000000000001	n/a	No	2.776	n/a	n/a	NoResponse	0	n/a	n/a	3	23	Blank	Neutral	True
230.077	0.3	Control	0.7917000000000001	0.004	No	2.776	-0.004	2.0	NoResponse	0	0.207	n/a	3	23	ButtonPress	Neutral	True
230.572	1.45	Control	0.7917000000000001	n/a	No	2.776	n/a	5.0	NoResponse	0	0.036	229.608	3	23	Feedback	Neutral	True
232.027	2.776	Control	0.7917000000000001	n/a	No	2.776	n/a	n/a	NoResponse	0	0.0	n/a	3	23	ISIslide	Neutral	True
234.818	0.25	Win2	0.76	0.0	No	3.132	0.018	n/a	PrematurePress	0	n/a	n/a	3	24	Cue	MissedWin	True
235.069	3.95	Win2	0.76	0.0	No	3.132	0.001	n/a	PrematurePress	0	n/a	n/a	3	24	Fixation	MissedWin	True
239.014	0.16	Win2	0.76	0.004	No	3.132	-0.004	2.0	PrematurePress	0	0.016	238.03	3	24	Target	MissedWin	True
239.03	0.3	Win2	0.76	0.004	No	3.132	-0.004	2.0	PrematurePress	0	0.016	n/a	3	24	ButtonPress	MissedWin	True
239.181	0.54	Win2	0.76	n/a	No	3.132	n/a	n/a	PrematurePress	0	n/a	n/a	3	24	Blank	MissedWin	True
239.716	1.45	Win2	0.76	n/a	No	3.132	n/a	5.0	PrematurePress	0	0.013	238.729	3	24	Feedback	MissedWin	True
241.171	3.132	Win2	0.76	n/a	No	3.132	n/a	n/a	PrematurePress	0	0.0	n/a	3	24	ISIslide	MissedWin	True
244.33	0.25	Win2	0.7308	0.0	No	3.07	0.03	n/a	NoResponse	0	n/a	n/a	3	25	Cue	MissedWin	True
244.581	4.0	Win2	0.7308	0.0	No	3.07	0.001	n/a	NoResponse	0	n/a	n/a	3	25	Fixation	MissedWin	True
248.576	0.15	Win2	0.7308	0.004	No	3.07	-0.004	2.0	NoResponse	0	0.185	247.761	3	25	Target	MissedWin	True
248.727	0.55	Win2	0.7308	n/a	No	3.07	n/a	n/a	NoResponse	0	n/a	n/a	3	25	Blank	MissedWin	True
248.761	0.3	Win2	0.7308	0.004	No	3.07	-0.004	2.0	NoResponse	0	0.185	n/a	3	25	ButtonPress	MissedWin	True
249.278	1.45	Win2	0.7308	n/a	No	3.07	n/a	5.0	NoResponse	0	0.012	248.29	3	25	Feedback	MissedWin	True
250.733	3.07	Win2	0.7308	n/a	No	3.07	n/a	n/a	NoResponse	0	0.0	n/a	3	25	ISIslide	MissedWin	True
253.825	0.25	Win2	0.7037	0.0	No	2.925	0.025	n/a	NoResponse	0	n/a	n/a	3	26	Cue	MissedWin	False
254.076	3.95	Win2	0.7037	0.0	No	2.925	0.001	2.0	NoResponse	0	3.776	256.852	3	26	Fixation	MissedWin	False
257.852	0.3	Win2	0.7037	0.0	No	2.925	0.001	2.0	NoResponse	0	3.776	n/a	3	26	ButtonPress	MissedWin	False
258.021	0.15	Win2	0.7037	0.004	No	2.925	-0.004	2.0	NoResponse	0	0.306	257.327	3	26	Target	MissedWin	False
258.172	0.55	Win2	0.7037	n/a	No	2.925	n/a	n/a	NoResponse	0	n/a	n/a	3	26	Blank	MissedWin	False
258.327	0.3	Win2	0.7037	0.004	No	2.925	-0.004	2.0	NoResponse	0	0.306	n/a	3	26	ButtonPress	MissedWin	False
258.723	1.45	Win2	0.7037	n/a	No	2.925	n/a	5.0	NoResponse	0	0.03	257.753	3	26	Feedback	MissedWin	False
260.178	2.925	Win2	0.7037	n/a	No	2.925	n/a	n/a	NoResponse	0	0.0	n/a	3	26	ISIslide	MissedWin	False
263.12	0.25	Lose2	0.6786	0.0	No	2.83	0.02	n/a	NoResponse	-1	n/a	n/a	2	27	Cue	Loss	True
263.371	4.05	Lose2	0.6786	0.0	No	2.83	0.001	n/a	NoResponse	-1	n/a	n/a	2	27	Fixation	Loss	True
267.416	0.15	Lose2	0.6786	0.004	No	2.83	-0.004	2.0	NoResponse	-1	0.238	266.654	2	27	Target	Loss	True
267.566	0.55	Lose2	0.6786	n/a	No	2.83	n/a	n/a	NoResponse	-1	n/a	n/a	2	27	Blank	Loss	True
267.654	0.3	Lose2	0.6786	0.004	No	2.83	-0.004	2.0	NoResponse	-1	0.238	n/a	2	27	ButtonPress	Loss	True
268.118	1.45	Lose2	0.6786	n/a	No	2.83	n/a	5.0	NoResponse	-1	0.001	267.119	2	27	Feedback	Loss	True
269.572	2.83	Lose2	0.6786	n/a	No	2.83	n/a	n/a	NoResponse	-1	0.0	n/a	2	27	ISIslide	Loss	True
272.414	0.25	Control	0.6552	0.0	No	2.836	0.014	n/a	NoResponse	0	n/a	n/a	2	28	Cue	Neutral	True
272.665	4.05	Control	0.6552	0.0	No	2.836	0.001	n/a	NoResponse	0	n/a	n/a	2	28	Fixation	Neutral	True
276.711	0.15	Control	0.6552	0.003	No	2.836	-0.003	2.0	NoResponse	0	0.207	275.918	2	28	Target	Neutral	True
276.861	0.55	Control	0.6552	n/a	No	2.836	n/a	n/a	NoResponse	0	n/a	n/a	2	28	Blank	Neutral	True
276.918	0.3	Control	0.6552	0.003	No	2.836	-0.003	2.0	NoResponse	0	0.207	n/a	2	28	ButtonPress	Neutral	True
277.413	1.45	Control	0.6552	n/a	No	2.836	n/a	5.0	NoResponse	0	0.023	276.436	2	28	Feedback	Neutral	True
278.867	2.836	Control	0.6552	n/a	No	2.836	n/a	n/a	NoResponse	0	0.0	n/a	2	28	ISIslide	Neutral	True
281.726	0.25	Lose2	0.6333	0.0	No	2.824	0.026	n/a	NoResponse	-1	n/a	n/a	1	29	Cue	Loss	True
281.976	3.95	Lose2	0.6333	0.0	No	2.824	0.0	n/a	NoResponse	-1	n/a	n/a	1	29	Fixation	Loss	True
285.938	0.15	Lose2	0.6333	0.0	No	2.824	0.012	2.0	NoResponse	-1	0.238	285.176	1	29	Target	Loss	True
286.072	0.55	Lose2	0.6333	n/a	No	2.824	n/a	n/a	NoResponse	-1	n/a	n/a	1	29	Blank	Loss	True
286.176	0.3	Lose2	0.6333	0.0	No	2.824	0.012	2.0	NoResponse	-1	0.238	n/a	1	29	ButtonPress	Loss	True
286.624	1.45	Lose2	0.6333	n/a	No	2.824	n/a	5.0	NoResponse	-1	0.032	285.656	1	29	Feedback	Loss	True
288.078	2.824	Lose2	0.6333	n/a	No	2.824	n/a	n/a	NoResponse	-1	0.0	n/a	1	29	ISIslide	Loss	True
290.92	0.25	Win2	0.6129	0.0	No	2.78	0.02	n/a	NoResponse	0	n/a	n/a	1	30	Cue	MissedWin	True
291.171	3.9	Win2	0.6129	0.0	No	2.78	0.001	n/a	NoResponse	0	n/a	n/a	1	30	Fixation	MissedWin	True
295.066	0.16	Win2	0.6129	0.004	No	2.78	-0.004	2.0	NoResponse	0	0.192	294.258	1	30	Target	MissedWin	True
295.233	0.54	Win2	0.6129	n/a	No	2.78	n/a	n/a	NoResponse	0	n/a	n/a	1	30	Blank	MissedWin	True
295.258	0.3	Win2	0.6129	0.004	No	2.78	-0.004	2.0	NoResponse	0	0.192	n/a	1	30	ButtonPress	MissedWin	True
295.768	1.45	Win2	0.6129	n/a	No	2.78	n/a	5.0	NoResponse	0	0.01	294.778	1	30	Feedback	MissedWin	True
297.222	2.78	Win2	0.6129	n/a	No	2.78	n/a	n/a	NoResponse	0	0.0	n/a	1	30	ISIslide	MissedWin	True
300.03	0.25	Lose2	0.5938	0.0	No	2.82	0.03	n/a	NoResponse	-1	n/a	n/a	0	31	Cue	Loss	True
300.281	4.05	Lose2	0.5938	0.0	No	2.82	0.001	n/a	NoResponse	-1	n/a	n/a	0	31	Fixation	Loss	True
304.327	0.17	Lose2	0.5938	0.003	No	2.82	-0.003	2.0	NoResponse	-1	0.194	303.521	0	31	Target	Loss	True
304.511	0.53	Lose2	0.5938	n/a	No	2.82	n/a	n/a	NoResponse	-1	n/a	n/a	0	31	Blank	Loss	True
304.521	0.3	Lose2	0.5938	0.003	No	2.82	-0.003	2.0	NoResponse	-1	0.194	n/a	0	31	ButtonPress	Loss	True
305.029	1.45	Lose2	0.5938	n/a	No	2.82	n/a	5.0	NoResponse	-1	0.016	304.045	0	31	Feedback	Loss	True
306.483	2.82	Lose2	0.5938	n/a	No	2.82	n/a	n/a	NoResponse	-1	0.0	n/a	0	31	ISIslide	Loss	True
309.325	0.25	Lose2	0.5758	0.0	No	2.625	0.025	n/a	NoResponse	-1	n/a	n/a	-1	32	Cue	Loss	True
309.576	4.15	Lose2	0.5758	0.0	No	2.625	0.001	n/a	NoResponse	-1	n/a	n/a	-1	32	Fixation	Loss	True
313.721	0.18	Lose2	0.5758	0.004	No	2.625	-0.004	2.0	NoResponse	-1	0.211	312.932	-1	32	Target	Loss	True
313.905	0.52	Lose2	0.5758	n/a	No	2.625	n/a	n/a	NoResponse	-1	n/a	n/a	-1	32	Blank	Loss	True
313.932	0.3	Lose2	0.5758	0.004	No	2.625	-0.004	2.0	NoResponse	-1	0.211	n/a	-1	32	ButtonPress	Loss	True
314.424	1.45	Lose2	0.5758	n/a	No	2.625	n/a	5.0	NoResponse	-1	0.036	313.46	-1	32	Feedback	Loss	True
315.878	2.625	Lose2	0.5758	n/a	No	2.625	n/a	n/a	NoResponse	-1	0.0	n/a	-1	32	ISIslide	Loss	True
318.519	0.25	Win2	0.5588000000000001	0.0	No	2.681	0.019	n/a	NoResponse	0	n/a	n/a	-1	33	Cue	MissedWin	True
318.77	4.0	Win2	0.5588000000000001	0.0	No	2.681	0.001	n/a	NoResponse	0	n/a	n/a	-1	33	Fixation	MissedWin	True
322.765	0.19	Win2	0.5588000000000001	0.004	No	2.681	-0.004	2.0	NoResponse	0	0.212	321.977	-1	33	Target	MissedWin	True
322.966	0.51	Win2	0.5588000000000001	n/a	No	2.681	n/a	n/a	NoResponse	0	n/a	n/a	-1	33	Blank	MissedWin	True
322.977	0.3	Win2	0.5588000000000001	0.004	No	2.681	-0.004	2.0	NoResponse	0	0.212	n/a	-1	33	ButtonPress	MissedWin	True
323.467	1.45	Win2	0.5588000000000001	n/a	No	2.681	n/a	5.0	NoResponse	0	0.018	322.485	-1	33	Feedback	MissedWin	True
324.922	2.681	Win2	0.5588000000000001	n/a	No	2.681	n/a	n/a	NoResponse	0	0.0	n/a	-1	33	ISIslide	MissedWin	True
327.63	0.25	Lose2	0.5428999999999999	0.0	No	2.62	0.03	n/a	NoResponse	-1	n/a	n/a	-2	34	Cue	Loss	True
327.881	4.05	Lose2	0.5428999999999999	0.0	No	2.62	0.001	n/a	NoResponse	-1	n/a	n/a	-2	34	Fixation	Loss	True
331.926	0.2	Lose2	0.5428999999999999	0.004	No	2.62	-0.004	2.0	NoResponse	-1	0.212	331.138	-2	34	Target	Loss	True
332.127	0.5	Lose2	0.5428999999999999	n/a	No	2.62	n/a	n/a	NoResponse	-1	n/a	n/a	-2	34	Blank	Loss	True
332.138	0.3	Lose2	0.5428999999999999	0.004	No	2.62	-0.004	2.0	NoResponse	-1	0.212	n/a	-2	34	ButtonPress	Loss	True
332.628	1.45	Lose2	0.5428999999999999	n/a	No	2.62	n/a	5.0	NoResponse	-1	0.028	331.656	-2	34	Feedback	Loss	True
334.082	2.62	Lose2	0.5428999999999999	n/a	No	2.62	n/a	n/a	NoResponse	-1	0.0	n/a	-2	34	ISIslide	Loss	True
336.724	0.25	Lose2	0.5556	0.0	Yes	2.676	0.024	n/a	GoodResponse	0	n/a	n/a	-2	35	Cue	AvoidedLoss	True
336.974	4.0	Lose2	0.5556	0.001	Yes	2.676	0.0	n/a	GoodResponse	0	n/a	n/a	-2	35	Fixation	AvoidedLoss	True
340.97	0.21	Lose2	0.5556	0.004	Yes	2.676	-0.004	2.0	GoodResponse	0	0.201	340.171	-2	35	Target	AvoidedLoss	True
341.171	0.3	Lose2	0.5556	0.004	Yes	2.676	-0.004	2.0	GoodResponse	0	0.201	n/a	-2	35	ButtonPress	AvoidedLoss	True
341.187	0.49	Lose2	0.5556	n/a	Yes	2.676	n/a	n/a	GoodResponse	0	n/a	n/a	-2	35	Blank	AvoidedLoss	True
341.672	1.45	Lose2	0.5556	n/a	Yes	2.676	n/a	5.0	GoodResponse	0	0.008	340.68	-2	35	Feedback	AvoidedLoss	True
343.126	2.676	Lose2	0.5556	n/a	Yes	2.676	n/a	n/a	GoodResponse	0	0.0	n/a	-2	35	ISIslide	AvoidedLoss	True
345.818	0.25	Control	0.5676	0.0	Yes	2.682	0.018	n/a	GoodResponse	0	n/a	n/a	-2	36	Cue	Neutral	True
346.068	4.0	Control	0.5676	0.0	Yes	2.682	0.0	n/a	GoodResponse	0	n/a	n/a	-2	36	Fixation	Neutral	True
350.064	0.22	Control	0.5676	0.004	Yes	2.682	-0.004	2.0	GoodResponse	0	0.201	349.265	-2	36	Target	Neutral	True
350.265	0.3	Control	0.5676	0.004	Yes	2.682	-0.004	2.0	GoodResponse	0	0.201	n/a	-2	36	ButtonPress	Neutral	True
350.298	0.48	Control	0.5676	n/a	Yes	2.682	n/a	n/a	GoodResponse	0	n/a	n/a	-2	36	Blank	Neutral	True
350.766	1.45	Control	0.5676	n/a	Yes	2.682	n/a	5.0	GoodResponse	0	0.036	349.802	-2	36	Feedback	Neutral	True
352.22	2.682	Control	0.5676	n/a	Yes	2.682	n/a	n/a	GoodResponse	0	0.0	n/a	-2	36	ISIslide	Neutral	True
354.928	0.25	Win2	0.5526	0.0	No	2.872	0.028	n/a	NoResponse	0	n/a	n/a	-2	37	Cue	MissedWin	True
355.179	4.0	Win2	0.5526	0.0	No	2.872	0.001	2.0	NoResponse	0	3.794	357.973	-2	37	Fixation	MissedWin	True
358.973	0.3	Win2	0.5526	0.0	No	2.872	0.001	2.0	NoResponse	0	3.794	n/a	-2	37	ButtonPress	MissedWin	True
359.174	0.23	Win2	0.5526	0.004	No	2.872	-0.004	n/a	NoResponse	0	n/a	n/a	-2	37	Target	MissedWin	True
359.408	0.47	Win2	0.5526	n/a	No	2.872	n/a	n/a	NoResponse	0	n/a	n/a	-2	37	Blank	MissedWin	True
359.876	1.45	Win2	0.5526	n/a	No	2.872	n/a	5.0	NoResponse	0	0.047	358.923	-2	37	Feedback	MissedWin	True
361.331	2.872	Win2	0.5526	n/a	No	2.872	n/a	n/a	NoResponse	0	0.0	n/a	-2	37	ISIslide	MissedWin	True
364.223	0.25	Lose2	0.5640999999999999	0.0	Yes	2.827	0.023	n/a	GoodResponse	0	n/a	n/a	-2	38	Cue	AvoidedLoss	True
364.474	3.95	Lose2	0.5640999999999999	0.0	Yes	2.827	0.001	n/a	GoodResponse	0	n/a	n/a	-2	38	Fixation	AvoidedLoss	True
368.419	0.24	Lose2	0.5640999999999999	0.004	Yes	2.827	-0.004	2.0	GoodResponse	0	0.224	367.643	-2	38	Target	AvoidedLoss	True
368.643	0.3	Lose2	0.5640999999999999	0.004	Yes	2.827	-0.004	2.0	GoodResponse	0	0.224	n/a	-2	38	ButtonPress	AvoidedLoss	True
368.669	0.46	Lose2	0.5640999999999999	n/a	Yes	2.827	n/a	n/a	GoodResponse	0	n/a	n/a	-2	38	Blank	AvoidedLoss	True
369.121	1.45	Lose2	0.5640999999999999	n/a	Yes	2.827	n/a	5.0	GoodResponse	0	0.022	368.143	-2	38	Feedback	AvoidedLoss	True
370.575	2.827	Lose2	0.5640999999999999	n/a	Yes	2.827	n/a	n/a	GoodResponse	0	0.0	n/a	-2	38	ISIslide	AvoidedLoss	True
373.417	0.25	Win2	0.575	0.0	Yes	2.983	0.017	n/a	GoodResponse	1	n/a	n/a	-1	39	Cue	Win	True
373.668	4.1	Win2	0.575	0.0	Yes	2.983	0.001	n/a	GoodResponse	1	n/a	n/a	-1	39	Fixation	Win	True
377.763	0.25	Win2	0.575	0.004	Yes	2.983	-0.004	2.0	GoodResponse	1	0.213	376.976	-1	39	Target	Win	True
377.976	0.3	Win2	0.575	0.004	Yes	2.983	-0.004	2.0	GoodResponse	1	0.213	n/a	-1	39	ButtonPress	Win	True
378.014	0.45	Win2	0.575	n/a	Yes	2.983	n/a	n/a	GoodResponse	1	n/a	n/a	-1	39	Blank	Win	True
378.465	1.45	Win2	0.575	n/a	Yes	2.983	n/a	5.0	GoodResponse	1	0.044	377.509	-1	39	Feedback	Win	True
379.92	2.983	Win2	0.575	n/a	Yes	2.983	n/a	n/a	GoodResponse	1	0.0	n/a	-1	39	ISIslide	Win	True
382.929	0.25	Win2	0.5854	0.0	Yes	2.721	0.029	n/a	GoodResponse	1	n/a	n/a	0	40	Cue	Win	True
383.18	3.95	Win2	0.5854	0.0	Yes	2.721	0.001	n/a	GoodResponse	1	n/a	n/a	0	40	Fixation	Win	True
387.125	0.26	Win2	0.5854	0.004	Yes	2.721	-0.004	2.0	GoodResponse	1	0.256	386.381	0	40	Target	Win	True
387.381	0.3	Win2	0.5854	0.004	Yes	2.721	-0.004	2.0	GoodResponse	1	0.256	n/a	0	40	ButtonPress	Win	True
387.392	0.44	Win2	0.5854	n/a	Yes	2.721	n/a	n/a	GoodResponse	1	n/a	n/a	0	40	Blank	Win	True
387.827	1.45	Win2	0.5854	n/a	Yes	2.721	n/a	5.0	GoodResponse	1	0.048	386.875	0	40	Feedback	Win	True
389.281	2.721	Win2	0.5854	n/a	Yes	2.721	n/a	n/a	GoodResponse	1	0.0	n/a	0	40	ISIslide	Win	True
392.023	0.25	Win2	0.5952000000000001	0.0	Yes	2.777	0.023	n/a	GoodResponse	1	n/a	n/a	1	41	Cue	Win	True
392.273	3.9	Win2	0.5952000000000001	0.001	Yes	2.777	0.0	n/a	GoodResponse	1	n/a	n/a	1	41	Fixation	Win	True
396.185	0.27	Win2	0.5952000000000001	0.0	Yes	2.777	0.012	2.0	GoodResponse	1	0.217	395.402	1	41	Target	Win	True
396.402	0.3	Win2	0.5952000000000001	0.0	Yes	2.777	0.012	2.0	GoodResponse	1	0.217	n/a	1	41	ButtonPress	Win	True
396.453	0.43	Win2	0.5952000000000001	n/a	Yes	2.777	n/a	n/a	GoodResponse	1	n/a	n/a	1	41	Blank	Win	True
396.871	1.45	Win2	0.5952000000000001	n/a	Yes	2.777	n/a	5.0	GoodResponse	1	0.028	395.899	1	41	Feedback	Win	True
398.325	2.777	Win2	0.5952000000000001	n/a	Yes	2.777	n/a	n/a	GoodResponse	1	0.0	n/a	1	41	ISIslide	Win	True
401.117	0.25	Control	0.6047	0.0	Yes	2.933	0.017	n/a	GoodResponse	0	n/a	n/a	1	42	Cue	Neutral	True
401.367	3.85	Control	0.6047	0.0	Yes	2.933	0.0	n/a	GoodResponse	0	n/a	n/a	1	42	Fixation	Neutral	True
405.229	0.28	Control	0.6047	0.0	Yes	2.933	0.012	2.0	GoodResponse	0	0.232	404.461	1	42	Target	Neutral	True
405.461	0.3	Control	0.6047	0.0	Yes	2.933	0.012	2.0	GoodResponse	0	0.232	n/a	1	42	ButtonPress	Neutral	True
405.496	0.42	Control	0.6047	n/a	Yes	2.933	n/a	n/a	GoodResponse	0	n/a	n/a	1	42	Blank	Neutral	True
405.914	1.45	Control	0.6047	n/a	Yes	2.933	n/a	5.0	GoodResponse	0	0.01	404.924	1	42	Feedback	Neutral	True
407.369	2.933	Control	0.6047	n/a	Yes	2.933	n/a	n/a	GoodResponse	0	0.0	n/a	1	42	ISIslide	Neutral	True
410.328	0.25	Win2	0.6136	0.0	Yes	3.172	0.028	n/a	GoodResponse	1	n/a	n/a	2	43	Cue	Win	True
410.578	4.0	Win2	0.6136	0.0	Yes	3.172	0.0	n/a	GoodResponse	1	n/a	n/a	2	43	Fixation	Win	True
414.574	0.29	Win2	0.6136	0.004	Yes	3.172	-0.004	2.0	GoodResponse	1	0.24	413.814	2	43	Target	Win	True
414.814	0.3	Win2	0.6136	0.004	Yes	3.172	-0.004	2.0	GoodResponse	1	0.24	n/a	2	43	ButtonPress	Win	True
414.875	0.41	Win2	0.6136	n/a	Yes	3.172	n/a	n/a	GoodResponse	1	n/a	n/a	2	43	Blank	Win	True
415.276	1.45	Win2	0.6136	n/a	Yes	3.172	n/a	5.0	GoodResponse	1	0.014	414.29	2	43	Feedback	Win	True
416.73	3.172	Win2	0.6136	n/a	Yes	3.172	n/a	n/a	GoodResponse	1	0.0	n/a	2	43	ISIslide	Win	True
419.923	0.25	Win2	0.6222	0.0	Yes	2.977	0.023	n/a	GoodResponse	1	n/a	n/a	3	44	Cue	Win	True
420.174	4.0	Win2	0.6222	0.0	Yes	2.977	0.001	n/a	GoodResponse	1	n/a	n/a	3	44	Fixation	Win	True
424.169	0.3	Win2	0.6222	0.004	Yes	2.977	-0.004	2.0	GoodResponse	1	0.225	423.394	3	44	Target	Win	True
424.394	0.3	Win2	0.6222	0.004	Yes	2.977	-0.004	2.0	GoodResponse	1	0.225	n/a	3	44	ButtonPress	Win	True
424.47	0.4	Win2	0.6222	n/a	Yes	2.977	n/a	n/a	GoodResponse	1	n/a	n/a	3	44	Blank	Win	True
424.871	1.45	Win2	0.6222	n/a	Yes	2.977	n/a	5.0	GoodResponse	1	0.027	423.898	3	44	Feedback	Win	True
426.326	2.977	Win2	0.6222	n/a	Yes	2.977	n/a	n/a	GoodResponse	1	0.0	n/a	3	44	ISIslide	Win	True
429.318	0.25	Control	0.6304	0.0	Yes	2.882	0.018	n/a	GoodResponse	0	n/a	n/a	3	45	Cue	Neutral	True
429.569	4.1	Control	0.6304	0.0	Yes	2.882	0.001	n/a	GoodResponse	0	n/a	n/a	3	45	Fixation	Neutral	True
433.664	0.31	Control	0.6304	0.004	Yes	2.882	-0.004	2.0	GoodResponse	0	0.292	432.956	3	45	Target	Neutral	True
433.956	0.3	Control	0.6304	0.004	Yes	2.882	-0.004	2.0	GoodResponse	0	0.292	n/a	3	45	ButtonPress	Neutral	True
433.982	0.39	Control	0.6304	n/a	Yes	2.882	n/a	n/a	GoodResponse	0	n/a	n/a	3	45	Blank	Neutral	True
434.366	1.45	Control	0.6304	n/a	Yes	2.882	n/a	5.0	GoodResponse	0	0.045	433.411	3	45	Feedback	Neutral	True
435.821	2.882	Control	0.6304	n/a	Yes	2.882	n/a	n/a	GoodResponse	0	0.0	n/a	3	45	ISIslide	Neutral	True
438.729	0.25	Lose2	0.6383	0.0	Yes	3.371	0.029	n/a	GoodResponse	0	n/a	n/a	3	46	Cue	AvoidedLoss	True
438.98	4.0	Lose2	0.6383	0.0	Yes	3.371	0.001	n/a	GoodResponse	0	n/a	n/a	3	46	Fixation	AvoidedLoss	True
442.975	0.32	Lose2	0.6383	0.004	Yes	3.371	-0.004	2.0	GoodResponse	0	0.204	442.179	3	46	Target	AvoidedLoss	True
443.179	0.3	Lose2	0.6383	0.004	Yes	3.371	-0.004	2.0	GoodResponse	0	0.204	n/a	3	46	ButtonPress	AvoidedLoss	True
443.31	0.38	Lose2	0.6383	n/a	Yes	3.371	n/a	n/a	GoodResponse	0	n/a	n/a	3	46	Blank	AvoidedLoss	True
443.678	1.45	Lose2	0.6383	n/a	Yes	3.371	n/a	5.0	GoodResponse	0	0.001	442.679	3	46	Feedback	AvoidedLoss	True
445.132	3.371	Lose2	0.6383	n/a	Yes	3.371	n/a	n/a	GoodResponse	0	0.0	n/a	3	46	ISIslide	AvoidedLoss	True
448.525	0.25	Lose2	0.6457999999999999	0.0	Yes	2.675	0.025	n/a	GoodResponse	0	n/a	n/a	3	47	Cue	AvoidedLoss	True
448.776	4.0	Lose2	0.6457999999999999	0.0	Yes	2.675	0.001	n/a	GoodResponse	0	n/a	n/a	3	47	Fixation	AvoidedLoss	True
452.771	0.33	Lose2	0.6457999999999999	0.004	Yes	2.675	-0.004	2.0	GoodResponse	0	0.219	451.99	3	47	Target	AvoidedLoss	True
452.99	0.3	Lose2	0.6457999999999999	0.004	Yes	2.675	-0.004	2.0	GoodResponse	0	0.219	n/a	3	47	ButtonPress	AvoidedLoss	True
453.106	0.37	Lose2	0.6457999999999999	n/a	Yes	2.675	n/a	n/a	GoodResponse	0	n/a	n/a	3	47	Blank	AvoidedLoss	True
453.474	1.45	Lose2	0.6457999999999999	n/a	Yes	2.675	n/a	5.0	GoodResponse	0	0.01	452.484	3	47	Feedback	AvoidedLoss	True
454.928	2.675	Lose2	0.6457999999999999	n/a	Yes	2.675	n/a	n/a	GoodResponse	0	0.0	n/a	3	47	ISIslide	AvoidedLoss	True
457.619	0.25	Lose2	0.6531	0.0	Yes	3.031	0.019	n/a	GoodResponse	0	n/a	n/a	3	48	Cue	AvoidedLoss	True
457.87	3.95	Lose2	0.6531	0.0	Yes	3.031	0.001	n/a	GoodResponse	0	n/a	n/a	3	48	Fixation	AvoidedLoss	True
461.815	0.34	Lose2	0.6531	0.004	Yes	3.031	-0.004	2.0	GoodResponse	0	0.225	461.04	3	48	Target	AvoidedLoss	True
462.04	0.3	Lose2	0.6531	0.004	Yes	3.031	-0.004	2.0	GoodResponse	0	0.225	n/a	3	48	ButtonPress	AvoidedLoss	True
462.166	0.36	Lose2	0.6531	n/a	Yes	3.031	n/a	n/a	GoodResponse	0	n/a	n/a	3	48	Blank	AvoidedLoss	True
462.517	1.45	Lose2	0.6531	n/a	Yes	3.031	n/a	5.0	GoodResponse	0	0.04	461.557	3	48	Feedback	AvoidedLoss	True
463.972	3.031	Lose2	0.6531	n/a	Yes	3.031	n/a	n/a	GoodResponse	0	0.0	n/a	3	48	ISIslide	AvoidedLoss	True
467.014	0.25	Control	0.66	0.0	Yes	2.886	0.014	n/a	GoodResponse	0	n/a	n/a	3	49	Cue	Neutral	True
467.265	4.0	Control	0.66	0.0	Yes	2.886	0.001	n/a	GoodResponse	0	n/a	n/a	3	49	Fixation	Neutral	True
471.26	0.35	Control	0.66	0.004	Yes	2.886	-0.004	2.0	GoodResponse	0	0.186	470.446	3	49	Target	Neutral	True
471.446	0.3	Control	0.66	0.004	Yes	2.886	-0.004	2.0	GoodResponse	0	0.186	n/a	3	49	ButtonPress	Neutral	True
471.611	0.35	Control	0.66	n/a	Yes	2.886	n/a	n/a	GoodResponse	0	n/a	n/a	3	49	Blank	Neutral	True
471.962	1.45	Control	0.66	n/a	Yes	2.886	n/a	5.0	GoodResponse	0	0.01	470.972	3	49	Feedback	Neutral	True
473.417	2.886	Control	0.66	n/a	Yes	2.886	n/a	n/a	GoodResponse	0	0.0	n/a	3	49	ISIslide	Neutral	True
476.325	0.25	Control	0.6667000000000001	0.0	Yes	2.775	0.025	n/a	GoodResponse	0	n/a	n/a	3	50	Cue	Neutral	True
476.576	4.0	Control	0.6667000000000001	0.0	Yes	2.775	0.001	n/a	GoodResponse	0	n/a	n/a	3	50	Fixation	Neutral	True
480.571	0.35	Control	0.6667000000000001	0.004	Yes	2.775	-0.004	2.0	GoodResponse	0	0.195	479.766	3	50	Target	Neutral	True
480.766	0.3	Control	0.6667000000000001	0.004	Yes	2.775	-0.004	2.0	GoodResponse	0	0.195	n/a	3	50	ButtonPress	Neutral	True
480.922	0.35	Control	0.6667000000000001	n/a	Yes	2.775	n/a	n/a	GoodResponse	0	n/a	n/a	3	50	Blank	Neutral	True
481.274	1.45	Control	0.6667000000000001	n/a	Yes	2.775	n/a	5.0	GoodResponse	0	0.014	480.288	3	50	Feedback	Neutral	True
482.728	2.775	Control	0.6667000000000001	n/a	Yes	2.775	n/a	n/a	GoodResponse	0	0.0	n/a	3	50	ISIslide	Neutral	True
485.52	0.25	Control	0.6731	0.0	Yes	2.73	0.02	n/a	GoodResponse	0	n/a	n/a	3	51	Cue	Neutral	True
485.77	3.95	Control	0.6731	0.0	Yes	2.73	0.0	n/a	GoodResponse	0	n/a	n/a	3	51	Fixation	Neutral	True
489.732	0.34	Control	0.6731	0.0	Yes	2.73	0.012	2.0	GoodResponse	0	0.183	488.915	3	51	Target	Neutral	True
489.915	0.3	Control	0.6731	0.0	Yes	2.73	0.012	2.0	GoodResponse	0	0.183	n/a	3	51	ButtonPress	Neutral	True
490.067	0.36	Control	0.6731	n/a	Yes	2.73	n/a	n/a	GoodResponse	0	n/a	n/a	3	51	Blank	Neutral	True
490.418	1.45	Control	0.6731	n/a	Yes	2.73	n/a	5.0	GoodResponse	0	0.041	489.459	3	51	Feedback	Neutral	True
491.872	2.73	Control	0.6731	n/a	Yes	2.73	n/a	n/a	GoodResponse	0	0.0	n/a	3	51	ISIslide	Neutral	True
494.63	0.25	Control	0.6792	0.0	Yes	2.62	0.03	n/a	GoodResponse	0	n/a	n/a	3	52	Cue	Neutral	True
494.881	4.05	Control	0.6792	0.0	Yes	2.62	0.001	n/a	GoodResponse	0	n/a	n/a	3	52	Fixation	Neutral	True
498.926	0.33	Control	0.6792	0.004	Yes	2.62	-0.004	2.0	GoodResponse	0	0.228	498.154	3	52	Target	Neutral	True
499.154	0.3	Control	0.6792	0.004	Yes	2.62	-0.004	2.0	GoodResponse	0	0.228	n/a	3	52	ButtonPress	Neutral	True
499.261	0.37	Control	0.6792	n/a	Yes	2.62	n/a	n/a	GoodResponse	0	n/a	n/a	3	52	Blank	Neutral	True
499.628	1.45	Control	0.6792	n/a	Yes	2.62	n/a	5.0	GoodResponse	0	0.002	498.63	3	52	Feedback	Neutral	True
501.083	2.62	Control	0.6792	n/a	Yes	2.62	n/a	n/a	GoodResponse	0	0.0	n/a	3	52	ISIslide	Neutral	True
503.724	0.25	Win2	0.6851999999999999	0.0	Yes	2.926	0.024	n/a	GoodResponse	1	n/a	n/a	4	53	Cue	Win	True
503.975	4.05	Win2	0.6851999999999999	0.0	Yes	2.926	0.001	n/a	GoodResponse	1	n/a	n/a	4	53	Fixation	Win	True
508.02	0.32	Win2	0.6851999999999999	0.004	Yes	2.926	-0.004	2.0	GoodResponse	1	0.238	507.258	4	53	Target	Win	True
508.258	0.3	Win2	0.6851999999999999	0.004	Yes	2.926	-0.004	2.0	GoodResponse	1	0.238	n/a	4	53	ButtonPress	Win	True
508.355	0.38	Win2	0.6851999999999999	n/a	Yes	2.926	n/a	n/a	GoodResponse	1	n/a	n/a	4	53	Blank	Win	True
508.722	1.45	Win2	0.6851999999999999	n/a	Yes	2.926	n/a	5.0	GoodResponse	1	0.03	507.752	4	53	Feedback	Win	True
510.177	2.926	Win2	0.6851999999999999	n/a	Yes	2.926	n/a	n/a	GoodResponse	1	0.0	n/a	4	53	ISIslide	Win	True
513.119	0.25	Win2	0.6909000000000001	0.0	Yes	2.731	0.019	n/a	GoodResponse	1	n/a	n/a	5	54	Cue	Win	True
513.37	3.95	Win2	0.6909000000000001	0.0	Yes	2.731	0.001	n/a	GoodResponse	1	n/a	n/a	5	54	Fixation	Win	True
517.315	0.31	Win2	0.6909000000000001	0.004	Yes	2.731	-0.004	2.0	GoodResponse	1	0.202	516.517	5	54	Target	Win	True
517.517	0.3	Win2	0.6909000000000001	0.004	Yes	2.731	-0.004	2.0	GoodResponse	1	0.202	n/a	5	54	ButtonPress	Win	True
517.632	0.39	Win2	0.6909000000000001	n/a	Yes	2.731	n/a	n/a	GoodResponse	1	n/a	n/a	5	54	Blank	Win	True
518.017	1.45	Win2	0.6909000000000001	n/a	Yes	2.731	n/a	5.0	GoodResponse	1	0.008	517.025	5	54	Feedback	Win	True
519.471	2.731	Win2	0.6909000000000001	n/a	Yes	2.731	n/a	n/a	GoodResponse	1	0.0	n/a	5	54	ISIslide	Win	True
522.23	0.25	Control	0.6964	0.0	Yes	3.02	0.03	n/a	GoodResponse	0	n/a	n/a	5	55	Cue	Neutral	True
522.48	3.95	Control	0.6964	0.0	Yes	3.02	0.0	n/a	GoodResponse	0	n/a	n/a	5	55	Fixation	Neutral	True
526.442	0.3	Control	0.6964	0.0	Yes	3.02	0.012	2.0	GoodResponse	0	0.199	525.641	5	55	Target	Neutral	True
526.641	0.3	Control	0.6964	0.0	Yes	3.02	0.012	2.0	GoodResponse	0	0.199	n/a	5	55	ButtonPress	Neutral	True
526.726	0.4	Control	0.6964	n/a	Yes	3.02	n/a	n/a	GoodResponse	0	n/a	n/a	5	55	Blank	Neutral	True
527.128	1.45	Control	0.6964	n/a	Yes	3.02	n/a	5.0	GoodResponse	0	0.014	526.142	5	55	Feedback	Neutral	True
528.582	3.02	Control	0.6964	n/a	Yes	3.02	n/a	n/a	GoodResponse	0	0.0	n/a	5	55	ISIslide	Neutral	True
531.624	0.25	Control	0.7018000000000001	0.0	Yes	2.826	0.024	n/a	GoodResponse	0	n/a	n/a	5	56	Cue	Neutral	True
531.875	3.95	Control	0.7018000000000001	0.0	Yes	2.826	0.001	n/a	GoodResponse	0	n/a	n/a	5	56	Fixation	Neutral	True
535.82	0.29	Control	0.7018000000000001	0.004	Yes	2.826	-0.004	2.0	GoodResponse	0	0.199	535.019	5	56	Target	Neutral	True
536.019	0.3	Control	0.7018000000000001	0.004	Yes	2.826	-0.004	2.0	GoodResponse	0	0.199	n/a	5	56	ButtonPress	Neutral	True
536.121	0.41	Control	0.7018000000000001	n/a	Yes	2.826	n/a	n/a	GoodResponse	0	n/a	n/a	5	56	Blank	Neutral	True
536.522	1.45	Control	0.7018000000000001	n/a	Yes	2.826	n/a	5.0	GoodResponse	0	0.034	535.556	5	56	Feedback	Neutral	True
537.977	2.826	Control	0.7018000000000001	n/a	Yes	2.826	n/a	n/a	GoodResponse	0	0.0	n/a	5	56	ISIslide	Neutral	True
540.819	0.25	Control	0.7069	0.0	Yes	3.481	0.019	n/a	GoodResponse	0	n/a	n/a	5	57	Cue	Neutral	True
541.069	4.0	Control	0.7069	0.0	Yes	3.481	0.0	n/a	GoodResponse	0	n/a	n/a	5	57	Fixation	Neutral	True
545.065	0.28	Control	0.7069	0.004	Yes	3.481	-0.004	2.0	GoodResponse	0	0.278	544.343	5	57	Target	Neutral	True
545.343	0.3	Control	0.7069	0.004	Yes	3.481	-0.004	2.0	GoodResponse	0	0.278	n/a	5	57	ButtonPress	Neutral	True
545.349	0.42	Control	0.7069	n/a	Yes	3.481	n/a	n/a	GoodResponse	0	n/a	n/a	5	57	Blank	Neutral	True
545.767	1.45	Control	0.7069	n/a	Yes	3.481	n/a	5.0	GoodResponse	0	0.009	544.776	5	57	Feedback	Neutral	True
547.221	3.481	Control	0.7069	n/a	Yes	3.481	n/a	n/a	GoodResponse	0	0.0	n/a	5	57	ISIslide	Neutral	True
550.732	0.25	Win2	0.7119	0.0	Yes	2.718	0.032	n/a	GoodResponse	1	n/a	n/a	6	58	Cue	Win	True
550.982	4.05	Win2	0.7119	0.0	Yes	2.718	0.0	n/a	GoodResponse	1	n/a	n/a	6	58	Fixation	Win	True
555.028	0.27	Win2	0.7119	0.004	Yes	2.718	-0.004	2.0	GoodResponse	1	0.194	554.222	6	58	Target	Win	True
555.222	0.3	Win2	0.7119	0.004	Yes	2.718	-0.004	2.0	GoodResponse	1	0.194	n/a	6	58	ButtonPress	Win	True
555.312	0.43	Win2	0.7119	n/a	Yes	2.718	n/a	n/a	GoodResponse	1	n/a	n/a	6	58	Blank	Win	True
555.73	1.45	Win2	0.7119	n/a	Yes	2.718	n/a	5.0	GoodResponse	1	0.046	554.776	6	58	Feedback	Win	True
557.184	2.718	Win2	0.7119	n/a	Yes	2.718	n/a	n/a	GoodResponse	1	0.0	n/a	6	58	ISIslide	Win	True
559.926	0.25	Lose2	0.7167	0.0	Yes	2.674	0.026	n/a	GoodResponse	0	n/a	n/a	6	59	Cue	AvoidedLoss	True
560.177	4.0	Lose2	0.7167	0.0	Yes	2.674	0.001	n/a	GoodResponse	0	n/a	n/a	6	59	Fixation	AvoidedLoss	True
564.172	0.26	Lose2	0.7167	0.004	Yes	2.674	-0.004	2.0	GoodResponse	0	0.207	563.379	6	59	Target	AvoidedLoss	True
564.379	0.3	Lose2	0.7167	0.004	Yes	2.674	-0.004	2.0	GoodResponse	0	0.207	n/a	6	59	ButtonPress	AvoidedLoss	True
564.439	0.44	Lose2	0.7167	n/a	Yes	2.674	n/a	n/a	GoodResponse	0	n/a	n/a	6	59	Blank	AvoidedLoss	True
564.874	1.45	Lose2	0.7167	n/a	Yes	2.674	n/a	5.0	GoodResponse	0	0.024	563.898	6	59	Feedback	AvoidedLoss	True
566.328	2.674	Lose2	0.7167	n/a	Yes	2.674	n/a	n/a	GoodResponse	0	0.0	n/a	6	59	ISIslide	AvoidedLoss	True
569.02	0.25	Control	0.7049	0.0	No	2.68	0.02	n/a	NoResponse	0	n/a	n/a	6	60	Cue	Neutral	True
569.271	4.0	Control	0.7049	0.0	No	2.68	0.001	2.0	NoResponse	0	3.703	571.974	6	60	Fixation	Neutral	True
572.974	0.3	Control	0.7049	0.0	No	2.68	0.001	2.0	NoResponse	0	3.703	n/a	6	60	ButtonPress	Neutral	True
573.266	0.25	Control	0.7049	0.004	No	2.68	-0.004	n/a	NoResponse	0	n/a	n/a	6	60	Target	Neutral	True
573.517	0.45	Control	0.7049	n/a	No	2.68	n/a	n/a	NoResponse	0	n/a	n/a	6	60	Blank	Neutral	True
573.968	1.45	Control	0.7049	n/a	No	2.68	n/a	5.0	NoResponse	0	0.008	572.976	6	60	Feedback	Neutral	True
575.422	2.68	Control	0.7049	n/a	No	2.68	n/a	n/a	NoResponse	0	0.0	n/a	6	60	ISIslide	Neutral	True
578.13	0.25	Lose2	0.7097	0.0	Yes	2.97	0.03	n/a	GoodResponse	0	n/a	n/a	6	61	Cue	AvoidedLoss	True
578.381	4.0	Lose2	0.7097	0.0	Yes	2.97	0.001	n/a	GoodResponse	0	n/a	n/a	6	61	Fixation	AvoidedLoss	True
582.376	0.24	Lose2	0.7097	0.004	Yes	2.97	-0.004	2.0	GoodResponse	0	0.209	581.585	6	61	Target	AvoidedLoss	True
582.585	0.3	Lose2	0.7097	0.004	Yes	2.97	-0.004	2.0	GoodResponse	0	0.209	n/a	6	61	ButtonPress	AvoidedLoss	True
582.627	0.46	Lose2	0.7097	n/a	Yes	2.97	n/a	n/a	GoodResponse	0	n/a	n/a	6	61	Blank	AvoidedLoss	True
583.079	1.45	Lose2	0.7097	n/a	Yes	2.97	n/a	5.0	GoodResponse	0	0.014	582.093	6	61	Feedback	AvoidedLoss	True
584.533	2.97	Lose2	0.7097	n/a	Yes	2.97	n/a	n/a	GoodResponse	0	0.0	n/a	6	61	ISIslide	AvoidedLoss	True
587.525	0.25	Lose2	0.7143	0.0	Yes	2.875	0.025	n/a	GoodResponse	0	n/a	n/a	6	62	Cue	AvoidedLoss	True
587.776	3.9	Lose2	0.7143	0.0	Yes	2.875	0.001	n/a	GoodResponse	0	n/a	n/a	6	62	Fixation	AvoidedLoss	True
591.671	0.23	Lose2	0.7143	0.004	Yes	2.875	-0.004	2.0	GoodResponse	0	0.227	590.898	6	62	Target	AvoidedLoss	True
591.898	0.3	Lose2	0.7143	0.004	Yes	2.875	-0.004	2.0	GoodResponse	0	0.227	n/a	6	62	ButtonPress	AvoidedLoss	True
591.905	0.47	Lose2	0.7143	n/a	Yes	2.875	n/a	n/a	GoodResponse	0	n/a	n/a	6	62	Blank	AvoidedLoss	True
592.373	1.45	Lose2	0.7143	n/a	Yes	2.875	n/a	5.0	GoodResponse	0	0.038	591.411	6	62	Feedback	AvoidedLoss	True
593.827	2.875	Lose2	0.7143	n/a	Yes	2.875	n/a	n/a	GoodResponse	0	0.0	n/a	6	62	ISIslide	AvoidedLoss	True
596.719	0.25	Lose2	0.7031000000000001	0.0	No	2.631	0.019	n/a	LatePress	-1	n/a	n/a	5	63	Cue	Loss	True
596.97	4.05	Lose2	0.7031000000000001	0.0	No	2.631	0.001	n/a	LatePress	-1	n/a	n/a	5	63	Fixation	Loss	True
601.016	0.22	Lose2	0.7031000000000001	0.003	No	2.631	-0.003	2.0	LatePress	-1	0.22	600.236	5	63	Target	Loss	True
601.236	0.3	Lose2	0.7031000000000001	0.003	No	2.631	-0.003	2.0	LatePress	-1	0.22	n/a	5	63	ButtonPress	Loss	True
601.25	0.48	Lose2	0.7031000000000001	n/a	No	2.631	n/a	n/a	LatePress	-1	n/a	n/a	5	63	Blank	Loss	True
601.718	1.45	Lose2	0.7031000000000001	n/a	No	2.631	n/a	5.0	LatePress	-1	0.009	600.727	5	63	Feedback	Loss	True
603.172	2.631	Lose2	0.7031000000000001	n/a	No	2.631	n/a	n/a	LatePress	-1	0.0	n/a	5	63	ISIslide	Loss	True
605.83	0.25	Win2	0.7077	0.0	Yes	3.12	0.03	n/a	GoodResponse	1	n/a	n/a	6	64	Cue	Win	True
606.081	4.15	Win2	0.7077	0.0	Yes	3.12	0.001	n/a	GoodResponse	1	n/a	n/a	6	64	Fixation	Win	True
610.227	0.21	Win2	0.7077	0.003	Yes	3.12	-0.003	2.0	GoodResponse	1	0.204	609.431	6	64	Target	Win	True
610.431	0.3	Win2	0.7077	0.003	Yes	3.12	-0.003	2.0	GoodResponse	1	0.204	n/a	6	64	ButtonPress	Win	True
610.444	0.49	Win2	0.7077	n/a	Yes	3.12	n/a	n/a	GoodResponse	1	n/a	n/a	6	64	Blank	Win	True
610.929	1.45	Win2	0.7077	n/a	Yes	3.12	n/a	5.0	GoodResponse	1	0.017	609.946	6	64	Feedback	Win	True
612.383	3.12	Win2	0.7077	n/a	Yes	3.12	n/a	n/a	GoodResponse	1	0.0	n/a	6	64	ISIslide	Win	True
615.526	0.25	Control	0.6970000000000001	0.0	No	2.774	0.026	n/a	NoResponse	0	n/a	n/a	6	65	Cue	Neutral	True
615.777	4.0	Control	0.6970000000000001	0.0	No	2.774	0.001	n/a	NoResponse	0	n/a	n/a	6	65	Fixation	Neutral	True
619.772	0.2	Control	0.6970000000000001	0.004	No	2.774	-0.004	2.0	NoResponse	0	0.211	618.983	6	65	Target	Neutral	True
619.972	0.5	Control	0.6970000000000001	n/a	No	2.774	n/a	n/a	NoResponse	0	n/a	n/a	6	65	Blank	Neutral	True
619.983	0.3	Control	0.6970000000000001	0.004	No	2.774	-0.004	2.0	NoResponse	0	0.211	n/a	6	65	ButtonPress	Neutral	True
620.474	1.45	Control	0.6970000000000001	n/a	No	2.774	n/a	5.0	NoResponse	0	0.033	619.507	6	65	Feedback	Neutral	True
621.928	2.774	Control	0.6970000000000001	n/a	No	2.774	n/a	n/a	NoResponse	0	0.0	n/a	6	65	ISIslide	Neutral	True
624.72	0.25	Win2	0.6866	0.0	No	2.78	0.02	n/a	NoResponse	0	n/a	n/a	6	66	Cue	MissedWin	True
624.971	3.9	Win2	0.6866	0.0	No	2.78	0.001	n/a	NoResponse	0	n/a	n/a	6	66	Fixation	MissedWin	True
628.866	0.19	Win2	0.6866	0.004	No	2.78	-0.004	2.0	NoResponse	0	0.211	628.077	6	66	Target	MissedWin	True
629.066	0.51	Win2	0.6866	n/a	No	2.78	n/a	n/a	NoResponse	0	n/a	n/a	6	66	Blank	MissedWin	True
629.077	0.3	Win2	0.6866	0.004	No	2.78	-0.004	2.0	NoResponse	0	0.211	n/a	6	66	ButtonPress	MissedWin	True
629.568	1.45	Win2	0.6866	n/a	No	2.78	n/a	5.0	NoResponse	0	0.013	628.581	6	66	Feedback	MissedWin	True
631.022	2.78	Win2	0.6866	n/a	No	2.78	n/a	n/a	NoResponse	0	0.0	n/a	6	66	ISIslide	MissedWin	True
633.831	0.25	Control	0.6765000000000001	0.0	No	2.719	0.031	n/a	NoResponse	0	n/a	n/a	6	67	Cue	Neutral	True
634.081	3.95	Control	0.6765000000000001	0.0	No	2.719	0.0	n/a	NoResponse	0	n/a	n/a	6	67	Fixation	Neutral	True
638.027	0.18	Control	0.6765000000000001	0.004	No	2.719	-0.004	2.0	NoResponse	0	0.225	637.252	6	67	Target	Neutral	True
638.21	0.52	Control	0.6765000000000001	n/a	No	2.719	n/a	n/a	NoResponse	0	n/a	n/a	6	67	Blank	Neutral	True
638.252	0.3	Control	0.6765000000000001	0.004	No	2.719	-0.004	2.0	NoResponse	0	0.225	n/a	6	67	ButtonPress	Neutral	True
638.729	1.45	Control	0.6765000000000001	n/a	No	2.719	n/a	5.0	NoResponse	0	0.022	637.751	6	67	Feedback	Neutral	True
640.183	2.719	Control	0.6765000000000001	n/a	No	2.719	n/a	n/a	NoResponse	0	0.0	n/a	6	67	ISIslide	Neutral	True
642.925	0.25	Win2	0.6667000000000001	0.0	No	3.075	0.025	n/a	NoResponse	0	n/a	n/a	6	68	Cue	MissedWin	True
643.175	4.0	Win2	0.6667000000000001	0.0	No	3.075	0.0	n/a	NoResponse	0	n/a	n/a	6	68	Fixation	MissedWin	True
647.171	0.17	Win2	0.6667000000000001	0.004	No	3.075	-0.004	2.0	NoResponse	0	0.201	646.372	6	68	Target	MissedWin	True
647.354	0.53	Win2	0.6667000000000001	n/a	No	3.075	n/a	n/a	NoResponse	0	n/a	n/a	6	68	Blank	MissedWin	True
647.372	0.3	Win2	0.6667000000000001	0.004	No	3.075	-0.004	2.0	NoResponse	0	0.201	n/a	6	68	ButtonPress	MissedWin	True
647.873	1.45	Win2	0.6667000000000001	n/a	No	3.075	n/a	5.0	NoResponse	0	0.001	646.874	6	68	Feedback	MissedWin	True
649.327	3.075	Win2	0.6667000000000001	n/a	No	3.075	n/a	n/a	NoResponse	0	0.0	n/a	6	68	ISIslide	MissedWin	True
652.42	0.25	Win2	0.6570999999999999	0.0	No	3.23	0.02	n/a	NoResponse	0	n/a	n/a	6	69	Cue	MissedWin	True
652.67	3.95	Win2	0.6570999999999999	0.0	No	3.23	0.0	n/a	NoResponse	0	n/a	n/a	6	69	Fixation	MissedWin	True
656.616	0.16	Win2	0.6570999999999999	0.004	No	3.23	-0.004	2.0	NoResponse	0	0.195	655.811	6	69	Target	MissedWin	True
656.783	0.54	Win2	0.6570999999999999	n/a	No	3.23	n/a	n/a	NoResponse	0	n/a	n/a	6	69	Blank	MissedWin	True
656.811	0.3	Win2	0.6570999999999999	0.004	No	3.23	-0.004	2.0	NoResponse	0	0.195	n/a	6	69	ButtonPress	MissedWin	True
657.318	1.45	Win2	0.6570999999999999	n/a	No	3.23	n/a	5.0	NoResponse	0	0.018	656.336	6	69	Feedback	MissedWin	True
658.772	3.23	Win2	0.6570999999999999	n/a	No	3.23	n/a	n/a	NoResponse	0	0.0	n/a	6	69	ISIslide	MissedWin	True
662.015	0.25	Lose2	0.6479	0.0	No	3.035	0.015	n/a	NoResponse	-1	n/a	n/a	5	70	Cue	Loss	True
662.266	4.05	Lose2	0.6479	0.0	No	3.035	0.001	2.0	NoResponse	-1	3.9	665.166	5	70	Fixation	Loss	True
666.166	0.3	Lose2	0.6479	0.0	No	3.035	0.001	2.0	NoResponse	-1	3.9	n/a	5	70	ButtonPress	Loss	True
666.311	0.16	Lose2	0.6479	0.004	No	3.035	-0.004	n/a	NoResponse	-1	n/a	n/a	5	70	Target	Loss	True
666.478	0.54	Lose2	0.6479	n/a	No	3.035	n/a	n/a	NoResponse	-1	n/a	n/a	5	70	Blank	Loss	True
667.013	1.45	Lose2	0.6479	n/a	No	3.035	n/a	5.0	NoResponse	-1	0.03	666.043	5	70	Feedback	Loss	True
668.468	3.035	Lose2	0.6479	n/a	No	3.035	n/a	n/a	NoResponse	-1	0.0	n/a	5	70	ISIslide	Loss	True
671.527	0.25	Win2	0.6389	0.0	No	2.723	0.027	n/a	NoResponse	0	n/a	n/a	5	71	Cue	MissedWin	True
671.778	4.05	Win2	0.6389	0.0	No	2.723	0.001	n/a	NoResponse	0	n/a	n/a	5	71	Fixation	MissedWin	True
675.823	0.17	Win2	0.6389	0.004	No	2.723	-0.004	2.0	NoResponse	0	0.284	675.107	5	71	Target	MissedWin	True
676.007	0.53	Win2	0.6389	n/a	No	2.723	n/a	n/a	NoResponse	0	n/a	n/a	5	71	Blank	MissedWin	True
676.107	0.3	Win2	0.6389	0.004	No	2.723	-0.004	2.0	NoResponse	0	0.284	n/a	5	71	ButtonPress	MissedWin	True
676.525	1.45	Win2	0.6389	n/a	No	2.723	n/a	5.0	NoResponse	0	0.031	675.556	5	71	Feedback	MissedWin	True
677.98	2.723	Win2	0.6389	n/a	No	2.723	n/a	n/a	NoResponse	0	0.0	n/a	5	71	ISIslide	MissedWin	True
680.721	0.25	Win2	0.6301	0.0	No	2.779	0.021	n/a	NoResponse	0	n/a	n/a	5	72	Cue	MissedWin	True
680.972	4.1	Win2	0.6301	0.0	No	2.779	0.001	n/a	NoResponse	0	n/a	n/a	5	72	Fixation	MissedWin	True
685.067	0.18	Win2	0.6301	0.004	No	2.779	-0.004	2.0	NoResponse	0	0.217	684.284	5	72	Target	MissedWin	True
685.251	0.52	Win2	0.6301	n/a	No	2.779	n/a	n/a	NoResponse	0	n/a	n/a	5	72	Blank	MissedWin	True
685.284	0.3	Win2	0.6301	0.004	No	2.779	-0.004	2.0	NoResponse	0	0.217	n/a	5	72	ButtonPress	MissedWin	True
685.77	1.45	Win2	0.6301	n/a	No	2.779	n/a	5.0	NoResponse	0	0.007	684.777	5	72	Feedback	MissedWin	True
687.224	2.779	Win2	0.6301	n/a	No	2.779	n/a	n/a	NoResponse	0	0.0	n/a	5	72	ISIslide	MissedWin	True
690.016	0.25	Win2	0.6215999999999999	0.0	No	2.684	0.016	n/a	NoResponse	0	n/a	n/a	5	73	Cue	MissedWin	True
690.266	4.0	Win2	0.6215999999999999	0.0	No	2.684	0.0	n/a	NoResponse	0	n/a	n/a	5	73	Fixation	MissedWin	True
694.262	0.19	Win2	0.6215999999999999	0.004	No	2.684	-0.004	2.0	NoResponse	0	0.209	693.471	5	73	Target	MissedWin	True
694.462	0.51	Win2	0.6215999999999999	n/a	No	2.684	n/a	n/a	NoResponse	0	n/a	n/a	5	73	Blank	MissedWin	True
694.471	0.3	Win2	0.6215999999999999	0.004	No	2.684	-0.004	2.0	NoResponse	0	0.209	n/a	5	73	ButtonPress	MissedWin	True
694.964	1.45	Win2	0.6215999999999999	n/a	No	2.684	n/a	5.0	NoResponse	0	0.031	693.995	5	73	Feedback	MissedWin	True
696.418	2.684	Win2	0.6215999999999999	n/a	No	2.684	n/a	n/a	NoResponse	0	0.0	n/a	5	73	ISIslide	MissedWin	True
699.126	0.25	Lose2	0.6133	0.0	No	2.624	0.026	n/a	NoResponse	-1	n/a	n/a	4	74	Cue	Loss	True
699.377	4.05	Lose2	0.6133	0.0	No	2.624	0.001	n/a	NoResponse	-1	n/a	n/a	4	74	Fixation	Loss	True
703.422	0.2	Lose2	0.6133	0.004	No	2.624	-0.004	2.0	NoResponse	-1	0.212	702.634	4	74	Target	Loss	True
703.623	0.5	Lose2	0.6133	n/a	No	2.624	n/a	n/a	NoResponse	-1	n/a	n/a	4	74	Blank	Loss	True
703.634	0.3	Lose2	0.6133	0.004	No	2.624	-0.004	2.0	NoResponse	-1	0.212	n/a	4	74	ButtonPress	Loss	True
704.125	1.45	Lose2	0.6133	n/a	No	2.624	n/a	5.0	NoResponse	-1	0.041	703.166	4	74	Feedback	Loss	True
705.579	2.624	Lose2	0.6133	n/a	No	2.624	n/a	n/a	NoResponse	-1	0.0	n/a	4	74	ISIslide	Loss	True
708.22	0.25	Lose2	0.6053000000000001	0.0	No	2.93	0.02	n/a	LatePress	-1	n/a	n/a	3	75	Cue	Loss	True
708.471	3.95	Lose2	0.6053000000000001	0.0	No	2.93	0.001	n/a	LatePress	-1	n/a	n/a	3	75	Fixation	Loss	True
712.416	0.21	Lose2	0.6053000000000001	0.004	No	2.93	-0.004	2.0	LatePress	-1	0.214	711.63	3	75	Target	Loss	True
712.63	0.3	Lose2	0.6053000000000001	0.004	No	2.93	-0.004	2.0	LatePress	-1	0.214	n/a	3	75	ButtonPress	Loss	True
712.633	0.49	Lose2	0.6053000000000001	n/a	No	2.93	n/a	n/a	LatePress	-1	n/a	n/a	3	75	Blank	Loss	True
713.118	1.45	Lose2	0.6053000000000001	n/a	No	2.93	n/a	5.0	LatePress	-1	0.024	712.142	3	75	Feedback	Loss	True
714.573	2.93	Lose2	0.6053000000000001	n/a	No	2.93	n/a	n/a	LatePress	-1	0.0	n/a	3	75	ISIslide	Loss	True
717.531	0.25	Control	0.6103999999999999	0.001	Yes	3.219	0.031	n/a	GoodResponse	0	n/a	n/a	3	76	Cue	Neutral	True
717.782	4.05	Control	0.6103999999999999	0.0	Yes	3.219	0.001	n/a	GoodResponse	0	n/a	n/a	3	76	Fixation	Neutral	True
721.828	0.22	Control	0.6103999999999999	0.003	Yes	3.219	-0.003	2.0	GoodResponse	0	0.217	721.045	3	76	Target	Neutral	True
722.045	0.3	Control	0.6103999999999999	0.003	Yes	3.219	-0.003	2.0	GoodResponse	0	0.217	n/a	3	76	ButtonPress	Neutral	True
722.062	0.48	Control	0.6103999999999999	n/a	Yes	3.219	n/a	n/a	GoodResponse	0	n/a	n/a	3	76	Blank	Neutral	True
722.53	1.45	Control	0.6103999999999999	n/a	Yes	3.219	n/a	5.0	GoodResponse	0	0.025	721.555	3	76	Feedback	Neutral	True
723.984	3.219	Control	0.6103999999999999	n/a	Yes	3.219	n/a	n/a	GoodResponse	0	0.0	n/a	3	76	ISIslide	Neutral	True
727.227	0.25	Lose2	0.6026	0.0	No	2.573	0.027	n/a	LatePress	-1	n/a	n/a	2	77	Cue	Loss	True
727.478	3.95	Lose2	0.6026	0.0	No	2.573	0.001	n/a	LatePress	-1	n/a	n/a	2	77	Fixation	Loss	True
731.423	0.23	Lose2	0.6026	0.004	No	2.573	-0.004	2.0	LatePress	-1	0.234	730.657	2	77	Target	Loss	True
731.657	0.47	Lose2	0.6026	n/a	No	2.573	n/a	n/a	LatePress	-1	n/a	n/a	2	77	Blank	Loss	True
731.657	0.3	Lose2	0.6026	0.004	No	2.573	-0.004	2.0	LatePress	-1	0.234	n/a	2	77	ButtonPress	Loss	True
732.125	1.45	Lose2	0.6026	n/a	No	2.573	n/a	5.0	LatePress	-1	0.04	731.165	2	77	Feedback	Loss	True
733.58	2.573	Lose2	0.6026	n/a	No	2.573	n/a	n/a	LatePress	-1	0.0	n/a	2	77	ISIslide	Loss	True
