onset	duration	cue_type	current_mean_accuracy	duration_error	is_hit	isi_adjusted	onset_delay	response	response_type	reward	rt	rt_time	total_reward	trial_number	trial_phase	trial_type	one_press
11.097	0.25	Control	1.0	0.0	Yes	2.953	-0.003	n/a	GoodResponse	0	n/a	n/a	0	0	Cue	Neutral	True
11.348	3.85	Control	1.0	0.0	Yes	2.953	0.001	n/a	GoodResponse	0	n/a	n/a	0	0	Fixation	Neutral	True
15.193	0.4	Control	1.0	0.004	Yes	2.953	-0.004	2.0	GoodResponse	0	0.175	14.367999999999986	0	0	Target	Neutral	True
15.368	0.3	Control	1.0	0.004	Yes	2.953	-0.004	2.0	GoodResponse	0	0.175	n/a	0	0	ButtonPress	Neutral	True
15.594	0.3	Control	1.0	n/a	Yes	2.953	n/a	n/a	GoodResponse	0	n/a	n/a	0	0	Blank	Neutral	True
15.895	1.45	Control	1.0	n/a	Yes	2.953	n/a	5.0	GoodResponse	0	0.032	14.926999999999985	0	0	Feedback	Neutral	True
17.349	2.953	Control	1.0	n/a	Yes	2.953	n/a	n/a	GoodResponse	0	0.0	n/a	0	0	ISIslide	Neutral	True
20.325	0.25	Lose2	1.0	0.0	Yes	2.775	0.025	n/a	GoodResponse	0	n/a	n/a	0	1	Cue	AvoidedLoss	True
20.575	4.0	Lose2	1.0	0.0	Yes	2.775	0.0	n/a	GoodResponse	0	n/a	n/a	0	1	Fixation	AvoidedLoss	True
24.571	0.39	Lose2	1.0	0.004	Yes	2.775	-0.004	2.0	GoodResponse	0	0.186	23.756999999999984	0	1	Target	AvoidedLoss	True
24.757	0.3	Lose2	1.0	0.004	Yes	2.775	-0.004	2.0	GoodResponse	0	0.186	n/a	0	1	ButtonPress	AvoidedLoss	True
24.972	0.31	Lose2	1.0	n/a	Yes	2.775	n/a	n/a	GoodResponse	0	n/a	n/a	0	1	Blank	AvoidedLoss	True
25.273	1.45	Lose2	1.0	n/a	Yes	2.775	n/a	5.0	GoodResponse	0	0.02	24.292999999999985	0	1	Feedback	AvoidedLoss	True
26.727	2.775	Lose2	1.0	n/a	Yes	2.775	n/a	n/a	GoodResponse	0	0.0	n/a	0	1	ISIslide	AvoidedLoss	True
29.519	0.25	Control	1.0	0.0	Yes	2.581	0.019	n/a	GoodResponse	0	n/a	n/a	0	2	Cue	Neutral	True
29.77	4.1	Control	1.0	0.0	Yes	2.581	0.001	n/a	GoodResponse	0	n/a	n/a	0	2	Fixation	Neutral	True
33.865	0.38	Control	1.0	0.004	Yes	2.581	-0.004	2.0	GoodResponse	0	0.209	33.073999999999984	0	2	Target	Neutral	True
34.074	0.3	Control	1.0	0.004	Yes	2.581	-0.004	2.0	GoodResponse	0	0.209	n/a	0	2	ButtonPress	Neutral	True
34.25	0.32	Control	1.0	n/a	Yes	2.581	n/a	n/a	GoodResponse	0	n/a	n/a	0	2	Blank	Neutral	True
34.567	1.45	Control	1.0	n/a	Yes	2.581	n/a	5.0	GoodResponse	0	0.042	33.60899999999999	0	2	Feedback	Neutral	True
36.022	2.581	Control	1.0	n/a	Yes	2.581	n/a	n/a	GoodResponse	0	0.0	n/a	0	2	ISIslide	Neutral	True
38.63	0.25	Win2	1.0	0.0	Yes	2.82	0.03	n/a	GoodResponse	1	n/a	n/a	1	3	Cue	Win	True
38.88	3.95	Win2	1.0	0.0	Yes	2.82	0.0	n/a	GoodResponse	1	n/a	n/a	1	3	Fixation	Win	True
42.842	0.37	Win2	1.0	0.0	Yes	2.82	0.012	2.0	GoodResponse	1	0.211	42.05299999999998	1	3	Target	Win	True
43.053	0.3	Win2	1.0	0.0	Yes	2.82	0.012	2.0	GoodResponse	1	0.211	n/a	1	3	ButtonPress	Win	True
43.21	0.33	Win2	1.0	n/a	Yes	2.82	n/a	n/a	GoodResponse	1	n/a	n/a	1	3	Blank	Win	True
43.528	1.45	Win2	1.0	n/a	Yes	2.82	n/a	5.0	GoodResponse	1	0.008	42.53599999999999	1	3	Feedback	Win	True
44.982	2.82	Win2	1.0	n/a	Yes	2.82	n/a	n/a	GoodResponse	1	0.0	n/a	1	3	ISIslide	Win	True
47.824	0.25	Win2	1.0	0.0	Yes	3.276	0.024	n/a	GoodResponse	1	n/a	n/a	2	4	Cue	Win	True
48.074	4.0	Win2	1.0	0.001	Yes	3.276	0.0	n/a	GoodResponse	1	n/a	n/a	2	4	Fixation	Win	True
52.07	0.36	Win2	1.0	0.004	Yes	3.276	-0.004	2.0	GoodResponse	1	0.235	51.304999999999986	2	4	Target	Win	True
52.305	0.3	Win2	1.0	0.004	Yes	3.276	-0.004	2.0	GoodResponse	1	0.235	n/a	2	4	ButtonPress	Win	True
52.438	0.34	Win2	1.0	n/a	Yes	3.276	n/a	n/a	GoodResponse	1	n/a	n/a	2	4	Blank	Win	True
52.772	1.45	Win2	1.0	n/a	Yes	3.276	n/a	5.0	GoodResponse	1	0.032	51.80399999999999	2	4	Feedback	Win	True
54.226	3.276	Win2	1.0	n/a	Yes	3.276	n/a	n/a	GoodResponse	1	0.0	n/a	2	4	ISIslide	Win	True
57.519	0.25	Win2	1.0	0.001	Yes	2.781	0.019	n/a	GoodResponse	1	n/a	n/a	3	5	Cue	Win	True
57.77	4.0	Win2	1.0	0.0	Yes	2.781	0.001	n/a	GoodResponse	1	n/a	n/a	3	5	Fixation	Win	True
61.765	0.35	Win2	1.0	0.004	Yes	2.781	-0.004	2.0	GoodResponse	1	0.208	60.972999999999985	3	5	Target	Win	True
61.973	0.3	Win2	1.0	0.004	Yes	2.781	-0.004	2.0	GoodResponse	1	0.208	n/a	3	5	ButtonPress	Win	True
62.117	0.35	Win2	1.0	n/a	Yes	2.781	n/a	n/a	GoodResponse	1	n/a	n/a	3	5	Blank	Win	True
62.468	1.45	Win2	1.0	n/a	Yes	2.781	n/a	5.0	GoodResponse	1	0.043	61.51099999999999	3	5	Feedback	Win	True
63.922	2.781	Win2	1.0	n/a	Yes	2.781	n/a	n/a	GoodResponse	1	0.0	n/a	3	5	ISIslide	Win	True
66.73	0.25	Lose2	1.0	0.0	Yes	2.72	0.03	n/a	GoodResponse	0	n/a	n/a	3	6	Cue	AvoidedLoss	True
66.981	3.95	Lose2	1.0	0.0	Yes	2.72	0.001	n/a	GoodResponse	0	n/a	n/a	3	6	Fixation	AvoidedLoss	True
70.926	0.34	Lose2	1.0	0.004	Yes	2.72	-0.004	2.0	GoodResponse	0	0.2	70.12599999999999	3	6	Target	AvoidedLoss	True
71.126	0.3	Lose2	1.0	0.004	Yes	2.72	-0.004	2.0	GoodResponse	0	0.2	n/a	3	6	ButtonPress	AvoidedLoss	True
71.277	0.36	Lose2	1.0	n/a	Yes	2.72	n/a	n/a	GoodResponse	0	n/a	n/a	3	6	Blank	AvoidedLoss	True
71.628	1.45	Lose2	1.0	n/a	Yes	2.72	n/a	5.0	GoodResponse	0	0.006	70.63399999999999	3	6	Feedback	AvoidedLoss	True
73.083	2.72	Lose2	1.0	n/a	Yes	2.72	n/a	n/a	GoodResponse	0	0.0	n/a	3	6	ISIslide	AvoidedLoss	True
75.824	0.25	Lose2	1.0	0.0	Yes	4.026	0.024	n/a	GoodResponse	0	n/a	n/a	3	7	Cue	AvoidedLoss	True
76.075	4.05	Lose2	1.0	0.0	Yes	4.026	0.001	n/a	GoodResponse	0	n/a	n/a	3	7	Fixation	AvoidedLoss	True
80.12	0.33	Lose2	1.0	0.004	Yes	4.026	-0.004	2.0	GoodResponse	0	0.279	79.39899999999999	3	7	Target	AvoidedLoss	True
80.399	0.3	Lose2	1.0	0.004	Yes	4.026	-0.004	2.0	GoodResponse	0	0.279	n/a	3	7	ButtonPress	AvoidedLoss	True
80.455	0.37	Lose2	1.0	n/a	Yes	4.026	n/a	n/a	GoodResponse	0	n/a	n/a	3	7	Blank	AvoidedLoss	True
80.823	1.45	Lose2	1.0	n/a	Yes	4.026	n/a	5.0	GoodResponse	0	0.03	79.85299999999998	3	7	Feedback	AvoidedLoss	True
82.277	4.026	Lose2	1.0	n/a	Yes	4.026	n/a	n/a	GoodResponse	0	0.0	n/a	3	7	ISIslide	AvoidedLoss	True
86.322	0.25	Lose2	1.0	0.001	Yes	3.028	0.022	n/a	GoodResponse	0	n/a	n/a	3	8	Cue	AvoidedLoss	True
86.573	3.95	Lose2	1.0	0.0	Yes	3.028	0.001	n/a	GoodResponse	0	n/a	n/a	3	8	Fixation	AvoidedLoss	True
90.518	0.32	Lose2	1.0	0.004	Yes	3.028	-0.004	2.0	GoodResponse	0	0.26	89.77799999999999	3	8	Target	AvoidedLoss	True
90.778	0.3	Lose2	1.0	0.004	Yes	3.028	-0.004	2.0	GoodResponse	0	0.26	n/a	3	8	ButtonPress	AvoidedLoss	True
90.853	0.38	Lose2	1.0	n/a	Yes	3.028	n/a	n/a	GoodResponse	0	n/a	n/a	3	8	Blank	AvoidedLoss	True
91.22	1.45	Lose2	1.0	n/a	Yes	3.028	n/a	5.0	GoodResponse	0	0.022	90.24199999999999	3	8	Feedback	AvoidedLoss	True
92.675	3.028	Lose2	1.0	n/a	Yes	3.028	n/a	n/a	GoodResponse	0	0.0	n/a	3	8	ISIslide	AvoidedLoss	True
95.717	0.25	Lose2	1.0	0.0	Yes	3.133	0.017	n/a	GoodResponse	0	n/a	n/a	3	9	Cue	AvoidedLoss	True
95.968	3.95	Lose2	1.0	0.0	Yes	3.133	0.001	n/a	GoodResponse	0	n/a	n/a	3	9	Fixation	AvoidedLoss	True
99.913	0.31	Lose2	1.0	0.004	Yes	3.133	-0.004	2.0	GoodResponse	0	0.219	99.13199999999999	3	9	Target	AvoidedLoss	True
100.132	0.3	Lose2	1.0	0.004	Yes	3.133	-0.004	2.0	GoodResponse	0	0.219	n/a	3	9	ButtonPress	AvoidedLoss	True
100.231	0.39	Lose2	1.0	n/a	Yes	3.133	n/a	n/a	GoodResponse	0	n/a	n/a	3	9	Blank	AvoidedLoss	True
100.615	1.45	Lose2	1.0	n/a	Yes	3.133	n/a	5.0	GoodResponse	0	0.042	99.65699999999998	3	9	Feedback	AvoidedLoss	True
102.07	3.133	Lose2	1.0	n/a	Yes	3.133	n/a	n/a	GoodResponse	0	0.0	n/a	3	9	ISIslide	AvoidedLoss	True
105.229	0.25	Control	1.0	0.0	Yes	3.271	0.029	n/a	GoodResponse	0	n/a	n/a	3	10	Cue	Neutral	True
105.48	4.0	Control	1.0	0.0	Yes	3.271	0.001	n/a	GoodResponse	0	n/a	n/a	3	10	Fixation	Neutral	True
109.475	0.3	Control	1.0	0.004	Yes	3.271	-0.004	2.0	GoodResponse	0	0.225	108.69999999999999	3	10	Target	Neutral	True
109.7	0.3	Control	1.0	0.004	Yes	3.271	-0.004	2.0	GoodResponse	0	0.225	n/a	3	10	ButtonPress	Neutral	True
109.776	0.4	Control	1.0	n/a	Yes	3.271	n/a	n/a	GoodResponse	0	n/a	n/a	3	10	Blank	Neutral	True
110.177	1.45	Control	1.0	n/a	Yes	3.271	n/a	5.0	GoodResponse	0	0.041	109.21799999999999	3	10	Feedback	Neutral	True
111.632	3.271	Control	1.0	n/a	Yes	3.271	n/a	n/a	GoodResponse	0	0.0	n/a	3	10	ISIslide	Neutral	True
114.925	0.25	Lose2	1.0	0.0	Yes	2.725	0.025	n/a	GoodResponse	0	n/a	n/a	3	11	Cue	AvoidedLoss	True
115.176	4.05	Lose2	1.0	0.0	Yes	2.725	0.001	n/a	GoodResponse	0	n/a	n/a	3	11	Fixation	AvoidedLoss	True
119.221	0.29	Lose2	1.0	0.004	Yes	2.725	-0.004	2.0	GoodResponse	0	0.207	118.42799999999998	3	11	Target	AvoidedLoss	True
119.428	0.3	Lose2	1.0	0.004	Yes	2.725	-0.004	2.0	GoodResponse	0	0.207	n/a	3	11	ButtonPress	AvoidedLoss	True
119.522	0.41	Lose2	1.0	n/a	Yes	2.725	n/a	n/a	GoodResponse	0	n/a	n/a	3	11	Blank	AvoidedLoss	True
119.923	1.45	Lose2	1.0	n/a	Yes	2.725	n/a	5.0	GoodResponse	0	0.007	118.92999999999998	3	11	Feedback	AvoidedLoss	True
121.377	2.725	Lose2	1.0	n/a	Yes	2.725	n/a	n/a	GoodResponse	0	0.0	n/a	3	11	ISIslide	AvoidedLoss	True
124.119	0.25	Control	1.0	0.0	Yes	2.981	0.019	n/a	GoodResponse	0	n/a	n/a	3	12	Cue	Neutral	True
124.37	3.9	Control	1.0	0.0	Yes	2.981	0.001	n/a	GoodResponse	0	n/a	n/a	3	12	Fixation	Neutral	True
128.265	0.28	Control	1.0	0.004	Yes	2.981	-0.004	2.0	GoodResponse	0	0.189	127.45399999999998	3	12	Target	Neutral	True
128.454	0.3	Control	1.0	0.004	Yes	2.981	-0.004	2.0	GoodResponse	0	0.189	n/a	3	12	ButtonPress	Neutral	True
128.549	0.42	Control	1.0	n/a	Yes	2.981	n/a	n/a	GoodResponse	0	n/a	n/a	3	12	Blank	Neutral	True
128.967	1.45	Control	1.0	n/a	Yes	2.981	n/a	5.0	GoodResponse	0	0.032	127.99899999999998	3	12	Feedback	Neutral	True
130.421	2.981	Control	1.0	n/a	Yes	2.981	n/a	n/a	GoodResponse	0	0.0	n/a	3	12	ISIslide	Neutral	True
133.43	0.25	Control	1.0	0.0	Yes	2.77	0.03	n/a	GoodResponse	0	n/a	n/a	3	13	Cue	Neutral	True
133.681	4.0	Control	1.0	0.0	Yes	2.77	0.001	n/a	GoodResponse	0	n/a	n/a	3	13	Fixation	Neutral	True
137.676	0.27	Control	1.0	0.004	Yes	2.77	-0.004	2.0	GoodResponse	0	0.232	136.908	3	13	Target	Neutral	True
137.908	0.3	Control	1.0	0.004	Yes	2.77	-0.004	2.0	GoodResponse	0	0.232	n/a	3	13	ButtonPress	Neutral	True
137.96	0.43	Control	1.0	n/a	Yes	2.77	n/a	n/a	GoodResponse	0	n/a	n/a	3	13	Blank	Neutral	True
138.378	1.45	Control	1.0	n/a	Yes	2.77	n/a	5.0	GoodResponse	0	0.036	137.414	3	13	Feedback	Neutral	True
139.833	2.77	Control	1.0	n/a	Yes	2.77	n/a	n/a	GoodResponse	0	0.0	n/a	3	13	ISIslide	Neutral	True
142.624	0.25	Win2	1.0	0.001	Yes	2.676	0.024	n/a	GoodResponse	1	n/a	n/a	4	14	Cue	Win	True
142.875	4.1	Win2	1.0	0.0	Yes	2.676	0.001	n/a	GoodResponse	1	n/a	n/a	4	14	Fixation	Win	True
146.971	0.26	Win2	1.0	0.003	Yes	2.676	-0.003	2.0	GoodResponse	1	0.247	146.218	4	14	Target	Win	True
147.218	0.3	Win2	1.0	0.003	Yes	2.676	-0.003	2.0	GoodResponse	1	0.247	n/a	4	14	ButtonPress	Win	True
147.238	0.44	Win2	1.0	n/a	Yes	2.676	n/a	n/a	GoodResponse	1	n/a	n/a	4	14	Blank	Win	True
147.673	1.45	Win2	1.0	n/a	Yes	2.676	n/a	5.0	GoodResponse	1	0.008	146.681	4	14	Feedback	Win	True
149.127	2.676	Win2	1.0	n/a	Yes	2.676	n/a	n/a	GoodResponse	1	0.0	n/a	4	14	ISIslide	Win	True
151.819	0.25	Control	1.0	0.0	Yes	2.981	0.019	n/a	GoodResponse	0	n/a	n/a	4	15	Cue	Neutral	True
152.069	4.0	Control	1.0	0.0	Yes	2.981	0.0	n/a	GoodResponse	0	n/a	n/a	4	15	Fixation	Neutral	True
156.065	0.25	Control	1.0	0.004	Yes	2.981	-0.004	2.0	GoodResponse	0	0.207	155.272	4	15	Target	Neutral	True
156.272	0.3	Control	1.0	0.004	Yes	2.981	-0.004	2.0	GoodResponse	0	0.207	n/a	4	15	ButtonPress	Neutral	True
156.315	0.45	Control	1.0	n/a	Yes	2.981	n/a	n/a	GoodResponse	0	n/a	n/a	4	15	Blank	Neutral	True
156.767	1.45	Control	1.0	n/a	Yes	2.981	n/a	5.0	GoodResponse	0	0.036	155.803	4	15	Feedback	Neutral	True
158.221	2.981	Control	1.0	n/a	Yes	2.981	n/a	n/a	GoodResponse	0	0.0	n/a	4	15	ISIslide	Neutral	True
161.23	0.25	Win2	1.0	0.0	Yes	2.87	0.03	n/a	GoodResponse	1	n/a	n/a	5	16	Cue	Win	True
161.481	4.0	Win2	1.0	0.0	Yes	2.87	0.001	n/a	GoodResponse	1	n/a	n/a	5	16	Fixation	Win	True
165.476	0.24	Win2	1.0	0.004	Yes	2.87	-0.004	2.0	GoodResponse	1	0.193	164.669	5	16	Target	Win	True
165.669	0.3	Win2	1.0	0.004	Yes	2.87	-0.004	2.0	GoodResponse	1	0.193	n/a	5	16	ButtonPress	Win	True
165.727	0.46	Win2	1.0	n/a	Yes	2.87	n/a	n/a	GoodResponse	1	n/a	n/a	5	16	Blank	Win	True
166.178	1.45	Win2	1.0	n/a	Yes	2.87	n/a	5.0	GoodResponse	1	0.04	165.218	5	16	Feedback	Win	True
167.633	2.87	Win2	1.0	n/a	Yes	2.87	n/a	n/a	GoodResponse	1	0.0	n/a	5	16	ISIslide	Win	True
170.525	0.25	Lose2	1.0	0.0	Yes	2.725	0.025	n/a	GoodResponse	0	n/a	n/a	5	17	Cue	AvoidedLoss	True
170.775	3.95	Lose2	1.0	0.001	Yes	2.725	0.0	n/a	GoodResponse	0	n/a	n/a	5	17	Fixation	AvoidedLoss	True
174.721	0.23	Lose2	1.0	0.004	Yes	2.725	-0.004	2.0	GoodResponse	0	0.228	173.949	5	17	Target	AvoidedLoss	True
174.949	0.3	Lose2	1.0	0.004	Yes	2.725	-0.004	2.0	GoodResponse	0	0.228	n/a	5	17	ButtonPress	AvoidedLoss	True
174.955	0.47	Lose2	1.0	n/a	Yes	2.725	n/a	n/a	GoodResponse	0	n/a	n/a	5	17	Blank	AvoidedLoss	True
175.423	1.45	Lose2	1.0	n/a	Yes	2.725	n/a	5.0	GoodResponse	0	0.015	174.438	5	17	Feedback	AvoidedLoss	True
176.877	2.725	Lose2	1.0	n/a	Yes	2.725	n/a	n/a	GoodResponse	0	0.0	n/a	5	17	ISIslide	AvoidedLoss	True
179.619	0.25	Lose2	0.9473999999999999	0.0	No	2.731	0.019	n/a	NoResponse	-1	n/a	n/a	4	18	Cue	Loss	True
179.869	4.05	Lose2	0.9473999999999999	0.0	No	2.731	0.0	n/a	NoResponse	-1	n/a	n/a	4	18	Fixation	Loss	True
183.915	0.22	Lose2	0.9473999999999999	0.004	No	2.731	-0.004	2.0	NoResponse	-1	0.242	183.157	4	18	Target	Loss	True
184.149	0.48	Lose2	0.9473999999999999	n/a	No	2.731	n/a	n/a	NoResponse	-1	n/a	n/a	4	18	Blank	Loss	True
184.157	0.3	Lose2	0.9473999999999999	0.004	No	2.731	-0.004	2.0	NoResponse	-1	0.242	n/a	4	18	ButtonPress	Loss	True
184.617	1.45	Lose2	0.9473999999999999	n/a	No	2.731	n/a	5.0	NoResponse	-1	0.04	183.657	4	18	Feedback	Loss	True
186.071	2.731	Lose2	0.9473999999999999	n/a	No	2.731	n/a	2.0	NoResponse	-1	1.232	n/a	4	18	ISIslide	Loss	True
188.796	0.25	Control	0.95	0.0	Yes	2.954	-0.004	n/a	GoodResponse	0	n/a	n/a	4	19	Cue	Neutral	True
189.047	3.95	Control	0.95	0.0	Yes	2.954	0.001	n/a	GoodResponse	0	n/a	n/a	4	19	Fixation	Neutral	True
192.992	0.21	Control	0.95	0.004	Yes	2.954	-0.004	2.0	GoodResponse	0	0.193	192.185	4	19	Target	Neutral	True
193.185	0.3	Control	0.95	0.004	Yes	2.954	-0.004	2.0	GoodResponse	0	0.193	n/a	4	19	ButtonPress	Neutral	True
193.209	0.49	Control	0.95	n/a	Yes	2.954	n/a	n/a	GoodResponse	0	n/a	n/a	4	19	Blank	Neutral	True
193.694	1.45	Control	0.95	n/a	Yes	2.954	n/a	5.0	GoodResponse	0	0.036	192.73	4	19	Feedback	Neutral	True
195.148	2.954	Control	0.95	n/a	Yes	2.954	n/a	n/a	GoodResponse	0	0.0	n/a	4	19	ISIslide	Neutral	True
198.124	0.25	Control	0.9048	0.0	No	2.626	0.024	n/a	NoResponse	0	n/a	n/a	4	20	Cue	Neutral	True
198.375	4.05	Control	0.9048	0.0	No	2.626	0.001	n/a	NoResponse	0	n/a	n/a	4	20	Fixation	Neutral	True
202.42	0.2	Control	0.9048	0.004	No	2.626	-0.004	2.0	NoResponse	0	0.23	201.65	4	20	Target	Neutral	True
202.621	0.5	Control	0.9048	n/a	No	2.626	n/a	n/a	NoResponse	0	n/a	n/a	4	20	Blank	Neutral	True
202.65	0.3	Control	0.9048	0.004	No	2.626	-0.004	2.0	NoResponse	0	0.23	n/a	4	20	ButtonPress	Neutral	True
203.122	1.45	Control	0.9048	n/a	No	2.626	n/a	5.0	NoResponse	0	0.023	202.145	4	20	Feedback	Neutral	True
204.577	2.626	Control	0.9048	n/a	No	2.626	n/a	n/a	NoResponse	0	0.0	n/a	4	20	ISIslide	Neutral	True
207.218	0.25	Control	0.8636	0.0	No	2.782	0.018	n/a	LatePress	0	n/a	n/a	4	21	Cue	Neutral	True
207.469	4.1	Control	0.8636	0.0	No	2.782	0.001	n/a	LatePress	0	n/a	n/a	4	21	Fixation	Neutral	True
211.564	0.19	Control	0.8636	0.004	No	2.782	-0.004	2.0	LatePress	0	0.194	210.758	4	21	Target	Neutral	True
211.758	0.3	Control	0.8636	0.004	No	2.782	-0.004	2.0	LatePress	0	0.194	n/a	4	21	ButtonPress	Neutral	True
211.765	0.51	Control	0.8636	n/a	No	2.782	n/a	n/a	LatePress	0	n/a	n/a	4	21	Blank	Neutral	True
212.266	1.45	Control	0.8636	n/a	No	2.782	n/a	5.0	LatePress	0	0.049	211.315	4	21	Feedback	Neutral	True
213.721	2.782	Control	0.8636	n/a	No	2.782	n/a	n/a	LatePress	0	0.0	n/a	4	21	ISIslide	Neutral	True
216.513	0.25	Control	0.8261	0.0	No	2.787	0.013	n/a	NoResponse	0	n/a	n/a	4	22	Cue	Neutral	True
216.763	4.0	Control	0.8261	0.0	No	2.787	0.0	n/a	NoResponse	0	n/a	n/a	4	22	Fixation	Neutral	True
220.759	0.18	Control	0.8261	0.004	No	2.787	-0.004	2.0	NoResponse	0	0.213	219.972	4	22	Target	Neutral	True
220.942	0.52	Control	0.8261	n/a	No	2.787	n/a	n/a	NoResponse	0	n/a	n/a	4	22	Blank	Neutral	True
220.972	0.3	Control	0.8261	0.004	No	2.787	-0.004	2.0	NoResponse	0	0.213	n/a	4	22	ButtonPress	Neutral	True
221.461	1.45	Control	0.8261	n/a	No	2.787	n/a	5.0	NoResponse	0	0.025	220.486	4	22	Feedback	Neutral	True
222.915	2.787	Control	0.8261	n/a	No	2.787	n/a	n/a	NoResponse	0	0.0	n/a	4	22	ISIslide	Neutral	True
225.723	0.25	Control	0.7917000000000001	0.001	No	2.777	0.023	n/a	LatePress	0	n/a	n/a	4	23	Cue	Neutral	False
225.974	3.9	Control	0.7917000000000001	0.0	No	2.777	0.001	2.0	LatePress	0	0.026	225.0	4	23	Fixation	Neutral	False
226	0.3	Control	0.7917000000000001	0.0	No	2.777	0.001	2.0	LatePress	0	0.026	n/a	4	23	ButtonPress	Neutral	False
229.869	0.17	Control	0.7917000000000001	0.004	No	2.777	-0.004	2.0	LatePress	0	0.178	229.047	4	23	Target	Neutral	False
230.047	0.3	Control	0.7917000000000001	0.004	No	2.777	-0.004	2.0	LatePress	0	0.178	n/a	4	23	ButtonPress	Neutral	False
230.053	0.53	Control	0.7917000000000001	n/a	No	2.777	n/a	n/a	LatePress	0	n/a	n/a	4	23	Blank	Neutral	False
230.571	1.45	Control	0.7917000000000001	n/a	No	2.777	n/a	5.0	LatePress	0	0.037	229.608	4	23	Feedback	Neutral	False
232.026	2.777	Control	0.7917000000000001	n/a	No	2.777	n/a	n/a	LatePress	0	0.0	n/a	4	23	ISIslide	Neutral	False
234.817	0.25	Win2	0.76	0.0	No	3.133	0.017	n/a	NoResponse	0	n/a	n/a	4	24	Cue	MissedWin	True
235.068	3.95	Win2	0.76	0.0	No	3.133	0.001	n/a	NoResponse	0	n/a	n/a	4	24	Fixation	MissedWin	True
239.013	0.16	Win2	0.76	0.004	No	3.133	-0.004	2.0	NoResponse	0	0.173	238.186	4	24	Target	MissedWin	True
239.18	0.54	Win2	0.76	n/a	No	3.133	n/a	n/a	NoResponse	0	n/a	n/a	4	24	Blank	MissedWin	True
239.186	0.3	Win2	0.76	0.004	No	3.133	-0.004	2.0	NoResponse	0	0.173	n/a	4	24	ButtonPress	MissedWin	True
239.715	1.45	Win2	0.76	n/a	No	3.133	n/a	5.0	NoResponse	0	0.015	238.73	4	24	Feedback	MissedWin	True
241.17	3.133	Win2	0.76	n/a	No	3.133	n/a	n/a	NoResponse	0	0.0	n/a	4	24	ISIslide	MissedWin	True
244.329	0.25	Win2	0.7308	0.0	No	3.071	0.029	n/a	NoResponse	0	n/a	n/a	4	25	Cue	MissedWin	True
244.58	4.0	Win2	0.7308	0.0	No	3.071	0.001	n/a	NoResponse	0	n/a	n/a	4	25	Fixation	MissedWin	True
248.575	0.15	Win2	0.7308	0.004	No	3.071	-0.004	2.0	NoResponse	0	0.215	247.79	4	25	Target	MissedWin	True
248.726	0.55	Win2	0.7308	n/a	No	3.071	n/a	n/a	NoResponse	0	n/a	n/a	4	25	Blank	MissedWin	True
248.79	0.3	Win2	0.7308	0.004	No	3.071	-0.004	2.0	NoResponse	0	0.215	n/a	4	25	ButtonPress	MissedWin	True
249.277	1.45	Win2	0.7308	n/a	No	3.071	n/a	5.0	NoResponse	0	0.014	248.291	4	25	Feedback	MissedWin	True
250.732	3.071	Win2	0.7308	n/a	No	3.071	n/a	n/a	NoResponse	0	0.0	n/a	4	25	ISIslide	MissedWin	True
253.824	0.25	Win2	0.7037	0.0	No	2.926	0.024	n/a	NoResponse	0	n/a	n/a	4	26	Cue	MissedWin	True
254.075	3.95	Win2	0.7037	0.0	No	2.926	0.001	n/a	NoResponse	0	n/a	n/a	4	26	Fixation	MissedWin	True
258.02	0.15	Win2	0.7037	0.004	No	2.926	-0.004	2.0	NoResponse	0	0.179	257.199	4	26	Target	MissedWin	True
258.171	0.55	Win2	0.7037	n/a	No	2.926	n/a	n/a	NoResponse	0	n/a	n/a	4	26	Blank	MissedWin	True
258.199	0.3	Win2	0.7037	0.004	No	2.926	-0.004	2.0	NoResponse	0	0.179	n/a	4	26	ButtonPress	MissedWin	True
258.722	1.45	Win2	0.7037	n/a	No	2.926	n/a	5.0	NoResponse	0	0.032	257.754	4	26	Feedback	MissedWin	True
260.177	2.926	Win2	0.7037	n/a	No	2.926	n/a	2.0	NoResponse	0	0.064	n/a	4	26	ISIslide	MissedWin	True
263.102	0.25	Lose2	0.6786	0.0	No	2.848	0.002	n/a	NoResponse	-1	n/a	n/a	3	27	Cue	Loss	True
263.353	4.05	Lose2	0.6786	0.0	No	2.848	0.001	n/a	NoResponse	-1	n/a	n/a	3	27	Fixation	Loss	True
267.398	0.15	Lose2	0.6786	0.004	No	2.848	-0.004	2.0	NoResponse	-1	0.176	266.574	3	27	Target	Loss	True
267.549	0.55	Lose2	0.6786	n/a	No	2.848	n/a	n/a	NoResponse	-1	n/a	n/a	3	27	Blank	Loss	True
267.574	0.3	Lose2	0.6786	0.004	No	2.848	-0.004	2.0	NoResponse	-1	0.176	n/a	3	27	ButtonPress	Loss	True
268.1	1.45	Lose2	0.6786	n/a	No	2.848	n/a	5.0	NoResponse	-1	0.019	267.119	3	27	Feedback	Loss	True
269.555	2.848	Lose2	0.6786	n/a	No	2.848	n/a	n/a	NoResponse	-1	0.0	n/a	3	27	ISIslide	Loss	True
272.413	0.25	Control	0.6552	0.0	No	2.837	0.013	n/a	NoResponse	0	n/a	n/a	3	28	Cue	Neutral	True
272.664	4.05	Control	0.6552	0.0	No	2.837	0.001	n/a	NoResponse	0	n/a	n/a	3	28	Fixation	Neutral	True
276.71	0.15	Control	0.6552	0.003	No	2.837	-0.003	2.0	NoResponse	0	0.181	275.891	3	28	Target	Neutral	True
276.86	0.55	Control	0.6552	n/a	No	2.837	n/a	n/a	NoResponse	0	n/a	n/a	3	28	Blank	Neutral	True
276.891	0.3	Control	0.6552	0.003	No	2.837	-0.003	2.0	NoResponse	0	0.181	n/a	3	28	ButtonPress	Neutral	True
277.412	1.45	Control	0.6552	n/a	No	2.837	n/a	5.0	NoResponse	0	0.025	276.437	3	28	Feedback	Neutral	True
278.866	2.837	Control	0.6552	n/a	No	2.837	n/a	n/a	NoResponse	0	0.0	n/a	3	28	ISIslide	Neutral	True
281.725	0.25	Lose2	0.6667000000000001	0.0	Yes	2.825	0.025	n/a	GoodResponse	0	n/a	n/a	3	29	Cue	AvoidedLoss	True
281.975	3.95	Lose2	0.6667000000000001	0.0	Yes	2.825	0.0	n/a	GoodResponse	0	n/a	n/a	3	29	Fixation	AvoidedLoss	True
285.92	0.15	Lose2	0.6667000000000001	0.005	Yes	2.825	-0.005	2.0	GoodResponse	0	0.137	285.057	3	29	Target	AvoidedLoss	True
286.057	0.3	Lose2	0.6667000000000001	0.005	Yes	2.825	-0.005	2.0	GoodResponse	0	0.137	n/a	3	29	ButtonPress	AvoidedLoss	True
286.071	0.55	Lose2	0.6667000000000001	n/a	Yes	2.825	n/a	n/a	GoodResponse	0	n/a	n/a	3	29	Blank	AvoidedLoss	True
286.623	1.45	Lose2	0.6667000000000001	n/a	Yes	2.825	n/a	5.0	GoodResponse	0	0.033	285.656	3	29	Feedback	AvoidedLoss	True
288.077	2.825	Lose2	0.6667000000000001	n/a	Yes	2.825	n/a	n/a	GoodResponse	0	0.0	n/a	3	29	ISIslide	AvoidedLoss	True
290.919	0.25	Win2	0.6452	0.0	No	2.781	0.019	n/a	NoResponse	0	n/a	n/a	3	30	Cue	MissedWin	True
291.17	3.9	Win2	0.6452	0.0	No	2.781	0.001	n/a	NoResponse	0	n/a	n/a	3	30	Fixation	MissedWin	True
295.065	0.15	Win2	0.6452	0.004	No	2.781	-0.004	2.0	NoResponse	0	0.196	294.261	3	30	Target	MissedWin	True
295.215	0.55	Win2	0.6452	n/a	No	2.781	n/a	n/a	NoResponse	0	n/a	n/a	3	30	Blank	MissedWin	True
295.261	0.3	Win2	0.6452	0.004	No	2.781	-0.004	2.0	NoResponse	0	0.196	n/a	3	30	ButtonPress	MissedWin	True
295.767	1.45	Win2	0.6452	n/a	No	2.781	n/a	5.0	NoResponse	0	0.011	294.778	3	30	Feedback	MissedWin	True
297.221	2.781	Win2	0.6452	n/a	No	2.781	n/a	n/a	NoResponse	0	0.0	n/a	3	30	ISIslide	MissedWin	True
300.029	0.25	Lose2	0.625	0.001	No	2.821	0.029	n/a	NoResponse	-1	n/a	n/a	2	31	Cue	Loss	True
300.28	4.05	Lose2	0.625	0.0	No	2.821	0.001	n/a	NoResponse	-1	n/a	n/a	2	31	Fixation	Loss	True
304.326	0.16	Lose2	0.625	0.003	No	2.821	-0.003	2.0	NoResponse	-1	0.175	303.501	2	31	Target	Loss	True
304.493	0.54	Lose2	0.625	n/a	No	2.821	n/a	n/a	NoResponse	-1	n/a	n/a	2	31	Blank	Loss	True
304.501	0.3	Lose2	0.625	0.003	No	2.821	-0.003	2.0	NoResponse	-1	0.175	n/a	2	31	ButtonPress	Loss	True
305.028	1.45	Lose2	0.625	n/a	No	2.821	n/a	5.0	NoResponse	-1	0.019	304.047	2	31	Feedback	Loss	True
306.482	2.821	Lose2	0.625	n/a	No	2.821	n/a	n/a	NoResponse	-1	0.0	n/a	2	31	ISIslide	Loss	True
309.324	0.25	Lose2	0.6364	0.0	Yes	2.626	0.024	n/a	GoodResponse	0	n/a	n/a	2	32	Cue	AvoidedLoss	True
309.575	4.15	Lose2	0.6364	0.0	Yes	2.626	0.001	n/a	GoodResponse	0	n/a	n/a	2	32	Fixation	AvoidedLoss	True
313.72	0.17	Lose2	0.6364	0.004	Yes	2.626	-0.004	2.0	GoodResponse	0	0.166	312.886	2	32	Target	AvoidedLoss	True
313.886	0.3	Lose2	0.6364	0.004	Yes	2.626	-0.004	2.0	GoodResponse	0	0.166	n/a	2	32	ButtonPress	AvoidedLoss	True
313.904	0.53	Lose2	0.6364	n/a	Yes	2.626	n/a	n/a	GoodResponse	0	n/a	n/a	2	32	Blank	AvoidedLoss	True
314.423	1.45	Lose2	0.6364	n/a	Yes	2.626	n/a	5.0	GoodResponse	0	0.038	313.461	2	32	Feedback	AvoidedLoss	True
315.877	2.626	Lose2	0.6364	n/a	Yes	2.626	n/a	n/a	GoodResponse	0	0.0	n/a	2	32	ISIslide	AvoidedLoss	True
318.518	0.25	Win2	0.6175999999999999	0.0	No	2.682	0.018	n/a	NoResponse	0	n/a	n/a	2	33	Cue	MissedWin	True
318.769	4.0	Win2	0.6175999999999999	0.0	No	2.682	0.001	n/a	NoResponse	0	n/a	n/a	2	33	Fixation	MissedWin	True
322.764	0.18	Win2	0.6175999999999999	0.004	No	2.682	-0.004	2.0	NoResponse	0	0.205	321.969	2	33	Target	MissedWin	True
322.948	0.52	Win2	0.6175999999999999	n/a	No	2.682	n/a	n/a	NoResponse	0	n/a	n/a	2	33	Blank	MissedWin	True
322.969	0.3	Win2	0.6175999999999999	0.004	No	2.682	-0.004	2.0	NoResponse	0	0.205	n/a	2	33	ButtonPress	MissedWin	True
323.466	1.45	Win2	0.6175999999999999	n/a	No	2.682	n/a	5.0	NoResponse	0	0.02	322.486	2	33	Feedback	MissedWin	True
324.921	2.682	Win2	0.6175999999999999	n/a	No	2.682	n/a	2.0	NoResponse	0	0.073	n/a	2	33	ISIslide	MissedWin	True
327.612	0.25	Lose2	0.6286	0.0	Yes	2.638	0.012	n/a	GoodResponse	0	n/a	n/a	2	34	Cue	AvoidedLoss	False
327.863	4.05	Lose2	0.6286	0.0	Yes	2.638	0.001	2.0	GoodResponse	0	3.722	330.585	2	34	Fixation	AvoidedLoss	False
331.585	0.3	Lose2	0.6286	0.0	Yes	2.638	0.001	2.0	GoodResponse	0	3.722	n/a	2	34	ButtonPress	AvoidedLoss	False
331.908	0.19	Lose2	0.6286	0.004	Yes	2.638	-0.004	2.0	GoodResponse	0	0.166	331.074	2	34	Target	AvoidedLoss	False
332.074	0.3	Lose2	0.6286	0.004	Yes	2.638	-0.004	2.0	GoodResponse	0	0.166	n/a	2	34	ButtonPress	AvoidedLoss	False
332.109	0.51	Lose2	0.6286	n/a	Yes	2.638	n/a	n/a	GoodResponse	0	n/a	n/a	2	34	Blank	AvoidedLoss	False
332.61	1.45	Lose2	0.6286	n/a	Yes	2.638	n/a	5.0	GoodResponse	0	0.046	331.656	2	34	Feedback	AvoidedLoss	False
334.065	2.638	Lose2	0.6286	n/a	Yes	2.638	n/a	n/a	GoodResponse	0	0.0	n/a	2	34	ISIslide	AvoidedLoss	False
336.723	0.25	Lose2	0.6389	0.0	Yes	2.677	0.023	n/a	GoodResponse	0	n/a	n/a	2	35	Cue	AvoidedLoss	True
336.973	4.0	Lose2	0.6389	0.001	Yes	2.677	0.0	n/a	GoodResponse	0	n/a	n/a	2	35	Fixation	AvoidedLoss	True
340.969	0.2	Lose2	0.6389	0.004	Yes	2.677	-0.004	2.0	GoodResponse	0	0.188	340.157	2	35	Target	AvoidedLoss	True
341.157	0.3	Lose2	0.6389	0.004	Yes	2.677	-0.004	2.0	GoodResponse	0	0.188	n/a	2	35	ButtonPress	AvoidedLoss	True
341.169	0.5	Lose2	0.6389	n/a	Yes	2.677	n/a	n/a	GoodResponse	0	n/a	n/a	2	35	Blank	AvoidedLoss	True
341.671	1.45	Lose2	0.6389	n/a	Yes	2.677	n/a	5.0	GoodResponse	0	0.009	340.68	2	35	Feedback	AvoidedLoss	True
343.125	2.677	Lose2	0.6389	n/a	Yes	2.677	n/a	n/a	GoodResponse	0	0.0	n/a	2	35	ISIslide	AvoidedLoss	True
345.817	0.25	Control	0.6486	0.0	Yes	2.683	0.017	n/a	GoodResponse	0	n/a	n/a	2	36	Cue	Neutral	False
346.067	4.0	Control	0.6486	0.0	Yes	2.683	0.0	2.0	GoodResponse	0	3.84	348.907	2	36	Fixation	Neutral	False
349.907	0.3	Control	0.6486	0.0	Yes	2.683	0.0	2.0	GoodResponse	0	3.84	n/a	2	36	ButtonPress	Neutral	False
350.063	0.21	Control	0.6486	0.004	Yes	2.683	-0.004	2.0	GoodResponse	0	0.199	349.262	2	36	Target	Neutral	False
350.262	0.3	Control	0.6486	0.004	Yes	2.683	-0.004	2.0	GoodResponse	0	0.199	n/a	2	36	ButtonPress	Neutral	False
350.28	0.49	Control	0.6486	n/a	Yes	2.683	n/a	n/a	GoodResponse	0	n/a	n/a	2	36	Blank	Neutral	False
350.765	1.45	Control	0.6486	n/a	Yes	2.683	n/a	5.0	GoodResponse	0	0.037	349.802	2	36	Feedback	Neutral	False
352.219	2.683	Control	0.6486	n/a	Yes	2.683	n/a	n/a	GoodResponse	0	0.0	n/a	2	36	ISIslide	Neutral	False
354.927	0.25	Win2	0.6579	0.0	Yes	2.873	0.027	n/a	GoodResponse	1	n/a	n/a	3	37	Cue	Win	True
355.178	4.0	Win2	0.6579	0.0	Yes	2.873	0.001	n/a	GoodResponse	1	n/a	n/a	3	37	Fixation	Win	True
359.173	0.22	Win2	0.6579	0.004	Yes	2.873	-0.004	2.0	GoodResponse	1	0.182	358.355	3	37	Target	Win	True
359.355	0.3	Win2	0.6579	0.004	Yes	2.873	-0.004	2.0	GoodResponse	1	0.182	n/a	3	37	ButtonPress	Win	True
359.407	0.48	Win2	0.6579	n/a	Yes	2.873	n/a	n/a	GoodResponse	1	n/a	n/a	3	37	Blank	Win	True
359.875	1.45	Win2	0.6579	n/a	Yes	2.873	n/a	5.0	GoodResponse	1	0.001	358.876	3	37	Feedback	Win	True
361.33	2.873	Win2	0.6579	n/a	Yes	2.873	n/a	n/a	GoodResponse	1	0.0	n/a	3	37	ISIslide	Win	True
364.222	0.25	Lose2	0.6667000000000001	0.0	Yes	2.828	0.022	n/a	GoodResponse	0	n/a	n/a	3	38	Cue	AvoidedLoss	True
364.473	3.95	Lose2	0.6667000000000001	0.0	Yes	2.828	0.001	n/a	GoodResponse	0	n/a	n/a	3	38	Fixation	AvoidedLoss	True
368.418	0.22	Lose2	0.6667000000000001	0.004	Yes	2.828	-0.004	2.0	GoodResponse	0	0.184	367.602	3	38	Target	AvoidedLoss	True
368.602	0.3	Lose2	0.6667000000000001	0.004	Yes	2.828	-0.004	2.0	GoodResponse	0	0.184	n/a	3	38	ButtonPress	AvoidedLoss	True
368.652	0.48	Lose2	0.6667000000000001	n/a	Yes	2.828	n/a	n/a	GoodResponse	0	n/a	n/a	3	38	Blank	AvoidedLoss	True
369.12	1.45	Lose2	0.6667000000000001	n/a	Yes	2.828	n/a	5.0	GoodResponse	0	0.024	368.144	3	38	Feedback	AvoidedLoss	True
370.574	2.828	Lose2	0.6667000000000001	n/a	Yes	2.828	n/a	n/a	GoodResponse	0	0.0	n/a	3	38	ISIslide	AvoidedLoss	True
373.416	0.25	Win2	0.65	0.0	No	2.984	0.016	n/a	NoResponse	0	n/a	n/a	3	39	Cue	MissedWin	True
373.667	4.1	Win2	0.65	0.0	No	2.984	0.001	n/a	NoResponse	0	n/a	n/a	3	39	Fixation	MissedWin	True
377.762	0.21	Win2	0.65	0.004	No	2.984	-0.004	2.0	NoResponse	0	0.233	376.995	3	39	Target	MissedWin	True
377.98	0.49	Win2	0.65	n/a	No	2.984	n/a	n/a	NoResponse	0	n/a	n/a	3	39	Blank	MissedWin	True
377.995	0.3	Win2	0.65	0.004	No	2.984	-0.004	2.0	NoResponse	0	0.233	n/a	3	39	ButtonPress	MissedWin	True
378.464	1.45	Win2	0.65	n/a	No	2.984	n/a	5.0	NoResponse	0	0.046	377.51	3	39	Feedback	MissedWin	True
379.919	2.984	Win2	0.65	n/a	No	2.984	n/a	n/a	NoResponse	0	0.0	n/a	3	39	ISIslide	MissedWin	True
382.928	0.25	Win2	0.6585	0.0	Yes	2.722	0.028	n/a	GoodResponse	1	n/a	n/a	4	40	Cue	Win	True
383.179	3.95	Win2	0.6585	0.0	Yes	2.722	0.001	n/a	GoodResponse	1	n/a	n/a	4	40	Fixation	Win	True
387.124	0.22	Win2	0.6585	0.004	Yes	2.722	-0.004	2.0	GoodResponse	1	0.183	386.307	4	40	Target	Win	True
387.307	0.3	Win2	0.6585	0.004	Yes	2.722	-0.004	2.0	GoodResponse	1	0.183	n/a	4	40	ButtonPress	Win	True
387.358	0.48	Win2	0.6585	n/a	Yes	2.722	n/a	n/a	GoodResponse	1	n/a	n/a	4	40	Blank	Win	True
387.826	1.45	Win2	0.6585	n/a	Yes	2.722	n/a	5.0	GoodResponse	1	0.0	386.826	4	40	Feedback	Win	True
389.28	2.722	Win2	0.6585	n/a	Yes	2.722	n/a	2.0	GoodResponse	1	0.472	n/a	4	40	ISIslide	Win	True
392.005	0.25	Win2	0.6429	0.0	No	2.795	0.005	n/a	LatePress	0	n/a	n/a	4	41	Cue	MissedWin	True
392.256	3.9	Win2	0.6429	0.0	No	2.795	0.001	n/a	LatePress	0	n/a	n/a	4	41	Fixation	MissedWin	True
396.151	0.22	Win2	0.6429	0.004	No	2.795	-0.004	2.0	LatePress	0	0.224	395.375	4	41	Target	MissedWin	True
396.375	0.3	Win2	0.6429	0.004	No	2.795	-0.004	2.0	LatePress	0	0.224	n/a	4	41	ButtonPress	MissedWin	True
396.385	0.48	Win2	0.6429	n/a	No	2.795	n/a	n/a	LatePress	0	n/a	n/a	4	41	Blank	MissedWin	True
396.853	1.45	Win2	0.6429	n/a	No	2.795	n/a	5.0	LatePress	0	0.046	395.899	4	41	Feedback	MissedWin	True
398.307	2.795	Win2	0.6429	n/a	No	2.795	n/a	n/a	LatePress	0	0.0	n/a	4	41	ISIslide	MissedWin	True
401.116	0.25	Control	0.6512	0.0	Yes	2.934	0.016	n/a	GoodResponse	0	n/a	n/a	4	42	Cue	Neutral	True
401.366	3.85	Control	0.6512	0.0	Yes	2.934	0.0	n/a	GoodResponse	0	n/a	n/a	4	42	Fixation	Neutral	True
405.228	0.23	Control	0.6512	0.0	Yes	2.934	0.012	2.0	GoodResponse	0	0.211	404.439	4	42	Target	Neutral	True
405.439	0.3	Control	0.6512	0.0	Yes	2.934	0.012	2.0	GoodResponse	0	0.211	n/a	4	42	ButtonPress	Neutral	True
405.445	0.47	Control	0.6512	n/a	Yes	2.934	n/a	n/a	GoodResponse	0	n/a	n/a	4	42	Blank	Neutral	True
405.913	1.45	Control	0.6512	n/a	Yes	2.934	n/a	5.0	GoodResponse	0	0.011	404.924	4	42	Feedback	Neutral	True
407.368	2.934	Control	0.6512	n/a	Yes	2.934	n/a	n/a	GoodResponse	0	0.0	n/a	4	42	ISIslide	Neutral	True
410.327	0.25	Win2	0.6591	0.0	Yes	3.173	0.027	n/a	GoodResponse	1	n/a	n/a	5	43	Cue	Win	True
410.577	4.0	Win2	0.6591	0.0	Yes	3.173	0.0	n/a	GoodResponse	1	n/a	n/a	5	43	Fixation	Win	True
414.573	0.24	Win2	0.6591	0.004	Yes	3.173	-0.004	2.0	GoodResponse	1	0.174	413.747	5	43	Target	Win	True
414.747	0.3	Win2	0.6591	0.004	Yes	3.173	-0.004	2.0	GoodResponse	1	0.174	n/a	5	43	ButtonPress	Win	True
414.823	0.46	Win2	0.6591	n/a	Yes	3.173	n/a	n/a	GoodResponse	1	n/a	n/a	5	43	Blank	Win	True
415.275	1.45	Win2	0.6591	n/a	Yes	3.173	n/a	5.0	GoodResponse	1	0.015	414.29	5	43	Feedback	Win	True
416.729	3.173	Win2	0.6591	n/a	Yes	3.173	n/a	n/a	GoodResponse	1	0.0	n/a	5	43	ISIslide	Win	True
419.922	0.25	Win2	0.6444	0.0	No	2.978	0.022	n/a	NoResponse	0	n/a	n/a	5	44	Cue	MissedWin	True
420.173	4.0	Win2	0.6444	0.0	No	2.978	0.001	n/a	NoResponse	0	n/a	n/a	5	44	Fixation	MissedWin	True
424.168	0.24	Win2	0.6444	0.004	No	2.978	-0.004	2.0	NoResponse	0	0.27	423.438	5	44	Target	MissedWin	True
424.419	0.46	Win2	0.6444	n/a	No	2.978	n/a	n/a	NoResponse	0	n/a	n/a	5	44	Blank	MissedWin	True
424.438	0.3	Win2	0.6444	0.004	No	2.978	-0.004	2.0	NoResponse	0	0.27	n/a	5	44	ButtonPress	MissedWin	True
424.87	1.45	Win2	0.6444	n/a	No	2.978	n/a	5.0	NoResponse	0	0.03	423.9	5	44	Feedback	MissedWin	True
426.325	2.978	Win2	0.6444	n/a	No	2.978	n/a	n/a	NoResponse	0	0.0	n/a	5	44	ISIslide	MissedWin	True
429.317	0.25	Control	0.6522	0.0	Yes	2.883	0.017	n/a	GoodResponse	0	n/a	n/a	5	45	Cue	Neutral	True
429.568	4.1	Control	0.6522	0.0	Yes	2.883	0.001	n/a	GoodResponse	0	n/a	n/a	5	45	Fixation	Neutral	True
433.663	0.25	Control	0.6522	0.004	Yes	2.883	-0.004	2.0	GoodResponse	0	0.197	432.86	5	45	Target	Neutral	True
433.86	0.3	Control	0.6522	0.004	Yes	2.883	-0.004	2.0	GoodResponse	0	0.197	n/a	5	45	ButtonPress	Neutral	True
433.914	0.45	Control	0.6522	n/a	Yes	2.883	n/a	n/a	GoodResponse	0	n/a	n/a	5	45	Blank	Neutral	True
434.365	1.45	Control	0.6522	n/a	Yes	2.883	n/a	5.0	GoodResponse	0	0.047	433.412	5	45	Feedback	Neutral	True
435.82	2.883	Control	0.6522	n/a	Yes	2.883	n/a	n/a	GoodResponse	0	0.0	n/a	5	45	ISIslide	Neutral	True
438.728	0.25	Lose2	0.6596	0.0	Yes	3.372	0.028	n/a	GoodResponse	0	n/a	n/a	5	46	Cue	AvoidedLoss	True
438.979	4.0	Lose2	0.6596	0.0	Yes	3.372	0.001	n/a	GoodResponse	0	n/a	n/a	5	46	Fixation	AvoidedLoss	True
442.974	0.26	Lose2	0.6596	0.004	Yes	3.372	-0.004	2.0	GoodResponse	0	0.211	442.185	5	46	Target	AvoidedLoss	True
443.185	0.3	Lose2	0.6596	0.004	Yes	3.372	-0.004	2.0	GoodResponse	0	0.211	n/a	5	46	ButtonPress	AvoidedLoss	True
443.242	0.44	Lose2	0.6596	n/a	Yes	3.372	n/a	n/a	GoodResponse	0	n/a	n/a	5	46	Blank	AvoidedLoss	True
443.676	1.45	Lose2	0.6596	n/a	Yes	3.372	n/a	5.0	GoodResponse	0	0.004	442.68	5	46	Feedback	AvoidedLoss	True
445.131	3.372	Lose2	0.6596	n/a	Yes	3.372	n/a	n/a	GoodResponse	0	0.0	n/a	5	46	ISIslide	AvoidedLoss	True
448.524	0.25	Lose2	0.6667000000000001	0.0	Yes	2.676	0.024	n/a	GoodResponse	0	n/a	n/a	5	47	Cue	AvoidedLoss	True
448.775	4.0	Lose2	0.6667000000000001	0.0	Yes	2.676	0.001	n/a	GoodResponse	0	n/a	n/a	5	47	Fixation	AvoidedLoss	True
452.77	0.26	Lose2	0.6667000000000001	0.004	Yes	2.676	-0.004	2.0	GoodResponse	0	0.192	451.962	5	47	Target	AvoidedLoss	True
452.962	0.3	Lose2	0.6667000000000001	0.004	Yes	2.676	-0.004	2.0	GoodResponse	0	0.192	n/a	5	47	ButtonPress	AvoidedLoss	True
453.038	0.44	Lose2	0.6667000000000001	n/a	Yes	2.676	n/a	n/a	GoodResponse	0	n/a	n/a	5	47	Blank	AvoidedLoss	True
453.473	1.45	Lose2	0.6667000000000001	n/a	Yes	2.676	n/a	5.0	GoodResponse	0	0.011	452.484	5	47	Feedback	AvoidedLoss	True
454.927	2.676	Lose2	0.6667000000000001	n/a	Yes	2.676	n/a	n/a	GoodResponse	0	0.0	n/a	5	47	ISIslide	AvoidedLoss	True
457.618	0.25	Lose2	0.6735	0.0	Yes	3.032	0.018	n/a	GoodResponse	0	n/a	n/a	5	48	Cue	AvoidedLoss	True
457.869	3.95	Lose2	0.6735	0.0	Yes	3.032	0.001	n/a	GoodResponse	0	n/a	n/a	5	48	Fixation	AvoidedLoss	True
461.814	0.25	Lose2	0.6735	0.004	Yes	3.032	-0.004	2.0	GoodResponse	0	0.204	461.018	5	48	Target	AvoidedLoss	True
462.018	0.3	Lose2	0.6735	0.004	Yes	3.032	-0.004	2.0	GoodResponse	0	0.204	n/a	5	48	ButtonPress	AvoidedLoss	True
462.065	0.45	Lose2	0.6735	n/a	Yes	3.032	n/a	n/a	GoodResponse	0	n/a	n/a	5	48	Blank	AvoidedLoss	True
462.516	1.45	Lose2	0.6735	n/a	Yes	3.032	n/a	5.0	GoodResponse	0	0.042	461.558	5	48	Feedback	AvoidedLoss	True
463.971	3.032	Lose2	0.6735	n/a	Yes	3.032	n/a	n/a	GoodResponse	0	0.0	n/a	5	48	ISIslide	AvoidedLoss	True
467.013	0.25	Control	0.68	0.0	Yes	2.887	0.013	n/a	GoodResponse	0	n/a	n/a	5	49	Cue	Neutral	True
467.264	4.0	Control	0.68	0.0	Yes	2.887	0.001	n/a	GoodResponse	0	n/a	n/a	5	49	Fixation	Neutral	True
471.259	0.24	Control	0.68	0.004	Yes	2.887	-0.004	2.0	GoodResponse	0	0.191	470.45	5	49	Target	Neutral	True
471.45	0.3	Control	0.68	0.004	Yes	2.887	-0.004	2.0	GoodResponse	0	0.191	n/a	5	49	ButtonPress	Neutral	True
471.51	0.46	Control	0.68	n/a	Yes	2.887	n/a	n/a	GoodResponse	0	n/a	n/a	5	49	Blank	Neutral	True
471.961	1.45	Control	0.68	n/a	Yes	2.887	n/a	5.0	GoodResponse	0	0.011	470.972	5	49	Feedback	Neutral	True
473.416	2.887	Control	0.68	n/a	Yes	2.887	n/a	n/a	GoodResponse	0	0.0	n/a	5	49	ISIslide	Neutral	True
476.324	0.25	Control	0.6862999999999999	0.0	Yes	2.776	0.024	n/a	GoodResponse	0	n/a	n/a	5	50	Cue	Neutral	True
476.575	4.0	Control	0.6862999999999999	0.0	Yes	2.776	0.001	n/a	GoodResponse	0	n/a	n/a	5	50	Fixation	Neutral	True
480.57	0.23	Control	0.6862999999999999	0.004	Yes	2.776	-0.004	2.0	GoodResponse	0	0.199	479.769	5	50	Target	Neutral	True
480.769	0.3	Control	0.6862999999999999	0.004	Yes	2.776	-0.004	2.0	GoodResponse	0	0.199	n/a	5	50	ButtonPress	Neutral	True
480.804	0.47	Control	0.6862999999999999	n/a	Yes	2.776	n/a	n/a	GoodResponse	0	n/a	n/a	5	50	Blank	Neutral	True
481.272	1.45	Control	0.6862999999999999	n/a	Yes	2.776	n/a	5.0	GoodResponse	0	0.018	480.29	5	50	Feedback	Neutral	True
482.727	2.776	Control	0.6862999999999999	n/a	Yes	2.776	n/a	n/a	GoodResponse	0	0.0	n/a	5	50	ISIslide	Neutral	True
485.519	0.25	Control	0.6731	0.0	No	2.731	0.019	n/a	NoResponse	0	n/a	n/a	5	51	Cue	Neutral	False
485.769	3.95	Control	0.6731	0.0	No	2.731	0.0	n/a	NoResponse	0	n/a	n/a	5	51	Fixation	Neutral	False
489.731	0.22	Control	0.6731	0.0	No	2.731	0.012	n/a	NoResponse	0	n/a	n/a	5	51	Target	Neutral	False
489.948	0.48	Control	0.6731	n/a	No	2.731	n/a	n/a	NoResponse	0	n/a	n/a	5	51	Blank	Neutral	False
490.417	1.45	Control	0.6731	n/a	No	2.731	n/a	5.0	NoResponse	0	0.043	489.46	5	51	Feedback	Neutral	False
491.871	2.731	Control	0.6731	n/a	No	2.731	n/a	n/a	NoResponse	0	0.0	n/a	5	51	ISIslide	Neutral	False
494.612	0.25	Control	0.6792	0.001	Yes	2.638	0.012	n/a	GoodResponse	0	n/a	n/a	5	52	Cue	Neutral	True
494.863	4.05	Control	0.6792	0.0	Yes	2.638	0.001	n/a	GoodResponse	0	n/a	n/a	5	52	Fixation	Neutral	True
498.909	0.21	Control	0.6792	0.003	Yes	2.638	-0.003	2.0	GoodResponse	0	0.189	498.098	5	52	Target	Neutral	True
499.098	0.3	Control	0.6792	0.003	Yes	2.638	-0.003	2.0	GoodResponse	0	0.189	n/a	5	52	ButtonPress	Neutral	True
499.126	0.49	Control	0.6792	n/a	Yes	2.638	n/a	n/a	GoodResponse	0	n/a	n/a	5	52	Blank	Neutral	True
499.611	1.45	Control	0.6792	n/a	Yes	2.638	n/a	5.0	GoodResponse	0	0.02	498.631	5	52	Feedback	Neutral	True
501.065	2.638	Control	0.6792	n/a	Yes	2.638	n/a	n/a	GoodResponse	0	0.0	n/a	5	52	ISIslide	Neutral	True
503.723	0.25	Win2	0.6667000000000001	0.0	No	2.927	0.023	n/a	NoResponse	0	n/a	n/a	5	53	Cue	MissedWin	True
503.974	4.05	Win2	0.6667000000000001	0.0	No	2.927	0.001	n/a	NoResponse	0	n/a	n/a	5	53	Fixation	MissedWin	True
508.019	0.2	Win2	0.6667000000000001	0.004	No	2.927	-0.004	2.0	NoResponse	0	0.346	507.365	5	53	Target	MissedWin	True
508.22	0.5	Win2	0.6667000000000001	n/a	No	2.927	n/a	n/a	NoResponse	0	n/a	n/a	5	53	Blank	MissedWin	True
508.365	0.3	Win2	0.6667000000000001	0.004	No	2.927	-0.004	2.0	NoResponse	0	0.346	n/a	5	53	ButtonPress	MissedWin	True
508.721	1.45	Win2	0.6667000000000001	n/a	No	2.927	n/a	5.0	NoResponse	0	0.031	507.752	5	53	Feedback	MissedWin	True
510.176	2.927	Win2	0.6667000000000001	n/a	No	2.927	n/a	n/a	NoResponse	0	0.0	n/a	5	53	ISIslide	MissedWin	True
513.118	0.25	Win2	0.6727	0.0	Yes	2.732	0.018	n/a	GoodResponse	1	n/a	n/a	6	54	Cue	Win	True
513.369	3.95	Win2	0.6727	0.0	Yes	2.732	0.001	n/a	GoodResponse	1	n/a	n/a	6	54	Fixation	Win	True
517.314	0.19	Win2	0.6727	0.004	Yes	2.732	-0.004	2.0	GoodResponse	1	0.17	516.484	6	54	Target	Win	True
517.484	0.3	Win2	0.6727	0.004	Yes	2.732	-0.004	2.0	GoodResponse	1	0.17	n/a	6	54	ButtonPress	Win	True
517.514	0.51	Win2	0.6727	n/a	Yes	2.732	n/a	n/a	GoodResponse	1	n/a	n/a	6	54	Blank	Win	True
518.016	1.45	Win2	0.6727	n/a	Yes	2.732	n/a	5.0	GoodResponse	1	0.005	517.021	6	54	Feedback	Win	True
519.47	2.732	Win2	0.6727	n/a	Yes	2.732	n/a	n/a	GoodResponse	1	0.0	n/a	6	54	ISIslide	Win	True
522.229	0.25	Control	0.6607	0.0	No	3.021	0.029	n/a	NoResponse	0	n/a	n/a	6	55	Cue	Neutral	False
522.479	3.95	Control	0.6607	0.0	No	3.021	0.0	n/a	NoResponse	0	n/a	n/a	6	55	Fixation	Neutral	False
526.441	0.18	Control	0.6607	0.0	No	3.021	0.012	n/a	NoResponse	0	n/a	n/a	6	55	Target	Neutral	False
526.608	0.52	Control	0.6607	n/a	No	3.021	n/a	n/a	NoResponse	0	n/a	n/a	6	55	Blank	Neutral	False
527.127	1.45	Control	0.6607	n/a	No	3.021	n/a	5.0	NoResponse	0	0.016	526.143	6	55	Feedback	Neutral	False
528.581	3.021	Control	0.6607	n/a	No	3.021	n/a	n/a	NoResponse	0	0.0	n/a	6	55	ISIslide	Neutral	False
531.623	0.25	Control	0.6491	0.0	No	2.827	0.023	n/a	NoResponse	0	n/a	n/a	6	56	Cue	Neutral	True
531.874	3.95	Control	0.6491	0.0	No	2.827	0.001	n/a	NoResponse	0	n/a	n/a	6	56	Fixation	Neutral	True
535.819	0.18	Control	0.6491	0.004	No	2.827	-0.004	2.0	NoResponse	0	0.225	535.044	6	56	Target	Neutral	True
536.003	0.52	Control	0.6491	n/a	No	2.827	n/a	n/a	NoResponse	0	n/a	n/a	6	56	Blank	Neutral	True
536.044	0.3	Control	0.6491	0.004	No	2.827	-0.004	2.0	NoResponse	0	0.225	n/a	6	56	ButtonPress	Neutral	True
536.521	1.45	Control	0.6491	n/a	No	2.827	n/a	5.0	NoResponse	0	0.036	535.557	6	56	Feedback	Neutral	True
537.976	2.827	Control	0.6491	n/a	No	2.827	n/a	n/a	NoResponse	0	0.0	n/a	6	56	ISIslide	Neutral	True
540.818	0.25	Control	0.6552	0.0	Yes	3.482	0.018	n/a	GoodResponse	0	n/a	n/a	6	57	Cue	Neutral	True
541.068	4.0	Control	0.6552	0.0	Yes	3.482	0.0	n/a	GoodResponse	0	n/a	n/a	6	57	Fixation	Neutral	True
545.064	0.19	Control	0.6552	0.004	Yes	3.482	-0.004	2.0	GoodResponse	0	0.174	544.238	6	57	Target	Neutral	True
545.238	0.3	Control	0.6552	0.004	Yes	3.482	-0.004	2.0	GoodResponse	0	0.174	n/a	6	57	ButtonPress	Neutral	True
545.264	0.51	Control	0.6552	n/a	Yes	3.482	n/a	n/a	GoodResponse	0	n/a	n/a	6	57	Blank	Neutral	True
545.766	1.45	Control	0.6552	n/a	Yes	3.482	n/a	5.0	GoodResponse	0	0.011	544.777	6	57	Feedback	Neutral	True
547.22	3.482	Control	0.6552	n/a	Yes	3.482	n/a	n/a	GoodResponse	0	0.0	n/a	6	57	ISIslide	Neutral	True
550.714	0.25	Win2	0.6609999999999999	0.0	Yes	2.736	0.014	n/a	GoodResponse	1	n/a	n/a	7	58	Cue	Win	True
550.965	4.05	Win2	0.6609999999999999	0.0	Yes	2.736	0.001	n/a	GoodResponse	1	n/a	n/a	7	58	Fixation	Win	True
555.01	0.19	Win2	0.6609999999999999	0.004	Yes	2.736	-0.004	2.0	GoodResponse	1	0.178	554.188	7	58	Target	Win	True
555.188	0.3	Win2	0.6609999999999999	0.004	Yes	2.736	-0.004	2.0	GoodResponse	1	0.178	n/a	7	58	ButtonPress	Win	True
555.211	0.51	Win2	0.6609999999999999	n/a	Yes	2.736	n/a	n/a	GoodResponse	1	n/a	n/a	7	58	Blank	Win	True
555.712	1.45	Win2	0.6609999999999999	n/a	Yes	2.736	n/a	5.0	GoodResponse	1	0.016	554.728	7	58	Feedback	Win	True
557.167	2.736	Win2	0.6609999999999999	n/a	Yes	2.736	n/a	n/a	GoodResponse	1	0.0	n/a	7	58	ISIslide	Win	True
559.925	0.25	Lose2	0.65	0.0	No	2.675	0.025	n/a	NoResponse	-1	n/a	n/a	6	59	Cue	Loss	True
560.176	4.0	Lose2	0.65	0.0	No	2.675	0.001	n/a	NoResponse	-1	n/a	n/a	6	59	Fixation	Loss	True
564.171	0.19	Lose2	0.65	0.004	No	2.675	-0.004	2.0	NoResponse	-1	0.255	563.426	6	59	Target	Loss	True
564.371	0.51	Lose2	0.65	n/a	No	2.675	n/a	n/a	NoResponse	-1	n/a	n/a	6	59	Blank	Loss	True
564.426	0.3	Lose2	0.65	0.004	No	2.675	-0.004	2.0	NoResponse	-1	0.255	n/a	6	59	ButtonPress	Loss	True
564.873	1.45	Lose2	0.65	n/a	No	2.675	n/a	5.0	NoResponse	-1	0.025	563.898	6	59	Feedback	Loss	True
566.327	2.675	Lose2	0.65	n/a	No	2.675	n/a	n/a	NoResponse	-1	0.0	n/a	6	59	ISIslide	Loss	True
569.019	0.25	Control	0.6557	0.0	Yes	2.681	0.019	n/a	GoodResponse	0	n/a	n/a	6	60	Cue	Neutral	True
569.269	4.0	Control	0.6557	0.001	Yes	2.681	0.0	n/a	GoodResponse	0	n/a	n/a	6	60	Fixation	Neutral	True
573.265	0.2	Control	0.6557	0.004	Yes	2.681	-0.004	2.0	GoodResponse	0	0.174	572.439	6	60	Target	Neutral	True
573.439	0.3	Control	0.6557	0.004	Yes	2.681	-0.004	2.0	GoodResponse	0	0.174	n/a	6	60	ButtonPress	Neutral	True
573.465	0.5	Control	0.6557	n/a	Yes	2.681	n/a	n/a	GoodResponse	0	n/a	n/a	6	60	Blank	Neutral	True
573.967	1.45	Control	0.6557	n/a	Yes	2.681	n/a	5.0	GoodResponse	0	0.005	572.972	6	60	Feedback	Neutral	True
575.421	2.681	Control	0.6557	n/a	Yes	2.681	n/a	n/a	GoodResponse	0	0.0	n/a	6	60	ISIslide	Neutral	True
578.129	0.25	Lose2	0.6452	0.0	No	2.971	0.029	n/a	NoResponse	-1	n/a	n/a	5	61	Cue	Loss	True
578.38	4.0	Lose2	0.6452	0.0	No	2.971	0.001	n/a	NoResponse	-1	n/a	n/a	5	61	Fixation	Loss	True
582.375	0.2	Lose2	0.6452	0.004	No	2.971	-0.004	2.0	NoResponse	-1	0.32	581.695	5	61	Target	Loss	True
582.576	0.5	Lose2	0.6452	n/a	No	2.971	n/a	n/a	NoResponse	-1	n/a	n/a	5	61	Blank	Loss	True
582.695	0.3	Lose2	0.6452	0.004	No	2.971	-0.004	2.0	NoResponse	-1	0.32	n/a	5	61	ButtonPress	Loss	True
583.078	1.45	Lose2	0.6452	n/a	No	2.971	n/a	5.0	NoResponse	-1	0.016	582.094	5	61	Feedback	Loss	True
584.532	2.971	Lose2	0.6452	n/a	No	2.971	n/a	n/a	NoResponse	-1	0.0	n/a	5	61	ISIslide	Loss	True
587.524	0.25	Lose2	0.6349	0.0	No	2.876	0.024	n/a	NoResponse	-1	n/a	n/a	4	62	Cue	Loss	True
587.775	3.9	Lose2	0.6349	0.0	No	2.876	0.001	n/a	NoResponse	-1	n/a	n/a	4	62	Fixation	Loss	True
591.67	0.21	Lose2	0.6349	0.004	No	2.876	-0.004	2.0	NoResponse	-1	0.343	591.013	4	62	Target	Loss	True
591.887	0.49	Lose2	0.6349	n/a	No	2.876	n/a	n/a	NoResponse	-1	n/a	n/a	4	62	Blank	Loss	True
592.013	0.3	Lose2	0.6349	0.004	No	2.876	-0.004	2.0	NoResponse	-1	0.343	n/a	4	62	ButtonPress	Loss	True
592.372	1.45	Lose2	0.6349	n/a	No	2.876	n/a	5.0	NoResponse	-1	0.039	591.411	4	62	Feedback	Loss	True
593.826	2.876	Lose2	0.6349	n/a	No	2.876	n/a	n/a	NoResponse	-1	0.0	n/a	4	62	ISIslide	Loss	True
596.718	0.25	Lose2	0.6406000000000001	0.0	Yes	2.632	0.018	n/a	GoodResponse	0	n/a	n/a	4	63	Cue	AvoidedLoss	True
596.969	4.05	Lose2	0.6406000000000001	0.0	Yes	2.632	0.001	n/a	GoodResponse	0	n/a	n/a	4	63	Fixation	AvoidedLoss	True
601.015	0.22	Lose2	0.6406000000000001	0.003	Yes	2.632	-0.003	2.0	GoodResponse	0	0.177	600.192	4	63	Target	AvoidedLoss	True
601.192	0.3	Lose2	0.6406000000000001	0.003	Yes	2.632	-0.003	2.0	GoodResponse	0	0.177	n/a	4	63	ButtonPress	AvoidedLoss	True
601.249	0.48	Lose2	0.6406000000000001	n/a	Yes	2.632	n/a	n/a	GoodResponse	0	n/a	n/a	4	63	Blank	AvoidedLoss	True
601.717	1.45	Lose2	0.6406000000000001	n/a	Yes	2.632	n/a	5.0	GoodResponse	0	0.011	600.728	4	63	Feedback	AvoidedLoss	True
603.171	2.632	Lose2	0.6406000000000001	n/a	Yes	2.632	n/a	n/a	GoodResponse	0	0.0	n/a	4	63	ISIslide	AvoidedLoss	True
605.829	0.25	Win2	0.6462	0.0	Yes	3.121	0.029	n/a	GoodResponse	1	n/a	n/a	5	64	Cue	Win	True
606.08	4.15	Win2	0.6462	0.0	Yes	3.121	0.001	n/a	GoodResponse	1	n/a	n/a	5	64	Fixation	Win	True
610.226	0.23	Win2	0.6462	0.003	Yes	3.121	-0.003	2.0	GoodResponse	1	0.209	609.435	5	64	Target	Win	True
610.435	0.3	Win2	0.6462	0.003	Yes	3.121	-0.003	2.0	GoodResponse	1	0.209	n/a	5	64	ButtonPress	Win	True
610.46	0.47	Win2	0.6462	n/a	Yes	3.121	n/a	n/a	GoodResponse	1	n/a	n/a	5	64	Blank	Win	True
610.928	1.45	Win2	0.6462	n/a	Yes	3.121	n/a	5.0	GoodResponse	1	0.019	609.947	5	64	Feedback	Win	True
612.382	3.121	Win2	0.6462	n/a	Yes	3.121	n/a	n/a	GoodResponse	1	0.0	n/a	5	64	ISIslide	Win	True
615.525	0.25	Control	0.6515000000000001	0.0	Yes	2.775	0.025	n/a	GoodResponse	0	n/a	n/a	5	65	Cue	Neutral	True
615.776	4.0	Control	0.6515000000000001	0.0	Yes	2.775	0.001	n/a	GoodResponse	0	n/a	n/a	5	65	Fixation	Neutral	True
619.771	0.24	Control	0.6515000000000001	0.004	Yes	2.775	-0.004	2.0	GoodResponse	0	0.218	618.989	5	65	Target	Neutral	True
619.989	0.3	Control	0.6515000000000001	0.004	Yes	2.775	-0.004	2.0	GoodResponse	0	0.218	n/a	5	65	ButtonPress	Neutral	True
620.022	0.46	Control	0.6515000000000001	n/a	Yes	2.775	n/a	n/a	GoodResponse	0	n/a	n/a	5	65	Blank	Neutral	True
620.473	1.45	Control	0.6515000000000001	n/a	Yes	2.775	n/a	5.0	GoodResponse	0	0.036	619.509	5	65	Feedback	Neutral	True
621.927	2.775	Control	0.6515000000000001	n/a	Yes	2.775	n/a	n/a	GoodResponse	0	0.0	n/a	5	65	ISIslide	Neutral	True
624.719	0.25	Win2	0.6418	0.0	No	2.781	0.019	n/a	NoResponse	0	n/a	n/a	5	66	Cue	MissedWin	True
624.97	3.9	Win2	0.6418	0.0	No	2.781	0.001	n/a	NoResponse	0	n/a	n/a	5	66	Fixation	MissedWin	True
628.865	0.25	Win2	0.6418	0.004	No	2.781	-0.004	2.0	NoResponse	0	0.332	628.197	5	66	Target	MissedWin	True
629.115	0.45	Win2	0.6418	n/a	No	2.781	n/a	n/a	NoResponse	0	n/a	n/a	5	66	Blank	MissedWin	True
629.197	0.3	Win2	0.6418	0.004	No	2.781	-0.004	2.0	NoResponse	0	0.332	n/a	5	66	ButtonPress	MissedWin	True
629.567	1.45	Win2	0.6418	n/a	No	2.781	n/a	5.0	NoResponse	0	0.014	628.581	5	66	Feedback	MissedWin	True
631.021	2.781	Win2	0.6418	n/a	No	2.781	n/a	n/a	NoResponse	0	0.0	n/a	5	66	ISIslide	MissedWin	True
633.813	0.25	Control	0.6470999999999999	0.0	Yes	2.737	0.013	n/a	GoodResponse	0	n/a	n/a	5	67	Cue	Neutral	True
634.064	3.95	Control	0.6470999999999999	0.0	Yes	2.737	0.001	n/a	GoodResponse	0	n/a	n/a	5	67	Fixation	Neutral	True
638.009	0.26	Control	0.6470999999999999	0.004	Yes	2.737	-0.004	2.0	GoodResponse	0	0.193	637.202	5	67	Target	Neutral	True
638.202	0.3	Control	0.6470999999999999	0.004	Yes	2.737	-0.004	2.0	GoodResponse	0	0.193	n/a	5	67	ButtonPress	Neutral	True
638.276	0.44	Control	0.6470999999999999	n/a	Yes	2.737	n/a	n/a	GoodResponse	0	n/a	n/a	5	67	Blank	Neutral	True
638.711	1.45	Control	0.6470999999999999	n/a	Yes	2.737	n/a	5.0	GoodResponse	0	0.041	637.752	5	67	Feedback	Neutral	True
640.165	2.737	Control	0.6470999999999999	n/a	Yes	2.737	n/a	n/a	GoodResponse	0	0.0	n/a	5	67	ISIslide	Neutral	True
642.924	0.25	Win2	0.6522	0.0	Yes	3.076	0.024	n/a	GoodResponse	1	n/a	n/a	6	68	Cue	Win	True
643.174	4.0	Win2	0.6522	0.0	Yes	3.076	0.0	n/a	GoodResponse	1	n/a	n/a	6	68	Fixation	Win	True
647.17	0.27	Win2	0.6522	0.004	Yes	3.076	-0.004	2.0	GoodResponse	1	0.174	646.344	6	68	Target	Win	True
647.344	0.3	Win2	0.6522	0.004	Yes	3.076	-0.004	2.0	GoodResponse	1	0.174	n/a	6	68	ButtonPress	Win	True
647.454	0.43	Win2	0.6522	n/a	Yes	3.076	n/a	n/a	GoodResponse	1	n/a	n/a	6	68	Blank	Win	True
647.872	1.45	Win2	0.6522	n/a	Yes	3.076	n/a	5.0	GoodResponse	1	0.002	646.874	6	68	Feedback	Win	True
649.326	3.076	Win2	0.6522	n/a	Yes	3.076	n/a	n/a	GoodResponse	1	0.0	n/a	6	68	ISIslide	Win	True
652.419	0.25	Win2	0.6570999999999999	0.0	Yes	3.231	0.019	n/a	GoodResponse	1	n/a	n/a	7	69	Cue	Win	True
652.669	3.95	Win2	0.6570999999999999	0.0	Yes	3.231	0.0	n/a	GoodResponse	1	n/a	n/a	7	69	Fixation	Win	True
656.615	0.28	Win2	0.6570999999999999	0.004	Yes	3.231	-0.004	2.0	GoodResponse	1	0.209	655.824	7	69	Target	Win	True
656.824	0.3	Win2	0.6570999999999999	0.004	Yes	3.231	-0.004	2.0	GoodResponse	1	0.209	n/a	7	69	ButtonPress	Win	True
656.899	0.42	Win2	0.6570999999999999	n/a	Yes	3.231	n/a	n/a	GoodResponse	1	n/a	n/a	7	69	Blank	Win	True
657.317	1.45	Win2	0.6570999999999999	n/a	Yes	3.231	n/a	5.0	GoodResponse	1	0.02	656.337	7	69	Feedback	Win	True
658.771	3.231	Win2	0.6570999999999999	n/a	Yes	3.231	n/a	n/a	GoodResponse	1	0.0	n/a	7	69	ISIslide	Win	True
662.014	0.25	Lose2	0.6479	0.0	No	3.036	0.014	n/a	NoResponse	-1	n/a	n/a	6	70	Cue	Loss	False
662.265	4.05	Lose2	0.6479	0.0	No	3.036	0.001	n/a	NoResponse	-1	n/a	n/a	6	70	Fixation	Loss	False
666.31	0.28	Lose2	0.6479	0.004	No	3.036	-0.004	n/a	NoResponse	-1	n/a	n/a	6	70	Target	Loss	False
666.594	0.42	Lose2	0.6479	n/a	No	3.036	n/a	n/a	NoResponse	-1	n/a	n/a	6	70	Blank	Loss	False
667.012	1.45	Lose2	0.6479	n/a	No	3.036	n/a	5.0	NoResponse	-1	0.033	666.045	6	70	Feedback	Loss	False
668.467	3.036	Lose2	0.6479	n/a	No	3.036	n/a	n/a	NoResponse	-1	0.0	n/a	6	70	ISIslide	Loss	False
671.526	0.25	Win2	0.6528	0.0	Yes	2.724	0.026	n/a	GoodResponse	1	n/a	n/a	7	71	Cue	Win	True
671.777	4.05	Win2	0.6528	0.0	Yes	2.724	0.001	n/a	GoodResponse	1	n/a	n/a	7	71	Fixation	Win	True
675.822	0.29	Win2	0.6528	0.004	Yes	2.724	-0.004	2.0	GoodResponse	1	0.174	674.996	7	71	Target	Win	True
675.996	0.3	Win2	0.6528	0.004	Yes	2.724	-0.004	2.0	GoodResponse	1	0.174	n/a	7	71	ButtonPress	Win	True
676.123	0.41	Win2	0.6528	n/a	Yes	2.724	n/a	n/a	GoodResponse	1	n/a	n/a	7	71	Blank	Win	True
676.524	1.45	Win2	0.6528	n/a	Yes	2.724	n/a	5.0	GoodResponse	1	0.033	675.557	7	71	Feedback	Win	True
677.979	2.724	Win2	0.6528	n/a	Yes	2.724	n/a	n/a	GoodResponse	1	0.0	n/a	7	71	ISIslide	Win	True
680.72	0.25	Win2	0.6575	0.0	Yes	2.78	0.02	n/a	GoodResponse	1	n/a	n/a	8	72	Cue	Win	True
680.971	4.1	Win2	0.6575	0.0	Yes	2.78	0.001	n/a	GoodResponse	1	n/a	n/a	8	72	Fixation	Win	True
685.066	0.3	Win2	0.6575	0.004	Yes	2.78	-0.004	2.0	GoodResponse	1	0.215	684.281	8	72	Target	Win	True
685.281	0.3	Win2	0.6575	0.004	Yes	2.78	-0.004	2.0	GoodResponse	1	0.215	n/a	8	72	ButtonPress	Win	True
685.367	0.4	Win2	0.6575	n/a	Yes	2.78	n/a	n/a	GoodResponse	1	n/a	n/a	8	72	Blank	Win	True
685.769	1.45	Win2	0.6575	n/a	Yes	2.78	n/a	5.0	GoodResponse	1	0.007	684.776	8	72	Feedback	Win	True
687.223	2.78	Win2	0.6575	n/a	Yes	2.78	n/a	n/a	GoodResponse	1	0.0	n/a	8	72	ISIslide	Win	True
690.015	0.25	Win2	0.6622	0.0	Yes	2.685	0.015	n/a	GoodResponse	1	n/a	n/a	9	73	Cue	Win	True
690.265	4.0	Win2	0.6622	0.0	Yes	2.685	0.0	n/a	GoodResponse	1	n/a	n/a	9	73	Fixation	Win	True
694.261	0.3	Win2	0.6622	0.004	Yes	2.685	-0.004	2.0	GoodResponse	1	0.204	693.465	9	73	Target	Win	True
694.465	0.3	Win2	0.6622	0.004	Yes	2.685	-0.004	2.0	GoodResponse	1	0.204	n/a	9	73	ButtonPress	Win	True
694.562	0.4	Win2	0.6622	n/a	Yes	2.685	n/a	n/a	GoodResponse	1	n/a	n/a	9	73	Blank	Win	True
694.963	1.45	Win2	0.6622	n/a	Yes	2.685	n/a	5.0	GoodResponse	1	0.032	693.995	9	73	Feedback	Win	True
696.417	2.685	Win2	0.6622	n/a	Yes	2.685	n/a	n/a	GoodResponse	1	0.0	n/a	9	73	ISIslide	Win	True
699.125	0.25	Lose2	0.6667000000000001	0.0	Yes	2.625	0.025	n/a	GoodResponse	0	n/a	n/a	9	74	Cue	AvoidedLoss	True
699.376	4.05	Lose2	0.6667000000000001	0.0	Yes	2.625	0.001	n/a	GoodResponse	0	n/a	n/a	9	74	Fixation	AvoidedLoss	True
703.421	0.3	Lose2	0.6667000000000001	0.004	Yes	2.625	-0.004	2.0	GoodResponse	0	0.172	702.593	9	74	Target	AvoidedLoss	True
703.593	0.3	Lose2	0.6667000000000001	0.004	Yes	2.625	-0.004	2.0	GoodResponse	0	0.172	n/a	9	74	ButtonPress	AvoidedLoss	True
703.722	0.4	Lose2	0.6667000000000001	n/a	Yes	2.625	n/a	n/a	GoodResponse	0	n/a	n/a	9	74	Blank	AvoidedLoss	True
704.124	1.45	Lose2	0.6667000000000001	n/a	Yes	2.625	n/a	5.0	GoodResponse	0	0.042	703.166	9	74	Feedback	AvoidedLoss	True
705.578	2.625	Lose2	0.6667000000000001	n/a	Yes	2.625	n/a	n/a	GoodResponse	0	0.0	n/a	9	74	ISIslide	AvoidedLoss	True
708.219	0.25	Lose2	0.6711	0.0	Yes	2.931	0.019	n/a	GoodResponse	0	n/a	n/a	9	75	Cue	AvoidedLoss	True
708.47	3.95	Lose2	0.6711	0.0	Yes	2.931	0.001	n/a	GoodResponse	0	n/a	n/a	9	75	Fixation	AvoidedLoss	True
712.415	0.29	Lose2	0.6711	0.004	Yes	2.931	-0.004	2.0	GoodResponse	0	0.263	711.678	9	75	Target	AvoidedLoss	True
712.678	0.3	Lose2	0.6711	0.004	Yes	2.931	-0.004	2.0	GoodResponse	0	0.263	n/a	9	75	ButtonPress	AvoidedLoss	True
712.716	0.41	Lose2	0.6711	n/a	Yes	2.931	n/a	n/a	GoodResponse	0	n/a	n/a	9	75	Blank	AvoidedLoss	True
713.117	1.45	Lose2	0.6711	n/a	Yes	2.931	n/a	5.0	GoodResponse	0	0.025	712.142	9	75	Feedback	AvoidedLoss	True
714.572	2.931	Lose2	0.6711	n/a	Yes	2.931	n/a	n/a	GoodResponse	0	0.0	n/a	9	75	ISIslide	AvoidedLoss	True
717.514	0.25	Control	0.6753	0.0	Yes	3.236	0.014	n/a	GoodResponse	0	n/a	n/a	9	76	Cue	Neutral	False
717.764	4.05	Control	0.6753	0.001	Yes	3.236	0.0	2.0	GoodResponse	0	0.012	716.776	9	76	Fixation	Neutral	False
717.776	0.3	Control	0.6753	0.001	Yes	3.236	0.0	2.0	GoodResponse	0	0.012	n/a	9	76	ButtonPress	Neutral	False
721.81	0.28	Control	0.6753	0.004	Yes	3.236	-0.004	2.0	GoodResponse	0	0.211	721.021	9	76	Target	Neutral	False
722.021	0.3	Control	0.6753	0.004	Yes	3.236	-0.004	2.0	GoodResponse	0	0.211	n/a	9	76	ButtonPress	Neutral	False
722.094	0.42	Control	0.6753	n/a	Yes	3.236	n/a	n/a	GoodResponse	0	n/a	n/a	9	76	Blank	Neutral	False
722.512	1.45	Control	0.6753	n/a	Yes	3.236	n/a	5.0	GoodResponse	0	0.044	721.556	9	76	Feedback	Neutral	False
723.966	3.236	Control	0.6753	n/a	Yes	3.236	n/a	n/a	GoodResponse	0	0.0	n/a	9	76	ISIslide	Neutral	False
727.226	0.25	Lose2	0.6795	0.0	Yes	2.574	0.026	n/a	GoodResponse	0	n/a	n/a	9	77	Cue	AvoidedLoss	True
727.477	3.95	Lose2	0.6795	0.0	Yes	2.574	0.001	n/a	GoodResponse	0	n/a	n/a	9	77	Fixation	AvoidedLoss	True
731.422	0.27	Lose2	0.6795	0.004	Yes	2.574	-0.004	2.0	GoodResponse	0	0.214	730.636	9	77	Target	AvoidedLoss	True
731.636	0.3	Lose2	0.6795	0.004	Yes	2.574	-0.004	2.0	GoodResponse	0	0.214	n/a	9	77	ButtonPress	AvoidedLoss	True
731.706	0.43	Lose2	0.6795	n/a	Yes	2.574	n/a	n/a	GoodResponse	0	n/a	n/a	9	77	Blank	AvoidedLoss	True
732.124	1.45	Lose2	0.6795	n/a	Yes	2.574	n/a	5.0	GoodResponse	0	0.042	731.166	9	77	Feedback	AvoidedLoss	True
733.578	2.574	Lose2	0.6795	n/a	Yes	2.574	n/a	n/a	GoodResponse	0	0.0	n/a	9	77	ISIslide	AvoidedLoss	True
