onset	duration	cue_type	current_mean_accuracy	duration_error	is_hit	isi_adjusted	onset_delay	response	response_type	reward	rt	rt_time	total_reward	trial_number	trial_phase	trial_type	one_press
11.097	0.25	Control	1.0	0.0	Yes	2.953	-0.003	n/a	GoodResponse	0	n/a	n/a	0	0	Cue	Neutral	True
11.348	3.85	Control	1.0	0.0	Yes	2.953	0.001	n/a	GoodResponse	0	n/a	n/a	0	0	Fixation	Neutral	True
15.193	0.4	Control	1.0	0.004	Yes	2.953	-0.004	4.0	GoodResponse	0	0.239	14.432	0	0	Target	Neutral	True
15.432	0.3	Control	1.0	0.004	Yes	2.953	-0.004	4.0	GoodResponse	0	0.239	n/a	0	0	ButtonPress	Neutral	True
15.594	0.3	Control	1.0	n/a	Yes	2.953	n/a	n/a	GoodResponse	0	n/a	n/a	0	0	Blank	Neutral	True
15.895	1.45	Control	1.0	n/a	Yes	2.953	n/a	5.0	GoodResponse	0	0.031	14.926	0	0	Feedback	Neutral	True
17.349	2.953	Control	1.0	n/a	Yes	2.953	n/a	n/a	GoodResponse	0	0.0	n/a	0	0	ISIslide	Neutral	True
20.325	0.25	Lose2	1.0	0.0	Yes	2.775	0.025	n/a	GoodResponse	0	n/a	n/a	0	1	Cue	AvoidedLoss	True
20.575	4.0	Lose2	1.0	0.0	Yes	2.775	0.0	n/a	GoodResponse	0	n/a	n/a	0	1	Fixation	AvoidedLoss	True
24.571	0.39	Lose2	1.0	0.004	Yes	2.775	-0.004	4.0	GoodResponse	0	0.226	23.797	0	1	Target	AvoidedLoss	True
24.797	0.3	Lose2	1.0	0.004	Yes	2.775	-0.004	4.0	GoodResponse	0	0.226	n/a	0	1	ButtonPress	AvoidedLoss	True
24.972	0.31	Lose2	1.0	n/a	Yes	2.775	n/a	n/a	GoodResponse	0	n/a	n/a	0	1	Blank	AvoidedLoss	True
25.273	1.45	Lose2	1.0	n/a	Yes	2.775	n/a	5.0	GoodResponse	0	0.018	24.291	0	1	Feedback	AvoidedLoss	True
26.727	2.775	Lose2	1.0	n/a	Yes	2.775	n/a	n/a	GoodResponse	0	0.0	n/a	0	1	ISIslide	AvoidedLoss	True
29.519	0.25	Control	1.0	0.0	Yes	2.581	0.019	n/a	GoodResponse	0	n/a	n/a	0	2	Cue	Neutral	True
29.769	4.1	Control	1.0	0.0	Yes	2.581	0.0	n/a	GoodResponse	0	n/a	n/a	0	2	Fixation	Neutral	True
33.865	0.38	Control	1.0	0.004	Yes	2.581	-0.004	4.0	GoodResponse	0	0.228	33.093	0	2	Target	Neutral	True
34.093	0.3	Control	1.0	0.004	Yes	2.581	-0.004	4.0	GoodResponse	0	0.228	n/a	0	2	ButtonPress	Neutral	True
34.249	0.32	Control	1.0	n/a	Yes	2.581	n/a	n/a	GoodResponse	0	n/a	n/a	0	2	Blank	Neutral	True
34.567	1.45	Control	1.0	n/a	Yes	2.581	n/a	5.0	GoodResponse	0	0.041	33.608	0	2	Feedback	Neutral	True
36.021	2.581	Control	1.0	n/a	Yes	2.581	n/a	n/a	GoodResponse	0	0.0	n/a	0	2	ISIslide	Neutral	True
38.629	0.25	Win2	1.0	0.0	Yes	2.821	0.029	n/a	GoodResponse	1	n/a	n/a	1	3	Cue	Win	True
38.88	3.95	Win2	1.0	0.0	Yes	2.821	0.001	n/a	GoodResponse	1	n/a	n/a	1	3	Fixation	Win	True
42.825	0.37	Win2	1.0	0.004	Yes	2.821	-0.004	4.0	GoodResponse	1	0.235	42.06	1	3	Target	Win	True
43.06	0.3	Win2	1.0	0.004	Yes	2.821	-0.004	4.0	GoodResponse	1	0.235	n/a	1	3	ButtonPress	Win	True
43.21	0.33	Win2	1.0	n/a	Yes	2.821	n/a	n/a	GoodResponse	1	n/a	n/a	1	3	Blank	Win	True
43.527	1.45	Win2	1.0	n/a	Yes	2.821	n/a	5.0	GoodResponse	1	0.008	42.535	1	3	Feedback	Win	True
44.982	2.821	Win2	1.0	n/a	Yes	2.821	n/a	n/a	GoodResponse	1	0.0	n/a	1	3	ISIslide	Win	True
47.823	0.25	Win2	1.0	0.0	Yes	3.277	0.023	n/a	GoodResponse	1	n/a	n/a	2	4	Cue	Win	True
48.074	4.0	Win2	1.0	0.0	Yes	3.277	0.001	n/a	GoodResponse	1	n/a	n/a	2	4	Fixation	Win	True
52.069	0.36	Win2	1.0	0.004	Yes	3.277	-0.004	4.0	GoodResponse	1	0.217	51.286	2	4	Target	Win	True
52.286	0.3	Win2	1.0	0.004	Yes	3.277	-0.004	4.0	GoodResponse	1	0.217	n/a	2	4	ButtonPress	Win	True
52.437	0.34	Win2	1.0	n/a	Yes	3.277	n/a	n/a	GoodResponse	1	n/a	n/a	2	4	Blank	Win	True
52.771	1.45	Win2	1.0	n/a	Yes	3.277	n/a	5.0	GoodResponse	1	0.033	51.804	2	4	Feedback	Win	True
54.226	3.277	Win2	1.0	n/a	Yes	3.277	n/a	n/a	GoodResponse	1	0.0	n/a	2	4	ISIslide	Win	True
57.519	0.25	Win2	1.0	0.0	Yes	2.781	0.019	n/a	GoodResponse	1	n/a	n/a	3	5	Cue	Win	True
57.77	4.0	Win2	1.0	0.0	Yes	2.781	0.001	n/a	GoodResponse	1	n/a	n/a	3	5	Fixation	Win	True
61.765	0.35	Win2	1.0	0.004	Yes	2.781	-0.004	4.0	GoodResponse	1	0.21	60.975	3	5	Target	Win	True
61.975	0.3	Win2	1.0	0.004	Yes	2.781	-0.004	4.0	GoodResponse	1	0.21	n/a	3	5	ButtonPress	Win	True
62.116	0.35	Win2	1.0	n/a	Yes	2.781	n/a	n/a	GoodResponse	1	n/a	n/a	3	5	Blank	Win	True
62.467	1.45	Win2	1.0	n/a	Yes	2.781	n/a	5.0	GoodResponse	1	0.043	61.51	3	5	Feedback	Win	True
63.921	2.781	Win2	1.0	n/a	Yes	2.781	n/a	n/a	GoodResponse	1	0.0	n/a	3	5	ISIslide	Win	True
66.73	0.25	Lose2	1.0	0.0	Yes	2.72	0.03	n/a	GoodResponse	0	n/a	n/a	3	6	Cue	AvoidedLoss	True
66.981	3.95	Lose2	1.0	0.0	Yes	2.72	0.001	n/a	GoodResponse	0	n/a	n/a	3	6	Fixation	AvoidedLoss	True
70.926	0.34	Lose2	1.0	0.004	Yes	2.72	-0.004	4.0	GoodResponse	0	0.242	70.168	3	6	Target	AvoidedLoss	True
71.168	0.3	Lose2	1.0	0.004	Yes	2.72	-0.004	4.0	GoodResponse	0	0.242	n/a	3	6	ButtonPress	AvoidedLoss	True
71.277	0.36	Lose2	1.0	n/a	Yes	2.72	n/a	n/a	GoodResponse	0	n/a	n/a	3	6	Blank	AvoidedLoss	True
71.628	1.45	Lose2	1.0	n/a	Yes	2.72	n/a	5.0	GoodResponse	0	0.007	70.635	3	6	Feedback	AvoidedLoss	True
73.082	2.72	Lose2	1.0	n/a	Yes	2.72	n/a	n/a	GoodResponse	0	0.0	n/a	3	6	ISIslide	AvoidedLoss	True
75.824	0.25	Lose2	1.0	0.0	Yes	4.026	0.024	n/a	GoodResponse	0	n/a	n/a	3	7	Cue	AvoidedLoss	True
76.074	4.05	Lose2	1.0	0.0	Yes	4.026	0.0	n/a	GoodResponse	0	n/a	n/a	3	7	Fixation	AvoidedLoss	True
80.12	0.33	Lose2	1.0	0.004	Yes	4.026	-0.004	4.0	GoodResponse	0	0.265	79.385	3	7	Target	AvoidedLoss	True
80.385	0.3	Lose2	1.0	0.004	Yes	4.026	-0.004	4.0	GoodResponse	0	0.265	n/a	3	7	ButtonPress	AvoidedLoss	True
80.454	0.37	Lose2	1.0	n/a	Yes	4.026	n/a	n/a	GoodResponse	0	n/a	n/a	3	7	Blank	AvoidedLoss	True
80.822	1.45	Lose2	1.0	n/a	Yes	4.026	n/a	5.0	GoodResponse	0	0.03	79.852	3	7	Feedback	AvoidedLoss	True
82.276	4.026	Lose2	1.0	n/a	Yes	4.026	n/a	n/a	GoodResponse	0	0.0	n/a	3	7	ISIslide	AvoidedLoss	True
86.322	0.25	Lose2	1.0	0.0	Yes	3.028	0.022	n/a	GoodResponse	0	n/a	n/a	3	8	Cue	AvoidedLoss	True
86.572	3.95	Lose2	1.0	0.0	Yes	3.028	0.0	n/a	GoodResponse	0	n/a	n/a	3	8	Fixation	AvoidedLoss	True
90.518	0.32	Lose2	1.0	0.004	Yes	3.028	-0.004	4.0	GoodResponse	0	0.228	89.746	3	8	Target	AvoidedLoss	True
90.746	0.3	Lose2	1.0	0.004	Yes	3.028	-0.004	4.0	GoodResponse	0	0.228	n/a	3	8	ButtonPress	AvoidedLoss	True
90.852	0.38	Lose2	1.0	n/a	Yes	3.028	n/a	n/a	GoodResponse	0	n/a	n/a	3	8	Blank	AvoidedLoss	True
91.22	1.45	Lose2	1.0	n/a	Yes	3.028	n/a	5.0	GoodResponse	0	0.022	90.242	3	8	Feedback	AvoidedLoss	True
92.674	3.028	Lose2	1.0	n/a	Yes	3.028	n/a	n/a	GoodResponse	0	0.0	n/a	3	8	ISIslide	AvoidedLoss	True
95.716	0.25	Lose2	1.0	0.0	Yes	3.134	0.016	n/a	GoodResponse	0	n/a	n/a	3	9	Cue	AvoidedLoss	True
95.967	3.95	Lose2	1.0	0.0	Yes	3.134	0.001	n/a	GoodResponse	0	n/a	n/a	3	9	Fixation	AvoidedLoss	True
99.912	0.31	Lose2	1.0	0.004	Yes	3.134	-0.004	4.0	GoodResponse	0	0.223	99.135	3	9	Target	AvoidedLoss	True
100.135	0.3	Lose2	1.0	0.004	Yes	3.134	-0.004	4.0	GoodResponse	0	0.223	n/a	3	9	ButtonPress	AvoidedLoss	True
100.23	0.39	Lose2	1.0	n/a	Yes	3.134	n/a	n/a	GoodResponse	0	n/a	n/a	3	9	Blank	AvoidedLoss	True
100.614	1.45	Lose2	1.0	n/a	Yes	3.134	n/a	5.0	GoodResponse	0	0.042	99.656	3	9	Feedback	AvoidedLoss	True
102.069	3.134	Lose2	1.0	n/a	Yes	3.134	n/a	n/a	GoodResponse	0	0.0	n/a	3	9	ISIslide	AvoidedLoss	True
105.228	0.25	Control	1.0	0.0	Yes	3.272	0.028	n/a	GoodResponse	0	n/a	n/a	3	10	Cue	Neutral	True
105.479	4.0	Control	1.0	0.0	Yes	3.272	0.001	n/a	GoodResponse	0	n/a	n/a	3	10	Fixation	Neutral	True
109.474	0.3	Control	1.0	0.004	Yes	3.272	-0.004	4.0	GoodResponse	0	0.283	108.757	3	10	Target	Neutral	True
109.757	0.3	Control	1.0	0.004	Yes	3.272	-0.004	4.0	GoodResponse	0	0.283	n/a	3	10	ButtonPress	Neutral	True
109.775	0.4	Control	1.0	n/a	Yes	3.272	n/a	n/a	GoodResponse	0	n/a	n/a	3	10	Blank	Neutral	True
110.176	1.45	Control	1.0	n/a	Yes	3.272	n/a	5.0	GoodResponse	0	0.041	109.217	3	10	Feedback	Neutral	True
111.631	3.272	Control	1.0	n/a	Yes	3.272	n/a	n/a	GoodResponse	0	0.0	n/a	3	10	ISIslide	Neutral	True
114.924	0.25	Lose2	1.0	0.0	Yes	2.726	0.024	n/a	GoodResponse	0	n/a	n/a	3	11	Cue	AvoidedLoss	True
115.174	4.05	Lose2	1.0	0.001	Yes	2.726	0.0	n/a	GoodResponse	0	n/a	n/a	3	11	Fixation	AvoidedLoss	True
119.22	0.29	Lose2	1.0	0.004	Yes	2.726	-0.004	4.0	GoodResponse	0	0.218	118.438	3	11	Target	AvoidedLoss	True
119.438	0.3	Lose2	1.0	0.004	Yes	2.726	-0.004	4.0	GoodResponse	0	0.218	n/a	3	11	ButtonPress	AvoidedLoss	True
119.521	0.41	Lose2	1.0	n/a	Yes	2.726	n/a	n/a	GoodResponse	0	n/a	n/a	3	11	Blank	AvoidedLoss	True
119.922	1.45	Lose2	1.0	n/a	Yes	2.726	n/a	5.0	GoodResponse	0	0.002	118.924	3	11	Feedback	AvoidedLoss	True
121.376	2.726	Lose2	1.0	n/a	Yes	2.726	n/a	n/a	GoodResponse	0	0.0	n/a	3	11	ISIslide	AvoidedLoss	True
124.118	0.25	Control	1.0	0.0	Yes	2.982	0.018	n/a	GoodResponse	0	n/a	n/a	3	12	Cue	Neutral	True
124.369	3.9	Control	1.0	0.0	Yes	2.982	0.001	n/a	GoodResponse	0	n/a	n/a	3	12	Fixation	Neutral	True
128.264	0.28	Control	1.0	0.004	Yes	2.982	-0.004	4.0	GoodResponse	0	0.263	127.527	3	12	Target	Neutral	True
128.527	0.3	Control	1.0	0.004	Yes	2.982	-0.004	4.0	GoodResponse	0	0.263	n/a	3	12	ButtonPress	Neutral	True
128.548	0.42	Control	1.0	n/a	Yes	2.982	n/a	n/a	GoodResponse	0	n/a	n/a	3	12	Blank	Neutral	True
128.966	1.45	Control	1.0	n/a	Yes	2.982	n/a	5.0	GoodResponse	0	0.032	127.998	3	12	Feedback	Neutral	True
130.42	2.982	Control	1.0	n/a	Yes	2.982	n/a	n/a	GoodResponse	0	0.0	n/a	3	12	ISIslide	Neutral	True
133.429	0.25	Control	1.0	0.0	Yes	2.771	0.029	n/a	GoodResponse	0	n/a	n/a	3	13	Cue	Neutral	True
133.68	4.0	Control	1.0	0.0	Yes	2.771	0.001	n/a	GoodResponse	0	n/a	n/a	3	13	Fixation	Neutral	True
137.675	0.27	Control	1.0	0.004	Yes	2.771	-0.004	4.0	GoodResponse	0	0.256	136.931	3	13	Target	Neutral	True
137.931	0.3	Control	1.0	0.004	Yes	2.771	-0.004	4.0	GoodResponse	0	0.256	n/a	3	13	ButtonPress	Neutral	True
137.959	0.43	Control	1.0	n/a	Yes	2.771	n/a	n/a	GoodResponse	0	n/a	n/a	3	13	Blank	Neutral	True
138.377	1.45	Control	1.0	n/a	Yes	2.771	n/a	5.0	GoodResponse	0	0.034	137.411	3	13	Feedback	Neutral	True
139.831	2.771	Control	1.0	n/a	Yes	2.771	n/a	n/a	GoodResponse	0	0.0	n/a	3	13	ISIslide	Neutral	True
142.623	0.25	Win2	1.0	0.0	Yes	2.677	0.023	n/a	GoodResponse	1	n/a	n/a	4	14	Cue	Win	True
142.874	4.1	Win2	1.0	0.0	Yes	2.677	0.001	n/a	GoodResponse	1	n/a	n/a	4	14	Fixation	Win	True
146.969	0.26	Win2	1.0	0.004	Yes	2.677	-0.004	4.0	GoodResponse	1	0.245	146.214	4	14	Target	Win	True
147.214	0.3	Win2	1.0	0.004	Yes	2.677	-0.004	4.0	GoodResponse	1	0.245	n/a	4	14	ButtonPress	Win	True
147.237	0.44	Win2	1.0	n/a	Yes	2.677	n/a	n/a	GoodResponse	1	n/a	n/a	4	14	Blank	Win	True
147.672	1.45	Win2	1.0	n/a	Yes	2.677	n/a	5.0	GoodResponse	1	0.008	146.68	4	14	Feedback	Win	True
149.126	2.677	Win2	1.0	n/a	Yes	2.677	n/a	n/a	GoodResponse	1	0.0	n/a	4	14	ISIslide	Win	True
151.817	0.25	Control	1.0	0.0	Yes	2.983	0.017	n/a	GoodResponse	0	n/a	n/a	4	15	Cue	Neutral	True
152.068	4.0	Control	1.0	0.0	Yes	2.983	0.001	n/a	GoodResponse	0	n/a	n/a	4	15	Fixation	Neutral	True
156.063	0.25	Control	1.0	0.004	Yes	2.983	-0.004	4.0	GoodResponse	0	0.225	155.288	4	15	Target	Neutral	True
156.288	0.3	Control	1.0	0.004	Yes	2.983	-0.004	4.0	GoodResponse	0	0.225	n/a	4	15	ButtonPress	Neutral	True
156.314	0.45	Control	1.0	n/a	Yes	2.983	n/a	n/a	GoodResponse	0	n/a	n/a	4	15	Blank	Neutral	True
156.765	1.45	Control	1.0	n/a	Yes	2.983	n/a	5.0	GoodResponse	0	0.037	155.802	4	15	Feedback	Neutral	True
158.22	2.983	Control	1.0	n/a	Yes	2.983	n/a	n/a	GoodResponse	0	0.0	n/a	4	15	ISIslide	Neutral	True
161.229	0.25	Win2	0.9412	0.0	No	2.871	0.029	n/a	NoResponse	0	n/a	n/a	4	16	Cue	MissedWin	True
161.479	4.0	Win2	0.9412	0.001	No	2.871	0.0	n/a	NoResponse	0	n/a	n/a	4	16	Fixation	MissedWin	True
165.475	0.24	Win2	0.9412	0.004	No	2.871	-0.004	4.0	NoResponse	0	0.285	164.76	4	16	Target	MissedWin	True
165.725	0.46	Win2	0.9412	n/a	No	2.871	n/a	n/a	NoResponse	0	n/a	n/a	4	16	Blank	MissedWin	True
165.76	0.3	Win2	0.9412	0.004	No	2.871	-0.004	4.0	NoResponse	0	0.285	n/a	4	16	ButtonPress	MissedWin	True
166.177	1.45	Win2	0.9412	n/a	No	2.871	n/a	5.0	NoResponse	0	0.04	165.217	4	16	Feedback	MissedWin	True
167.631	2.871	Win2	0.9412	n/a	No	2.871	n/a	n/a	NoResponse	0	0.0	n/a	4	16	ISIslide	MissedWin	True
170.523	0.25	Lose2	0.8889	0.0	No	2.727	0.023	n/a	NoResponse	-1	n/a	n/a	3	17	Cue	Loss	True
170.774	3.95	Lose2	0.8889	0.0	No	2.727	0.001	n/a	NoResponse	-1	n/a	n/a	3	17	Fixation	Loss	True
174.719	0.23	Lose2	0.8889	0.004	No	2.727	-0.004	4.0	NoResponse	-1	0.249	173.968	3	17	Target	Loss	True
174.953	0.47	Lose2	0.8889	n/a	No	2.727	n/a	n/a	NoResponse	-1	n/a	n/a	3	17	Blank	Loss	True
174.968	0.3	Lose2	0.8889	0.004	No	2.727	-0.004	4.0	NoResponse	-1	0.249	n/a	3	17	ButtonPress	Loss	True
175.421	1.45	Lose2	0.8889	n/a	No	2.727	n/a	5.0	NoResponse	-1	0.014	174.435	3	17	Feedback	Loss	True
176.875	2.727	Lose2	0.8889	n/a	No	2.727	n/a	n/a	NoResponse	-1	0.0	n/a	3	17	ISIslide	Loss	True
179.617	0.25	Lose2	0.8421	0.0	No	2.733	0.017	n/a	LatePress	-1	n/a	n/a	2	18	Cue	Loss	True
179.868	4.05	Lose2	0.8421	0.0	No	2.733	0.001	n/a	LatePress	-1	n/a	n/a	2	18	Fixation	Loss	True
183.913	0.22	Lose2	0.8421	0.004	No	2.733	-0.004	4.0	LatePress	-1	0.228	183.141	2	18	Target	Loss	True
184.141	0.3	Lose2	0.8421	0.004	No	2.733	-0.004	4.0	LatePress	-1	0.228	n/a	2	18	ButtonPress	Loss	True
184.147	0.48	Lose2	0.8421	n/a	No	2.733	n/a	n/a	LatePress	-1	n/a	n/a	2	18	Blank	Loss	True
184.615	1.45	Lose2	0.8421	n/a	No	2.733	n/a	5.0	LatePress	-1	0.04	183.655	2	18	Feedback	Loss	True
186.07	2.733	Lose2	0.8421	n/a	No	2.733	n/a	n/a	LatePress	-1	0.0	n/a	2	18	ISIslide	Loss	True
188.828	0.25	Control	0.8	0.0	No	2.922	0.028	n/a	NoResponse	0	n/a	n/a	2	19	Cue	Neutral	True
189.079	3.95	Control	0.8	0.0	No	2.922	0.001	n/a	NoResponse	0	n/a	n/a	2	19	Fixation	Neutral	True
193.024	0.21	Control	0.8	0.004	No	2.922	-0.004	4.0	NoResponse	0	0.24	192.264	2	19	Target	Neutral	True
193.241	0.49	Control	0.8	n/a	No	2.922	n/a	n/a	NoResponse	0	n/a	n/a	2	19	Blank	Neutral	True
193.264	0.3	Control	0.8	0.004	No	2.922	-0.004	4.0	NoResponse	0	0.24	n/a	2	19	ButtonPress	Neutral	True
193.726	1.45	Control	0.8	n/a	No	2.922	n/a	5.0	NoResponse	0	0.002	192.728	2	19	Feedback	Neutral	True
195.18	2.922	Control	0.8	n/a	No	2.922	n/a	n/a	NoResponse	0	0.0	n/a	2	19	ISIslide	Neutral	True
198.122	0.25	Control	0.7619	0.0	No	2.628	0.022	n/a	NoResponse	0	n/a	n/a	2	20	Cue	Neutral	True
198.373	4.05	Control	0.7619	0.0	No	2.628	0.001	n/a	NoResponse	0	n/a	n/a	2	20	Fixation	Neutral	True
202.418	0.2	Control	0.7619	0.004	No	2.628	-0.004	4.0	NoResponse	0	0.234	201.652	2	20	Target	Neutral	True
202.619	0.5	Control	0.7619	n/a	No	2.628	n/a	n/a	NoResponse	0	n/a	n/a	2	20	Blank	Neutral	True
202.652	0.3	Control	0.7619	0.004	No	2.628	-0.004	4.0	NoResponse	0	0.234	n/a	2	20	ButtonPress	Neutral	True
203.12	1.45	Control	0.7619	n/a	No	2.628	n/a	5.0	NoResponse	0	0.023	202.143	2	20	Feedback	Neutral	True
204.575	2.628	Control	0.7619	n/a	No	2.628	n/a	n/a	NoResponse	0	0.0	n/a	2	20	ISIslide	Neutral	True
207.216	0.25	Control	0.7273000000000001	0.0	No	2.784	0.016	n/a	NoResponse	0	n/a	n/a	2	21	Cue	Neutral	True
207.467	4.1	Control	0.7273000000000001	0.0	No	2.784	0.001	n/a	NoResponse	0	n/a	n/a	2	21	Fixation	Neutral	True
211.562	0.19	Control	0.7273000000000001	0.004	No	2.784	-0.004	4.0	NoResponse	0	0.242	210.804	2	21	Target	Neutral	True
211.763	0.51	Control	0.7273000000000001	n/a	No	2.784	n/a	n/a	NoResponse	0	n/a	n/a	2	21	Blank	Neutral	True
211.804	0.3	Control	0.7273000000000001	0.004	No	2.784	-0.004	4.0	NoResponse	0	0.242	n/a	2	21	ButtonPress	Neutral	True
212.264	1.45	Control	0.7273000000000001	n/a	No	2.784	n/a	5.0	NoResponse	0	0.049	211.313	2	21	Feedback	Neutral	True
213.719	2.784	Control	0.7273000000000001	n/a	No	2.784	n/a	n/a	NoResponse	0	0.0	n/a	2	21	ISIslide	Neutral	True
216.527	0.25	Control	0.6957	0.0	No	2.773	0.027	n/a	NoResponse	0	n/a	n/a	2	22	Cue	Neutral	True
216.778	4.0	Control	0.6957	0.0	No	2.773	0.001	n/a	NoResponse	0	n/a	n/a	2	22	Fixation	Neutral	True
220.773	0.18	Control	0.6957	0.004	No	2.773	-0.004	4.0	NoResponse	0	0.211	219.984	2	22	Target	Neutral	True
220.957	0.52	Control	0.6957	n/a	No	2.773	n/a	n/a	NoResponse	0	n/a	n/a	2	22	Blank	Neutral	True
220.984	0.3	Control	0.6957	0.004	No	2.773	-0.004	4.0	NoResponse	0	0.211	n/a	2	22	ButtonPress	Neutral	True
221.475	1.45	Control	0.6957	n/a	No	2.773	n/a	5.0	NoResponse	0	0.008	220.483	2	22	Feedback	Neutral	True
222.93	2.773	Control	0.6957	n/a	No	2.773	n/a	n/a	NoResponse	0	0.0	n/a	2	22	ISIslide	Neutral	True
225.721	0.25	Control	0.6667000000000001	0.0	No	2.779	0.021	n/a	NoResponse	0	n/a	n/a	2	23	Cue	Neutral	True
225.972	3.9	Control	0.6667000000000001	0.0	No	2.779	0.001	n/a	NoResponse	0	n/a	n/a	2	23	Fixation	Neutral	True
229.867	0.17	Control	0.6667000000000001	0.004	No	2.779	-0.004	4.0	NoResponse	0	0.215	229.082	2	23	Target	Neutral	True
230.051	0.53	Control	0.6667000000000001	n/a	No	2.779	n/a	n/a	NoResponse	0	n/a	n/a	2	23	Blank	Neutral	True
230.082	0.3	Control	0.6667000000000001	0.004	No	2.779	-0.004	4.0	NoResponse	0	0.215	n/a	2	23	ButtonPress	Neutral	True
230.569	1.45	Control	0.6667000000000001	n/a	No	2.779	n/a	5.0	NoResponse	0	0.037	229.606	2	23	Feedback	Neutral	True
232.023	2.779	Control	0.6667000000000001	n/a	No	2.779	n/a	n/a	NoResponse	0	0.0	n/a	2	23	ISIslide	Neutral	True
234.815	0.25	Win2	0.64	0.0	No	3.135	0.015	n/a	NoResponse	0	n/a	n/a	2	24	Cue	MissedWin	True
235.066	3.95	Win2	0.64	0.0	No	3.135	0.001	n/a	NoResponse	0	n/a	n/a	2	24	Fixation	MissedWin	True
239.011	0.16	Win2	0.64	0.004	No	3.135	-0.004	4.0	NoResponse	0	0.194	238.205	2	24	Target	MissedWin	True
239.178	0.54	Win2	0.64	n/a	No	3.135	n/a	n/a	NoResponse	0	n/a	n/a	2	24	Blank	MissedWin	True
239.205	0.3	Win2	0.64	0.004	No	3.135	-0.004	4.0	NoResponse	0	0.194	n/a	2	24	ButtonPress	MissedWin	True
239.713	1.45	Win2	0.64	n/a	No	3.135	n/a	5.0	NoResponse	0	0.015	238.728	2	24	Feedback	MissedWin	True
241.167	3.135	Win2	0.64	n/a	No	3.135	n/a	n/a	NoResponse	0	0.0	n/a	2	24	ISIslide	MissedWin	True
244.327	0.25	Win2	0.6154	0.0	No	3.073	0.027	n/a	NoResponse	0	n/a	n/a	2	25	Cue	MissedWin	True
244.578	4.0	Win2	0.6154	0.0	No	3.073	0.001	n/a	NoResponse	0	n/a	n/a	2	25	Fixation	MissedWin	True
248.573	0.17	Win2	0.6154	0.004	No	3.073	-0.004	4.0	NoResponse	0	0.225	247.798	2	25	Target	MissedWin	True
248.757	0.53	Win2	0.6154	n/a	No	3.073	n/a	n/a	NoResponse	0	n/a	n/a	2	25	Blank	MissedWin	True
248.798	0.3	Win2	0.6154	0.004	No	3.073	-0.004	4.0	NoResponse	0	0.225	n/a	2	25	ButtonPress	MissedWin	True
249.275	1.45	Win2	0.6154	n/a	No	3.073	n/a	5.0	NoResponse	0	0.013	248.288	2	25	Feedback	MissedWin	True
250.729	3.073	Win2	0.6154	n/a	No	3.073	n/a	n/a	NoResponse	0	0.0	n/a	2	25	ISIslide	MissedWin	True
253.822	0.25	Win2	0.5926	0.0	No	2.928	0.022	n/a	NoResponse	0	n/a	n/a	2	26	Cue	MissedWin	True
254.073	3.95	Win2	0.5926	0.0	No	2.928	0.001	n/a	NoResponse	0	n/a	n/a	2	26	Fixation	MissedWin	True
258.018	0.18	Win2	0.5926	0.004	No	2.928	-0.004	4.0	NoResponse	0	0.226	257.244	2	26	Target	MissedWin	True
258.202	0.52	Win2	0.5926	n/a	No	2.928	n/a	n/a	NoResponse	0	n/a	n/a	2	26	Blank	MissedWin	True
258.244	0.3	Win2	0.5926	0.004	No	2.928	-0.004	4.0	NoResponse	0	0.226	n/a	2	26	ButtonPress	MissedWin	True
258.72	1.45	Win2	0.5926	n/a	No	2.928	n/a	5.0	NoResponse	0	0.031	257.751	2	26	Feedback	MissedWin	True
260.174	2.928	Win2	0.5926	n/a	No	2.928	n/a	n/a	NoResponse	0	0.0	n/a	2	26	ISIslide	MissedWin	True
263.116	0.25	Lose2	0.5714	0.0	No	2.834	0.016	n/a	NoResponse	-1	n/a	n/a	1	27	Cue	Loss	True
263.367	4.05	Lose2	0.5714	0.0	No	2.834	0.001	n/a	NoResponse	-1	n/a	n/a	1	27	Fixation	Loss	True
267.412	0.19	Lose2	0.5714	0.004	No	2.834	-0.004	4.0	NoResponse	-1	0.223	266.635	1	27	Target	Loss	True
267.613	0.51	Lose2	0.5714	n/a	No	2.834	n/a	n/a	NoResponse	-1	n/a	n/a	1	27	Blank	Loss	True
267.635	0.3	Lose2	0.5714	0.004	No	2.834	-0.004	4.0	NoResponse	-1	0.223	n/a	1	27	ButtonPress	Loss	True
268.115	1.45	Lose2	0.5714	n/a	No	2.834	n/a	5.0	NoResponse	-1	0.006	267.121	1	27	Feedback	Loss	True
269.569	2.834	Lose2	0.5714	n/a	No	2.834	n/a	n/a	NoResponse	-1	0.0	n/a	1	27	ISIslide	Loss	True
272.427	0.25	Control	0.5517	0.001	No	2.823	0.027	n/a	NoResponse	0	n/a	n/a	1	28	Cue	Neutral	True
272.678	4.05	Control	0.5517	0.0	No	2.823	0.001	n/a	NoResponse	0	n/a	n/a	1	28	Fixation	Neutral	True
276.724	0.2	Control	0.5517	0.003	No	2.823	-0.003	4.0	NoResponse	0	0.248	275.972	1	28	Target	Neutral	True
276.924	0.5	Control	0.5517	n/a	No	2.823	n/a	n/a	NoResponse	0	n/a	n/a	1	28	Blank	Neutral	True
276.972	0.3	Control	0.5517	0.003	No	2.823	-0.003	4.0	NoResponse	0	0.248	n/a	1	28	ButtonPress	Neutral	True
277.426	1.45	Control	0.5517	n/a	No	2.823	n/a	5.0	NoResponse	0	0.008	276.434	1	28	Feedback	Neutral	True
278.88	2.823	Control	0.5517	n/a	No	2.823	n/a	n/a	NoResponse	0	0.0	n/a	1	28	ISIslide	Neutral	True
281.722	0.25	Lose2	0.5667	0.0	Yes	2.828	0.022	n/a	GoodResponse	0	n/a	n/a	1	29	Cue	AvoidedLoss	True
281.973	3.95	Lose2	0.5667	0.0	Yes	2.828	0.001	n/a	GoodResponse	0	n/a	n/a	1	29	Fixation	AvoidedLoss	True
285.918	0.21	Lose2	0.5667	0.004	Yes	2.828	-0.004	4.0	GoodResponse	0	0.202	285.12	1	29	Target	AvoidedLoss	True
286.12	0.3	Lose2	0.5667	0.004	Yes	2.828	-0.004	4.0	GoodResponse	0	0.202	n/a	1	29	ButtonPress	AvoidedLoss	True
286.135	0.49	Lose2	0.5667	n/a	Yes	2.828	n/a	n/a	GoodResponse	0	n/a	n/a	1	29	Blank	AvoidedLoss	True
286.62	1.45	Lose2	0.5667	n/a	Yes	2.828	n/a	5.0	GoodResponse	0	0.033	285.653	1	29	Feedback	AvoidedLoss	True
288.074	2.828	Lose2	0.5667	n/a	Yes	2.828	n/a	n/a	GoodResponse	0	0.0	n/a	1	29	ISIslide	AvoidedLoss	True
290.916	0.25	Win2	0.5806	0.0	Yes	2.784	0.016	n/a	GoodResponse	1	n/a	n/a	2	30	Cue	Win	True
291.167	3.9	Win2	0.5806	0.0	Yes	2.784	0.001	n/a	GoodResponse	1	n/a	n/a	2	30	Fixation	Win	True
295.062	0.22	Win2	0.5806	0.004	Yes	2.784	-0.004	4.0	GoodResponse	1	0.196	294.258	2	30	Target	Win	True
295.258	0.3	Win2	0.5806	0.004	Yes	2.784	-0.004	4.0	GoodResponse	1	0.196	n/a	2	30	ButtonPress	Win	True
295.296	0.48	Win2	0.5806	n/a	Yes	2.784	n/a	n/a	GoodResponse	1	n/a	n/a	2	30	Blank	Win	True
295.764	1.45	Win2	0.5806	n/a	Yes	2.784	n/a	5.0	GoodResponse	1	0.011	294.775	2	30	Feedback	Win	True
297.218	2.784	Win2	0.5806	n/a	Yes	2.784	n/a	n/a	GoodResponse	1	0.0	n/a	2	30	ISIslide	Win	True
300.027	0.25	Lose2	0.5938	0.0	Yes	2.823	0.027	n/a	GoodResponse	0	n/a	n/a	2	31	Cue	AvoidedLoss	True
300.277	4.05	Lose2	0.5938	0.0	Yes	2.823	0.0	n/a	GoodResponse	0	n/a	n/a	2	31	Fixation	AvoidedLoss	True
304.323	0.23	Lose2	0.5938	0.004	Yes	2.823	-0.004	4.0	GoodResponse	0	0.211	303.534	2	31	Target	AvoidedLoss	True
304.534	0.3	Lose2	0.5938	0.004	Yes	2.823	-0.004	4.0	GoodResponse	0	0.211	n/a	2	31	ButtonPress	AvoidedLoss	True
304.557	0.47	Lose2	0.5938	n/a	Yes	2.823	n/a	n/a	GoodResponse	0	n/a	n/a	2	31	Blank	AvoidedLoss	True
305.025	1.45	Lose2	0.5938	n/a	Yes	2.823	n/a	5.0	GoodResponse	0	0.018	304.043	2	31	Feedback	AvoidedLoss	True
306.479	2.823	Lose2	0.5938	n/a	Yes	2.823	n/a	n/a	GoodResponse	0	0.0	n/a	2	31	ISIslide	AvoidedLoss	True
309.321	0.25	Lose2	0.6061	0.0	Yes	2.629	0.021	n/a	GoodResponse	0	n/a	n/a	2	32	Cue	AvoidedLoss	True
309.572	4.15	Lose2	0.6061	0.0	Yes	2.629	0.001	n/a	GoodResponse	0	n/a	n/a	2	32	Fixation	AvoidedLoss	True
313.717	0.24	Lose2	0.6061	0.004	Yes	2.629	-0.004	4.0	GoodResponse	0	0.2	312.917	2	32	Target	AvoidedLoss	True
313.917	0.3	Lose2	0.6061	0.004	Yes	2.629	-0.004	4.0	GoodResponse	0	0.2	n/a	2	32	ButtonPress	AvoidedLoss	True
313.968	0.46	Lose2	0.6061	n/a	Yes	2.629	n/a	n/a	GoodResponse	0	n/a	n/a	2	32	Blank	AvoidedLoss	True
314.42	1.45	Lose2	0.6061	n/a	Yes	2.629	n/a	5.0	GoodResponse	0	0.038	313.458	2	32	Feedback	AvoidedLoss	True
315.874	2.629	Lose2	0.6061	n/a	Yes	2.629	n/a	n/a	GoodResponse	0	0.0	n/a	2	32	ISIslide	AvoidedLoss	True
318.515	0.25	Win2	0.6175999999999999	0.0	Yes	2.685	0.015	n/a	GoodResponse	1	n/a	n/a	3	33	Cue	Win	True
318.766	4.0	Win2	0.6175999999999999	0.0	Yes	2.685	0.001	n/a	GoodResponse	1	n/a	n/a	3	33	Fixation	Win	True
322.761	0.25	Win2	0.6175999999999999	0.004	Yes	2.685	-0.004	4.0	GoodResponse	1	0.222	321.983	3	33	Target	Win	True
322.983	0.3	Win2	0.6175999999999999	0.004	Yes	2.685	-0.004	4.0	GoodResponse	1	0.222	n/a	3	33	ButtonPress	Win	True
323.012	0.45	Win2	0.6175999999999999	n/a	Yes	2.685	n/a	n/a	GoodResponse	1	n/a	n/a	3	33	Blank	Win	True
323.463	1.45	Win2	0.6175999999999999	n/a	Yes	2.685	n/a	5.0	GoodResponse	1	0.019	322.482	3	33	Feedback	Win	True
324.918	2.685	Win2	0.6175999999999999	n/a	Yes	2.685	n/a	n/a	GoodResponse	1	0.0	n/a	3	33	ISIslide	Win	True
327.626	0.25	Lose2	0.6286	0.0	Yes	2.624	0.026	n/a	GoodResponse	0	n/a	n/a	3	34	Cue	AvoidedLoss	True
327.876	4.05	Lose2	0.6286	0.0	Yes	2.624	0.0	n/a	GoodResponse	0	n/a	n/a	3	34	Fixation	AvoidedLoss	True
331.922	0.26	Lose2	0.6286	0.004	Yes	2.624	-0.004	4.0	GoodResponse	0	0.212	331.134	3	34	Target	AvoidedLoss	True
332.134	0.3	Lose2	0.6286	0.004	Yes	2.624	-0.004	4.0	GoodResponse	0	0.212	n/a	3	34	ButtonPress	AvoidedLoss	True
332.189	0.44	Lose2	0.6286	n/a	Yes	2.624	n/a	n/a	GoodResponse	0	n/a	n/a	3	34	Blank	AvoidedLoss	True
332.624	1.45	Lose2	0.6286	n/a	Yes	2.624	n/a	5.0	GoodResponse	0	0.028	331.652	3	34	Feedback	AvoidedLoss	True
334.078	2.624	Lose2	0.6286	n/a	Yes	2.624	n/a	n/a	GoodResponse	0	0.0	n/a	3	34	ISIslide	AvoidedLoss	True
336.719	0.25	Lose2	0.6111	0.001	No	2.681	0.019	n/a	NoResponse	-1	n/a	n/a	2	35	Cue	Loss	False
336.97	4.0	Lose2	0.6111	0.0	No	2.681	0.001	4.0	NoResponse	-1	3.875	339.845	2	35	Fixation	Loss	False
340.845	0.3	Lose2	0.6111	0.0	No	2.681	0.001	4.0	NoResponse	-1	3.875	n/a	2	35	ButtonPress	Loss	False
340.965	0.27	Lose2	0.6111	0.004	No	2.681	-0.004	4.0	NoResponse	-1	0.474	340.439	2	35	Target	Loss	False
341.25	0.43	Lose2	0.6111	n/a	No	2.681	n/a	n/a	NoResponse	-1	n/a	n/a	2	35	Blank	Loss	False
341.439	0.3	Lose2	0.6111	0.004	No	2.681	-0.004	4.0	NoResponse	-1	0.474	n/a	2	35	ButtonPress	Loss	False
341.668	1.45	Lose2	0.6111	n/a	No	2.681	n/a	5.0	NoResponse	-1	0.009	340.677	2	35	Feedback	Loss	False
343.122	2.681	Lose2	0.6111	n/a	No	2.681	n/a	n/a	NoResponse	-1	0.0	n/a	2	35	ISIslide	Loss	False
345.83	0.25	Control	0.5946	0.0	No	2.67	0.03	n/a	NoResponse	0	n/a	n/a	2	36	Cue	Neutral	True
346.081	4.0	Control	0.5946	0.0	No	2.67	0.001	n/a	NoResponse	0	n/a	n/a	2	36	Fixation	Neutral	True
350.076	0.28	Control	0.5946	0.004	No	2.67	-0.004	4.0	NoResponse	0	0.299	349.375	2	36	Target	Neutral	True
350.36	0.42	Control	0.5946	n/a	No	2.67	n/a	n/a	NoResponse	0	n/a	n/a	2	36	Blank	Neutral	True
350.375	0.3	Control	0.5946	0.004	No	2.67	-0.004	4.0	NoResponse	0	0.299	n/a	2	36	ButtonPress	Neutral	True
350.778	1.45	Control	0.5946	n/a	No	2.67	n/a	5.0	NoResponse	0	0.021	349.799	2	36	Feedback	Neutral	True
352.232	2.67	Control	0.5946	n/a	No	2.67	n/a	n/a	NoResponse	0	0.0	n/a	2	36	ISIslide	Neutral	True
354.924	0.25	Win2	0.6053000000000001	0.0	Yes	2.876	0.024	n/a	GoodResponse	1	n/a	n/a	3	37	Cue	Win	True
355.175	4.0	Win2	0.6053000000000001	0.0	Yes	2.876	0.001	n/a	GoodResponse	1	n/a	n/a	3	37	Fixation	Win	True
359.17	0.29	Win2	0.6053000000000001	0.004	Yes	2.876	-0.004	4.0	GoodResponse	1	0.221	358.391	3	37	Target	Win	True
359.391	0.3	Win2	0.6053000000000001	0.004	Yes	2.876	-0.004	4.0	GoodResponse	1	0.221	n/a	3	37	ButtonPress	Win	True
359.471	0.41	Win2	0.6053000000000001	n/a	Yes	2.876	n/a	n/a	GoodResponse	1	n/a	n/a	3	37	Blank	Win	True
359.872	1.45	Win2	0.6053000000000001	n/a	Yes	2.876	n/a	5.0	GoodResponse	1	0.048	358.92	3	37	Feedback	Win	True
361.326	2.876	Win2	0.6053000000000001	n/a	Yes	2.876	n/a	n/a	GoodResponse	1	0.0	n/a	3	37	ISIslide	Win	True
364.218	0.25	Lose2	0.6154	0.0	Yes	2.832	0.018	n/a	GoodResponse	0	n/a	n/a	3	38	Cue	AvoidedLoss	True
364.469	3.95	Lose2	0.6154	0.0	Yes	2.832	0.001	n/a	GoodResponse	0	n/a	n/a	3	38	Fixation	AvoidedLoss	True
368.414	0.3	Lose2	0.6154	0.004	Yes	2.832	-0.004	4.0	GoodResponse	0	0.215	367.629	3	38	Target	AvoidedLoss	True
368.629	0.3	Lose2	0.6154	0.004	Yes	2.832	-0.004	4.0	GoodResponse	0	0.215	n/a	3	38	ButtonPress	AvoidedLoss	True
368.715	0.4	Lose2	0.6154	n/a	Yes	2.832	n/a	n/a	GoodResponse	0	n/a	n/a	3	38	Blank	AvoidedLoss	True
369.116	1.45	Lose2	0.6154	n/a	Yes	2.832	n/a	5.0	GoodResponse	0	0.024	368.14	3	38	Feedback	AvoidedLoss	True
370.571	2.832	Lose2	0.6154	n/a	Yes	2.832	n/a	n/a	GoodResponse	0	0.0	n/a	3	38	ISIslide	AvoidedLoss	True
373.429	0.25	Win2	0.6	0.0	No	2.971	0.029	n/a	NoResponse	0	n/a	n/a	3	39	Cue	MissedWin	True
373.68	4.1	Win2	0.6	0.0	No	2.971	0.001	n/a	NoResponse	0	n/a	n/a	3	39	Fixation	MissedWin	True
377.775	0.31	Win2	0.6	0.004	No	2.971	-0.004	4.0	NoResponse	0	0.418	377.193	3	39	Target	MissedWin	True
378.093	0.39	Win2	0.6	n/a	No	2.971	n/a	n/a	NoResponse	0	n/a	n/a	3	39	Blank	MissedWin	True
378.193	0.3	Win2	0.6	0.004	No	2.971	-0.004	4.0	NoResponse	0	0.418	n/a	3	39	ButtonPress	MissedWin	True
378.477	1.45	Win2	0.6	n/a	No	2.971	n/a	5.0	NoResponse	0	0.029	377.506	3	39	Feedback	MissedWin	True
379.932	2.971	Win2	0.6	n/a	No	2.971	n/a	n/a	NoResponse	0	0.0	n/a	3	39	ISIslide	MissedWin	True
382.924	0.25	Win2	0.6098	0.0	Yes	2.726	0.024	n/a	GoodResponse	1	n/a	n/a	4	40	Cue	Win	True
383.175	3.95	Win2	0.6098	0.0	Yes	2.726	0.001	n/a	GoodResponse	1	n/a	n/a	4	40	Fixation	Win	True
387.12	0.32	Win2	0.6098	0.004	Yes	2.726	-0.004	4.0	GoodResponse	1	0.197	386.317	4	40	Target	Win	True
387.317	0.3	Win2	0.6098	0.004	Yes	2.726	-0.004	4.0	GoodResponse	1	0.197	n/a	4	40	ButtonPress	Win	True
387.454	0.38	Win2	0.6098	n/a	Yes	2.726	n/a	n/a	GoodResponse	1	n/a	n/a	4	40	Blank	Win	True
387.822	1.45	Win2	0.6098	n/a	Yes	2.726	n/a	5.0	GoodResponse	1	0.001	386.823	4	40	Feedback	Win	True
389.276	2.726	Win2	0.6098	n/a	Yes	2.726	n/a	n/a	GoodResponse	1	0.0	n/a	4	40	ISIslide	Win	True
392.018	0.25	Win2	0.619	0.0	Yes	2.782	0.018	n/a	GoodResponse	1	n/a	n/a	5	41	Cue	Win	True
392.269	3.9	Win2	0.619	0.0	Yes	2.782	0.001	n/a	GoodResponse	1	n/a	n/a	5	41	Fixation	Win	True
396.164	0.33	Win2	0.619	0.004	Yes	2.782	-0.004	4.0	GoodResponse	1	0.234	395.398	5	41	Target	Win	True
396.398	0.3	Win2	0.619	0.004	Yes	2.782	-0.004	4.0	GoodResponse	1	0.234	n/a	5	41	ButtonPress	Win	True
396.498	0.37	Win2	0.619	n/a	Yes	2.782	n/a	n/a	GoodResponse	1	n/a	n/a	5	41	Blank	Win	True
396.866	1.45	Win2	0.619	n/a	Yes	2.782	n/a	5.0	GoodResponse	1	0.029	395.895	5	41	Feedback	Win	True
398.32	2.782	Win2	0.619	n/a	Yes	2.782	n/a	n/a	GoodResponse	1	0.0	n/a	5	41	ISIslide	Win	True
401.128	0.25	Control	0.6279	0.001	Yes	2.922	0.028	n/a	GoodResponse	0	n/a	n/a	5	42	Cue	Neutral	True
401.379	3.85	Control	0.6279	0.0	Yes	2.922	0.001	n/a	GoodResponse	0	n/a	n/a	5	42	Fixation	Neutral	True
405.224	0.34	Control	0.6279	0.004	Yes	2.922	-0.004	4.0	GoodResponse	0	0.285	404.509	5	42	Target	Neutral	True
405.509	0.3	Control	0.6279	0.004	Yes	2.922	-0.004	4.0	GoodResponse	0	0.285	n/a	5	42	ButtonPress	Neutral	True
405.575	0.36	Control	0.6279	n/a	Yes	2.922	n/a	n/a	GoodResponse	0	n/a	n/a	5	42	Blank	Neutral	True
405.926	1.45	Control	0.6279	n/a	Yes	2.922	n/a	5.0	GoodResponse	0	0.042	404.968	5	42	Feedback	Neutral	True
407.38	2.922	Control	0.6279	n/a	Yes	2.922	n/a	n/a	GoodResponse	0	0.0	n/a	5	42	ISIslide	Neutral	True
410.323	0.25	Win2	0.6364	0.0	Yes	3.177	0.023	n/a	GoodResponse	1	n/a	n/a	6	43	Cue	Win	True
410.573	4.0	Win2	0.6364	0.0	Yes	3.177	0.0	n/a	GoodResponse	1	n/a	n/a	6	43	Fixation	Win	True
414.569	0.35	Win2	0.6364	0.004	Yes	3.177	-0.004	4.0	GoodResponse	1	0.231	413.8	6	43	Target	Win	True
414.8	0.3	Win2	0.6364	0.004	Yes	3.177	-0.004	4.0	GoodResponse	1	0.231	n/a	6	43	ButtonPress	Win	True
414.92	0.35	Win2	0.6364	n/a	Yes	3.177	n/a	n/a	GoodResponse	1	n/a	n/a	6	43	Blank	Win	True
415.271	1.45	Win2	0.6364	n/a	Yes	3.177	n/a	5.0	GoodResponse	1	0.015	414.286	6	43	Feedback	Win	True
416.725	3.177	Win2	0.6364	n/a	Yes	3.177	n/a	n/a	GoodResponse	1	0.0	n/a	6	43	ISIslide	Win	True
419.918	0.25	Win2	0.6444	0.0	Yes	2.982	0.018	n/a	GoodResponse	1	n/a	n/a	7	44	Cue	Win	True
420.169	4.0	Win2	0.6444	0.0	Yes	2.982	0.001	n/a	GoodResponse	1	n/a	n/a	7	44	Fixation	Win	True
424.164	0.36	Win2	0.6444	0.004	Yes	2.982	-0.004	4.0	GoodResponse	1	0.233	423.397	7	44	Target	Win	True
424.397	0.3	Win2	0.6444	0.004	Yes	2.982	-0.004	4.0	GoodResponse	1	0.233	n/a	7	44	ButtonPress	Win	True
424.532	0.34	Win2	0.6444	n/a	Yes	2.982	n/a	n/a	GoodResponse	1	n/a	n/a	7	44	Blank	Win	True
424.866	1.45	Win2	0.6444	n/a	Yes	2.982	n/a	5.0	GoodResponse	1	0.029	423.895	7	44	Feedback	Win	True
426.32	2.982	Win2	0.6444	n/a	Yes	2.982	n/a	n/a	GoodResponse	1	0.0	n/a	7	44	ISIslide	Win	True
429.329	0.25	Control	0.6522	0.0	Yes	2.871	0.029	n/a	GoodResponse	0	n/a	n/a	7	45	Cue	Neutral	True
429.58	4.1	Control	0.6522	0.0	Yes	2.871	0.001	n/a	GoodResponse	0	n/a	n/a	7	45	Fixation	Neutral	True
433.676	0.37	Control	0.6522	0.003	Yes	2.871	-0.003	4.0	GoodResponse	0	0.193	432.869	7	45	Target	Neutral	True
433.869	0.3	Control	0.6522	0.003	Yes	2.871	-0.003	4.0	GoodResponse	0	0.193	n/a	7	45	ButtonPress	Neutral	True
434.06	0.33	Control	0.6522	n/a	Yes	2.871	n/a	n/a	GoodResponse	0	n/a	n/a	7	45	Blank	Neutral	True
434.378	1.45	Control	0.6522	n/a	Yes	2.871	n/a	5.0	GoodResponse	0	0.029	433.407	7	45	Feedback	Neutral	True
435.832	2.871	Control	0.6522	n/a	Yes	2.871	n/a	n/a	GoodResponse	0	0.0	n/a	7	45	ISIslide	Neutral	True
438.724	0.25	Lose2	0.6596	0.0	Yes	3.376	0.024	n/a	GoodResponse	0	n/a	n/a	7	46	Cue	AvoidedLoss	True
438.975	4.0	Lose2	0.6596	0.0	Yes	3.376	0.001	n/a	GoodResponse	0	n/a	n/a	7	46	Fixation	AvoidedLoss	True
442.97	0.38	Lose2	0.6596	0.004	Yes	3.376	-0.004	4.0	GoodResponse	0	0.207	442.177	7	46	Target	AvoidedLoss	True
443.177	0.3	Lose2	0.6596	0.004	Yes	3.376	-0.004	4.0	GoodResponse	0	0.207	n/a	7	46	ButtonPress	AvoidedLoss	True
443.355	0.32	Lose2	0.6596	n/a	Yes	3.376	n/a	n/a	GoodResponse	0	n/a	n/a	7	46	Blank	AvoidedLoss	True
443.672	1.45	Lose2	0.6596	n/a	Yes	3.376	n/a	5.0	GoodResponse	0	0.004	442.676	7	46	Feedback	AvoidedLoss	True
445.127	3.376	Lose2	0.6596	n/a	Yes	3.376	n/a	n/a	GoodResponse	0	0.0	n/a	7	46	ISIslide	AvoidedLoss	True
448.52	0.25	Lose2	0.6667000000000001	0.0	Yes	2.68	0.02	n/a	GoodResponse	0	n/a	n/a	7	47	Cue	AvoidedLoss	True
448.771	4.0	Lose2	0.6667000000000001	0.0	Yes	2.68	0.001	n/a	GoodResponse	0	n/a	n/a	7	47	Fixation	AvoidedLoss	True
452.766	0.38	Lose2	0.6667000000000001	0.004	Yes	2.68	-0.004	4.0	GoodResponse	0	0.243	452.009	7	47	Target	AvoidedLoss	True
453.009	0.3	Lose2	0.6667000000000001	0.004	Yes	2.68	-0.004	4.0	GoodResponse	0	0.243	n/a	7	47	ButtonPress	AvoidedLoss	True
453.151	0.32	Lose2	0.6667000000000001	n/a	Yes	2.68	n/a	n/a	GoodResponse	0	n/a	n/a	7	47	Blank	AvoidedLoss	True
453.468	1.45	Lose2	0.6667000000000001	n/a	Yes	2.68	n/a	5.0	GoodResponse	0	0.012	452.48	7	47	Feedback	AvoidedLoss	True
454.922	2.68	Lose2	0.6667000000000001	n/a	Yes	2.68	n/a	n/a	GoodResponse	0	0.0	n/a	7	47	ISIslide	AvoidedLoss	True
457.614	0.25	Lose2	0.6735	0.0	Yes	3.036	0.014	n/a	GoodResponse	0	n/a	n/a	7	48	Cue	AvoidedLoss	True
457.865	3.95	Lose2	0.6735	0.0	Yes	3.036	0.001	n/a	GoodResponse	0	n/a	n/a	7	48	Fixation	AvoidedLoss	True
461.81	0.37	Lose2	0.6735	0.004	Yes	3.036	-0.004	4.0	GoodResponse	0	0.245	461.055	7	48	Target	AvoidedLoss	True
462.055	0.3	Lose2	0.6735	0.004	Yes	3.036	-0.004	4.0	GoodResponse	0	0.245	n/a	7	48	ButtonPress	AvoidedLoss	True
462.194	0.33	Lose2	0.6735	n/a	Yes	3.036	n/a	n/a	GoodResponse	0	n/a	n/a	7	48	Blank	AvoidedLoss	True
462.512	1.45	Lose2	0.6735	n/a	Yes	3.036	n/a	5.0	GoodResponse	0	0.041	461.553	7	48	Feedback	AvoidedLoss	True
463.966	3.036	Lose2	0.6735	n/a	Yes	3.036	n/a	n/a	GoodResponse	0	0.0	n/a	7	48	ISIslide	AvoidedLoss	True
467.025	0.25	Control	0.68	0.0	Yes	2.875	0.025	n/a	GoodResponse	0	n/a	n/a	7	49	Cue	Neutral	True
467.276	4.0	Control	0.68	0.0	Yes	2.875	0.001	n/a	GoodResponse	0	n/a	n/a	7	49	Fixation	Neutral	True
471.271	0.36	Control	0.68	0.004	Yes	2.875	-0.004	4.0	GoodResponse	0	0.26	470.531	7	49	Target	Neutral	True
471.531	0.3	Control	0.68	0.004	Yes	2.875	-0.004	4.0	GoodResponse	0	0.26	n/a	7	49	ButtonPress	Neutral	True
471.639	0.34	Control	0.68	n/a	Yes	2.875	n/a	n/a	GoodResponse	0	n/a	n/a	7	49	Blank	Neutral	True
471.973	1.45	Control	0.68	n/a	Yes	2.875	n/a	5.0	GoodResponse	0	0.043	471.016	7	49	Feedback	Neutral	True
473.428	2.875	Control	0.68	n/a	Yes	2.875	n/a	n/a	GoodResponse	0	0.0	n/a	7	49	ISIslide	Neutral	True
476.32	0.25	Control	0.6862999999999999	0.0	Yes	2.78	0.02	n/a	GoodResponse	0	n/a	n/a	7	50	Cue	Neutral	True
476.57	4.0	Control	0.6862999999999999	0.001	Yes	2.78	0.0	n/a	GoodResponse	0	n/a	n/a	7	50	Fixation	Neutral	True
480.566	0.35	Control	0.6862999999999999	0.004	Yes	2.78	-0.004	4.0	GoodResponse	0	0.242	479.808	7	50	Target	Neutral	True
480.808	0.3	Control	0.6862999999999999	0.004	Yes	2.78	-0.004	4.0	GoodResponse	0	0.242	n/a	7	50	ButtonPress	Neutral	True
480.917	0.35	Control	0.6862999999999999	n/a	Yes	2.78	n/a	n/a	GoodResponse	0	n/a	n/a	7	50	Blank	Neutral	True
481.268	1.45	Control	0.6862999999999999	n/a	Yes	2.78	n/a	5.0	GoodResponse	0	0.016	480.284	7	50	Feedback	Neutral	True
482.722	2.78	Control	0.6862999999999999	n/a	Yes	2.78	n/a	n/a	GoodResponse	0	0.0	n/a	7	50	ISIslide	Neutral	True
485.514	0.25	Control	0.6731	0.0	No	2.736	0.014	n/a	NoResponse	0	n/a	n/a	7	51	Cue	Neutral	True
485.765	3.95	Control	0.6731	0.0	No	2.736	0.001	n/a	NoResponse	0	n/a	n/a	7	51	Fixation	Neutral	True
489.71	0.34	Control	0.6731	0.004	No	2.736	-0.004	4.0	NoResponse	0	0.443	489.153	7	51	Target	Neutral	True
490.061	0.36	Control	0.6731	n/a	No	2.736	n/a	n/a	NoResponse	0	n/a	n/a	7	51	Blank	Neutral	True
490.153	0.3	Control	0.6731	0.004	No	2.736	-0.004	4.0	NoResponse	0	0.443	n/a	7	51	ButtonPress	Neutral	True
490.412	1.45	Control	0.6731	n/a	No	2.736	n/a	5.0	NoResponse	0	0.043	489.455	7	51	Feedback	Neutral	True
491.866	2.736	Control	0.6731	n/a	No	2.736	n/a	n/a	NoResponse	0	0.0	n/a	7	51	ISIslide	Neutral	True
494.624	0.25	Control	0.6792	0.0	Yes	2.626	0.024	n/a	GoodResponse	0	n/a	n/a	7	52	Cue	Neutral	True
494.875	4.05	Control	0.6792	0.0	Yes	2.626	0.001	n/a	GoodResponse	0	n/a	n/a	7	52	Fixation	Neutral	True
498.921	0.33	Control	0.6792	0.003	Yes	2.626	-0.003	4.0	GoodResponse	0	0.252	498.173	7	52	Target	Neutral	True
499.173	0.3	Control	0.6792	0.003	Yes	2.626	-0.003	4.0	GoodResponse	0	0.252	n/a	7	52	ButtonPress	Neutral	True
499.255	0.37	Control	0.6792	n/a	Yes	2.626	n/a	n/a	GoodResponse	0	n/a	n/a	7	52	Blank	Neutral	True
499.623	1.45	Control	0.6792	n/a	Yes	2.626	n/a	5.0	GoodResponse	0	0.003	498.626	7	52	Feedback	Neutral	True
501.077	2.626	Control	0.6792	n/a	Yes	2.626	n/a	n/a	GoodResponse	0	0.0	n/a	7	52	ISIslide	Neutral	True
503.718	0.25	Win2	0.6851999999999999	0.0	Yes	2.932	0.018	n/a	GoodResponse	1	n/a	n/a	8	53	Cue	Win	True
503.969	4.05	Win2	0.6851999999999999	0.0	Yes	2.932	0.001	n/a	GoodResponse	1	n/a	n/a	8	53	Fixation	Win	True
508.014	0.32	Win2	0.6851999999999999	0.004	Yes	2.932	-0.004	4.0	GoodResponse	1	0.224	507.238	8	53	Target	Win	True
508.238	0.3	Win2	0.6851999999999999	0.004	Yes	2.932	-0.004	4.0	GoodResponse	1	0.224	n/a	8	53	ButtonPress	Win	True
508.349	0.38	Win2	0.6851999999999999	n/a	Yes	2.932	n/a	n/a	GoodResponse	1	n/a	n/a	8	53	Blank	Win	True
508.716	1.45	Win2	0.6851999999999999	n/a	Yes	2.932	n/a	5.0	GoodResponse	1	0.031	507.747	8	53	Feedback	Win	True
510.171	2.932	Win2	0.6851999999999999	n/a	Yes	2.932	n/a	n/a	GoodResponse	1	0.0	n/a	8	53	ISIslide	Win	True
513.13	0.25	Win2	0.6909000000000001	0.0	Yes	2.72	0.03	n/a	GoodResponse	1	n/a	n/a	9	54	Cue	Win	True
513.38	3.95	Win2	0.6909000000000001	0.0	Yes	2.72	0.0	n/a	GoodResponse	1	n/a	n/a	9	54	Fixation	Win	True
517.326	0.31	Win2	0.6909000000000001	0.004	Yes	2.72	-0.004	4.0	GoodResponse	1	0.213	516.539	9	54	Target	Win	True
517.539	0.3	Win2	0.6909000000000001	0.004	Yes	2.72	-0.004	4.0	GoodResponse	1	0.213	n/a	9	54	ButtonPress	Win	True
517.643	0.39	Win2	0.6909000000000001	n/a	Yes	2.72	n/a	n/a	GoodResponse	1	n/a	n/a	9	54	Blank	Win	True
518.028	1.45	Win2	0.6909000000000001	n/a	Yes	2.72	n/a	5.0	GoodResponse	1	0.036	517.064	9	54	Feedback	Win	True
519.482	2.72	Win2	0.6909000000000001	n/a	Yes	2.72	n/a	n/a	GoodResponse	1	0.0	n/a	9	54	ISIslide	Win	True
522.223	0.25	Control	0.6964	0.001	Yes	3.027	0.023	n/a	GoodResponse	0	n/a	n/a	9	55	Cue	Neutral	True
522.474	3.95	Control	0.6964	0.0	Yes	3.027	0.001	n/a	GoodResponse	0	n/a	n/a	9	55	Fixation	Neutral	True
526.419	0.3	Control	0.6964	0.004	Yes	3.027	-0.004	4.0	GoodResponse	0	0.28	525.699	9	55	Target	Neutral	True
526.699	0.3	Control	0.6964	0.004	Yes	3.027	-0.004	4.0	GoodResponse	0	0.28	n/a	9	55	ButtonPress	Neutral	True
526.72	0.4	Control	0.6964	n/a	Yes	3.027	n/a	n/a	GoodResponse	0	n/a	n/a	9	55	Blank	Neutral	True
527.121	1.45	Control	0.6964	n/a	Yes	3.027	n/a	5.0	GoodResponse	0	0.016	526.137	9	55	Feedback	Neutral	True
528.576	3.027	Control	0.6964	n/a	Yes	3.027	n/a	n/a	GoodResponse	0	0.0	n/a	9	55	ISIslide	Neutral	True
531.618	0.25	Control	0.7018000000000001	0.0	Yes	2.832	0.018	n/a	GoodResponse	0	n/a	n/a	9	56	Cue	Neutral	True
531.869	3.95	Control	0.7018000000000001	0.0	Yes	2.832	0.001	n/a	GoodResponse	0	n/a	n/a	9	56	Fixation	Neutral	True
535.814	0.29	Control	0.7018000000000001	0.004	Yes	2.832	-0.004	4.0	GoodResponse	0	0.227	535.041	9	56	Target	Neutral	True
536.041	0.3	Control	0.7018000000000001	0.004	Yes	2.832	-0.004	4.0	GoodResponse	0	0.227	n/a	9	56	ButtonPress	Neutral	True
536.115	0.41	Control	0.7018000000000001	n/a	Yes	2.832	n/a	n/a	GoodResponse	0	n/a	n/a	9	56	Blank	Neutral	True
536.516	1.45	Control	0.7018000000000001	n/a	Yes	2.832	n/a	5.0	GoodResponse	0	0.036	535.552	9	56	Feedback	Neutral	True
537.97	2.832	Control	0.7018000000000001	n/a	Yes	2.832	n/a	n/a	GoodResponse	0	0.0	n/a	9	56	ISIslide	Neutral	True
540.829	0.25	Control	0.7069	0.0	Yes	3.471	0.029	n/a	GoodResponse	0	n/a	n/a	9	57	Cue	Neutral	True
541.08	4.0	Control	0.7069	0.0	Yes	3.471	0.001	n/a	GoodResponse	0	n/a	n/a	9	57	Fixation	Neutral	True
545.075	0.28	Control	0.7069	0.004	Yes	3.471	-0.004	4.0	GoodResponse	0	0.235	544.31	9	57	Target	Neutral	True
545.31	0.3	Control	0.7069	0.004	Yes	3.471	-0.004	4.0	GoodResponse	0	0.235	n/a	9	57	ButtonPress	Neutral	True
545.359	0.42	Control	0.7069	n/a	Yes	3.471	n/a	n/a	GoodResponse	0	n/a	n/a	9	57	Blank	Neutral	True
545.777	1.45	Control	0.7069	n/a	Yes	3.471	n/a	5.0	GoodResponse	0	0.042	544.819	9	57	Feedback	Neutral	True
547.231	3.471	Control	0.7069	n/a	Yes	3.471	n/a	n/a	GoodResponse	0	0.0	n/a	9	57	ISIslide	Neutral	True
550.725	0.25	Win2	0.7119	0.0	Yes	2.725	0.025	n/a	GoodResponse	1	n/a	n/a	10	58	Cue	Win	True
550.976	4.05	Win2	0.7119	0.0	Yes	2.725	0.001	n/a	GoodResponse	1	n/a	n/a	10	58	Fixation	Win	True
555.021	0.27	Win2	0.7119	0.004	Yes	2.725	-0.004	4.0	GoodResponse	1	0.216	554.237	10	58	Target	Win	True
555.237	0.3	Win2	0.7119	0.004	Yes	2.725	-0.004	4.0	GoodResponse	1	0.216	n/a	10	58	ButtonPress	Win	True
555.306	0.43	Win2	0.7119	n/a	Yes	2.725	n/a	n/a	GoodResponse	1	n/a	n/a	10	58	Blank	Win	True
555.724	1.45	Win2	0.7119	n/a	Yes	2.725	n/a	5.0	GoodResponse	1	0.047	554.771	10	58	Feedback	Win	True
557.178	2.725	Win2	0.7119	n/a	Yes	2.725	n/a	n/a	GoodResponse	1	0.0	n/a	10	58	ISIslide	Win	True
559.919	0.25	Lose2	0.7167	0.0	Yes	2.681	0.019	n/a	GoodResponse	0	n/a	n/a	10	59	Cue	AvoidedLoss	True
560.17	4.0	Lose2	0.7167	0.0	Yes	2.681	0.001	n/a	GoodResponse	0	n/a	n/a	10	59	Fixation	AvoidedLoss	True
564.165	0.26	Lose2	0.7167	0.004	Yes	2.681	-0.004	4.0	GoodResponse	0	0.206	563.371	10	59	Target	AvoidedLoss	True
564.371	0.3	Lose2	0.7167	0.004	Yes	2.681	-0.004	4.0	GoodResponse	0	0.206	n/a	10	59	ButtonPress	AvoidedLoss	True
564.433	0.44	Lose2	0.7167	n/a	Yes	2.681	n/a	n/a	GoodResponse	0	n/a	n/a	10	59	Blank	AvoidedLoss	True
564.867	1.45	Lose2	0.7167	n/a	Yes	2.681	n/a	5.0	GoodResponse	0	0.026	563.893	10	59	Feedback	AvoidedLoss	True
566.322	2.681	Lose2	0.7167	n/a	Yes	2.681	n/a	n/a	GoodResponse	0	0.0	n/a	10	59	ISIslide	AvoidedLoss	True
569.013	0.25	Control	0.7049	0.0	No	2.687	0.013	n/a	LatePress	0	n/a	n/a	10	60	Cue	Neutral	True
569.264	4.0	Control	0.7049	0.0	No	2.687	0.001	n/a	LatePress	0	n/a	n/a	10	60	Fixation	Neutral	True
573.259	0.25	Control	0.7049	0.004	No	2.687	-0.004	4.0	LatePress	0	0.251	572.51	10	60	Target	Neutral	True
573.51	0.45	Control	0.7049	n/a	No	2.687	n/a	n/a	LatePress	0	n/a	n/a	10	60	Blank	Neutral	True
573.51	0.3	Control	0.7049	0.004	No	2.687	-0.004	4.0	LatePress	0	0.251	n/a	10	60	ButtonPress	Neutral	True
573.961	1.45	Control	0.7049	n/a	No	2.687	n/a	5.0	LatePress	0	0.005	572.966	10	60	Feedback	Neutral	True
575.416	2.687	Control	0.7049	n/a	No	2.687	n/a	n/a	LatePress	0	0.0	n/a	10	60	ISIslide	Neutral	True
578.124	0.25	Lose2	0.6934999999999999	0.0	No	2.976	0.024	n/a	LatePress	-1	n/a	n/a	9	61	Cue	Loss	True
578.374	4.0	Lose2	0.6934999999999999	0.001	No	2.976	0.0	n/a	LatePress	-1	n/a	n/a	9	61	Fixation	Loss	True
582.37	0.24	Lose2	0.6934999999999999	0.004	No	2.976	-0.004	4.0	LatePress	-1	0.247	581.617	9	61	Target	Loss	True
582.617	0.3	Lose2	0.6934999999999999	0.004	No	2.976	-0.004	4.0	LatePress	-1	0.247	n/a	9	61	ButtonPress	Loss	True
582.621	0.46	Lose2	0.6934999999999999	n/a	No	2.976	n/a	n/a	LatePress	-1	n/a	n/a	9	61	Blank	Loss	True
583.072	1.45	Lose2	0.6934999999999999	n/a	No	2.976	n/a	5.0	LatePress	-1	0.015	582.087	9	61	Feedback	Loss	True
584.526	2.976	Lose2	0.6934999999999999	n/a	No	2.976	n/a	n/a	LatePress	-1	0.0	n/a	9	61	ISIslide	Loss	True
587.518	0.25	Lose2	0.6984	0.001	Yes	2.882	0.018	n/a	GoodResponse	0	n/a	n/a	9	62	Cue	AvoidedLoss	True
587.769	3.9	Lose2	0.6984	0.0	Yes	2.882	0.001	n/a	GoodResponse	0	n/a	n/a	9	62	Fixation	AvoidedLoss	True
591.664	0.23	Lose2	0.6984	0.004	Yes	2.882	-0.004	4.0	GoodResponse	0	0.21	590.874	9	62	Target	AvoidedLoss	True
591.874	0.3	Lose2	0.6984	0.004	Yes	2.882	-0.004	4.0	GoodResponse	0	0.21	n/a	9	62	ButtonPress	AvoidedLoss	True
591.898	0.47	Lose2	0.6984	n/a	Yes	2.882	n/a	n/a	GoodResponse	0	n/a	n/a	9	62	Blank	AvoidedLoss	True
592.366	1.45	Lose2	0.6984	n/a	Yes	2.882	n/a	5.0	GoodResponse	0	0.038	591.404	9	62	Feedback	AvoidedLoss	True
593.821	2.882	Lose2	0.6984	n/a	Yes	2.882	n/a	n/a	GoodResponse	0	0.0	n/a	9	62	ISIslide	AvoidedLoss	True
596.729	0.25	Lose2	0.6875	0.0	No	2.621	0.029	n/a	NoResponse	-1	n/a	n/a	8	63	Cue	Loss	True
596.98	4.05	Lose2	0.6875	0.0	No	2.621	0.001	n/a	NoResponse	-1	n/a	n/a	8	63	Fixation	Loss	True
601.025	0.22	Lose2	0.6875	0.004	No	2.621	-0.004	4.0	NoResponse	-1	0.445	600.47	8	63	Target	Loss	True
601.26	0.48	Lose2	0.6875	n/a	No	2.621	n/a	n/a	NoResponse	-1	n/a	n/a	8	63	Blank	Loss	True
601.47	0.3	Lose2	0.6875	0.004	No	2.621	-0.004	4.0	NoResponse	-1	0.445	n/a	8	63	ButtonPress	Loss	True
601.728	1.45	Lose2	0.6875	n/a	No	2.621	n/a	5.0	NoResponse	-1	0.042	600.77	8	63	Feedback	Loss	True
603.182	2.621	Lose2	0.6875	n/a	No	2.621	n/a	n/a	NoResponse	-1	0.0	n/a	8	63	ISIslide	Loss	True
605.823	0.25	Win2	0.6769	0.0	No	3.127	0.023	n/a	LatePress	0	n/a	n/a	8	64	Cue	MissedWin	True
606.074	4.15	Win2	0.6769	0.0	No	3.127	0.001	n/a	LatePress	0	n/a	n/a	8	64	Fixation	MissedWin	True
610.22	0.21	Win2	0.6769	0.003	No	3.127	-0.003	4.0	LatePress	0	0.212	609.432	8	64	Target	MissedWin	True
610.432	0.3	Win2	0.6769	0.003	No	3.127	-0.003	4.0	LatePress	0	0.212	n/a	8	64	ButtonPress	MissedWin	True
610.437	0.49	Win2	0.6769	n/a	No	3.127	n/a	n/a	LatePress	0	n/a	n/a	8	64	Blank	MissedWin	True
610.922	1.45	Win2	0.6769	n/a	No	3.127	n/a	5.0	LatePress	0	0.019	609.941	8	64	Feedback	MissedWin	True
612.376	3.127	Win2	0.6769	n/a	No	3.127	n/a	n/a	LatePress	0	0.0	n/a	8	64	ISIslide	MissedWin	True
615.519	0.25	Control	0.6667000000000001	0.0	No	2.781	0.019	n/a	NoResponse	0	n/a	n/a	8	65	Cue	Neutral	False
615.769	4.0	Control	0.6667000000000001	0.001	No	2.781	0.0	4.0	NoResponse	0	3.803	618.572	8	65	Fixation	Neutral	False
619.572	0.3	Control	0.6667000000000001	0.001	No	2.781	0.0	4.0	NoResponse	0	3.803	n/a	8	65	ButtonPress	Neutral	False
619.765	0.2	Control	0.6667000000000001	0.004	No	2.781	-0.004	4.0	NoResponse	0	0.358	619.123	8	65	Target	Neutral	False
619.965	0.5	Control	0.6667000000000001	n/a	No	2.781	n/a	n/a	NoResponse	0	n/a	n/a	8	65	Blank	Neutral	False
620.123	0.3	Control	0.6667000000000001	0.004	No	2.781	-0.004	4.0	NoResponse	0	0.358	n/a	8	65	ButtonPress	Neutral	False
620.467	1.45	Control	0.6667000000000001	n/a	No	2.781	n/a	5.0	NoResponse	0	0.034	619.501	8	65	Feedback	Neutral	False
621.921	2.781	Control	0.6667000000000001	n/a	No	2.781	n/a	n/a	NoResponse	0	0.0	n/a	8	65	ISIslide	Neutral	False
624.73	0.25	Win2	0.6567000000000001	0.0	No	2.77	0.03	n/a	NoResponse	0	n/a	n/a	8	66	Cue	MissedWin	True
624.98	3.9	Win2	0.6567000000000001	0.0	No	2.77	0.0	n/a	NoResponse	0	n/a	n/a	8	66	Fixation	MissedWin	True
628.892	0.19	Win2	0.6567000000000001	0.0	No	2.77	0.012	4.0	NoResponse	0	0.231	628.123	8	66	Target	MissedWin	True
629.076	0.51	Win2	0.6567000000000001	n/a	No	2.77	n/a	n/a	NoResponse	0	n/a	n/a	8	66	Blank	MissedWin	True
629.123	0.3	Win2	0.6567000000000001	0.0	No	2.77	0.012	4.0	NoResponse	0	0.231	n/a	8	66	ButtonPress	MissedWin	True
629.577	1.45	Win2	0.6567000000000001	n/a	No	2.77	n/a	5.0	NoResponse	0	0.046	628.623	8	66	Feedback	MissedWin	True
631.032	2.77	Win2	0.6567000000000001	n/a	No	2.77	n/a	n/a	NoResponse	0	0.0	n/a	8	66	ISIslide	MissedWin	True
633.823	0.25	Control	0.6470999999999999	0.001	No	2.727	0.023	n/a	NoResponse	0	n/a	n/a	8	67	Cue	Neutral	True
634.074	3.95	Control	0.6470999999999999	0.0	No	2.727	0.001	n/a	NoResponse	0	n/a	n/a	8	67	Fixation	Neutral	True
638.019	0.19	Control	0.6470999999999999	0.004	No	2.727	-0.004	4.0	NoResponse	0	0.423	637.442	8	67	Target	Neutral	True
638.22	0.51	Control	0.6470999999999999	n/a	No	2.727	n/a	n/a	NoResponse	0	n/a	n/a	8	67	Blank	Neutral	True
638.442	0.3	Control	0.6470999999999999	0.004	No	2.727	-0.004	4.0	NoResponse	0	0.423	n/a	8	67	ButtonPress	Neutral	True
638.721	1.45	Control	0.6470999999999999	n/a	No	2.727	n/a	5.0	NoResponse	0	0.024	637.745	8	67	Feedback	Neutral	True
640.176	2.727	Control	0.6470999999999999	n/a	No	2.727	n/a	n/a	NoResponse	0	0.0	n/a	8	67	ISIslide	Neutral	True
642.917	0.25	Win2	0.6522	0.0	Yes	3.083	0.017	n/a	GoodResponse	1	n/a	n/a	9	68	Cue	Win	True
643.168	4.0	Win2	0.6522	0.0	Yes	3.083	0.001	n/a	GoodResponse	1	n/a	n/a	9	68	Fixation	Win	True
647.163	0.2	Win2	0.6522	0.004	Yes	3.083	-0.004	4.0	GoodResponse	1	0.178	646.341	9	68	Target	Win	True
647.341	0.3	Win2	0.6522	0.004	Yes	3.083	-0.004	4.0	GoodResponse	1	0.178	n/a	9	68	ButtonPress	Win	True
647.364	0.5	Win2	0.6522	n/a	Yes	3.083	n/a	n/a	GoodResponse	1	n/a	n/a	9	68	Blank	Win	True
647.865	1.45	Win2	0.6522	n/a	Yes	3.083	n/a	5.0	GoodResponse	1	0.002	646.867	9	68	Feedback	Win	True
649.32	3.083	Win2	0.6522	n/a	Yes	3.083	n/a	n/a	GoodResponse	1	0.0	n/a	9	68	ISIslide	Win	True
652.429	0.25	Win2	0.6429	0.0	No	3.221	0.029	n/a	LatePress	0	n/a	n/a	9	69	Cue	MissedWin	True
652.68	3.95	Win2	0.6429	0.0	No	3.221	0.001	n/a	LatePress	0	n/a	n/a	9	69	Fixation	MissedWin	True
656.625	0.21	Win2	0.6429	0.004	No	3.221	-0.004	4.0	LatePress	0	0.213	655.838	9	69	Target	MissedWin	True
656.838	0.3	Win2	0.6429	0.004	No	3.221	-0.004	4.0	LatePress	0	0.213	n/a	9	69	ButtonPress	MissedWin	True
656.842	0.49	Win2	0.6429	n/a	No	3.221	n/a	n/a	LatePress	0	n/a	n/a	9	69	Blank	MissedWin	True
657.327	1.45	Win2	0.6429	n/a	No	3.221	n/a	5.0	LatePress	0	0.004	656.331	9	69	Feedback	MissedWin	True
658.781	3.221	Win2	0.6429	n/a	No	3.221	n/a	n/a	LatePress	0	0.0	n/a	9	69	ISIslide	MissedWin	True
662.024	0.25	Lose2	0.6338	0.0	No	3.026	0.024	n/a	NoResponse	-1	n/a	n/a	8	70	Cue	Loss	True
662.275	4.05	Lose2	0.6338	0.0	No	3.026	0.001	n/a	NoResponse	-1	n/a	n/a	8	70	Fixation	Loss	True
666.32	0.22	Lose2	0.6338	0.004	No	3.026	-0.004	4.0	NoResponse	-1	0.267	665.587	8	70	Target	Loss	True
666.555	0.48	Lose2	0.6338	n/a	No	3.026	n/a	n/a	NoResponse	-1	n/a	n/a	8	70	Blank	Loss	True
666.587	0.3	Lose2	0.6338	0.004	No	3.026	-0.004	4.0	NoResponse	-1	0.267	n/a	8	70	ButtonPress	Loss	True
667.023	1.45	Lose2	0.6338	n/a	No	3.026	n/a	5.0	NoResponse	-1	0.014	666.037	8	70	Feedback	Loss	True
668.477	3.026	Lose2	0.6338	n/a	No	3.026	n/a	n/a	NoResponse	-1	0.0	n/a	8	70	ISIslide	Loss	True
671.519	0.25	Win2	0.6389	0.0	Yes	2.731	0.019	n/a	GoodResponse	1	n/a	n/a	9	71	Cue	Win	True
671.77	4.05	Win2	0.6389	0.0	Yes	2.731	0.001	n/a	GoodResponse	1	n/a	n/a	9	71	Fixation	Win	True
675.815	0.23	Win2	0.6389	0.004	Yes	2.731	-0.004	4.0	GoodResponse	1	0.224	675.039	9	71	Target	Win	True
676.039	0.3	Win2	0.6389	0.004	Yes	2.731	-0.004	4.0	GoodResponse	1	0.224	n/a	9	71	ButtonPress	Win	True
676.05	0.47	Win2	0.6389	n/a	Yes	2.731	n/a	n/a	GoodResponse	1	n/a	n/a	9	71	Blank	Win	True
676.518	1.45	Win2	0.6389	n/a	Yes	2.731	n/a	5.0	GoodResponse	1	0.032	675.55	9	71	Feedback	Win	True
677.972	2.731	Win2	0.6389	n/a	Yes	2.731	n/a	n/a	GoodResponse	1	0.0	n/a	9	71	ISIslide	Win	True
680.713	0.25	Win2	0.6437999999999999	0.001	Yes	2.787	0.013	n/a	GoodResponse	1	n/a	n/a	10	72	Cue	Win	True
680.964	4.1	Win2	0.6437999999999999	0.0	Yes	2.787	0.001	n/a	GoodResponse	1	n/a	n/a	10	72	Fixation	Win	True
685.06	0.24	Win2	0.6437999999999999	0.003	Yes	2.787	-0.003	4.0	GoodResponse	1	0.22	684.28	10	72	Target	Win	True
685.28	0.3	Win2	0.6437999999999999	0.003	Yes	2.787	-0.003	4.0	GoodResponse	1	0.22	n/a	10	72	ButtonPress	Win	True
685.311	0.46	Win2	0.6437999999999999	n/a	Yes	2.787	n/a	n/a	GoodResponse	1	n/a	n/a	10	72	Blank	Win	True
685.762	1.45	Win2	0.6437999999999999	n/a	Yes	2.787	n/a	5.0	GoodResponse	1	0.007	684.769	10	72	Feedback	Win	True
687.216	2.787	Win2	0.6437999999999999	n/a	Yes	2.787	n/a	n/a	GoodResponse	1	0.0	n/a	10	72	ISIslide	Win	True
690.025	0.25	Win2	0.6486	0.0	Yes	2.675	0.025	n/a	GoodResponse	1	n/a	n/a	11	73	Cue	Win	True
690.275	4.0	Win2	0.6486	0.0	Yes	2.675	0.0	n/a	GoodResponse	1	n/a	n/a	11	73	Fixation	Win	True
694.271	0.25	Win2	0.6486	0.004	Yes	2.675	-0.004	4.0	GoodResponse	1	0.217	693.488	11	73	Target	Win	True
694.488	0.3	Win2	0.6486	0.004	Yes	2.675	-0.004	4.0	GoodResponse	1	0.217	n/a	11	73	ButtonPress	Win	True
694.521	0.45	Win2	0.6486	n/a	Yes	2.675	n/a	n/a	GoodResponse	1	n/a	n/a	11	73	Blank	Win	True
694.973	1.45	Win2	0.6486	n/a	Yes	2.675	n/a	5.0	GoodResponse	1	0.016	693.989	11	73	Feedback	Win	True
696.427	2.675	Win2	0.6486	n/a	Yes	2.675	n/a	n/a	GoodResponse	1	0.0	n/a	11	73	ISIslide	Win	True
699.118	0.25	Lose2	0.6533	0.0	Yes	2.632	0.018	n/a	GoodResponse	0	n/a	n/a	11	74	Cue	AvoidedLoss	True
699.369	4.05	Lose2	0.6533	0.0	Yes	2.632	0.001	n/a	GoodResponse	0	n/a	n/a	11	74	Fixation	AvoidedLoss	True
703.415	0.26	Lose2	0.6533	0.003	Yes	2.632	-0.003	4.0	GoodResponse	0	0.237	702.652	11	74	Target	AvoidedLoss	True
703.652	0.3	Lose2	0.6533	0.003	Yes	2.632	-0.003	4.0	GoodResponse	0	0.237	n/a	11	74	ButtonPress	AvoidedLoss	True
703.682	0.44	Lose2	0.6533	n/a	Yes	2.632	n/a	n/a	GoodResponse	0	n/a	n/a	11	74	Blank	AvoidedLoss	True
704.117	1.45	Lose2	0.6533	n/a	Yes	2.632	n/a	5.0	GoodResponse	0	0.042	703.159	11	74	Feedback	AvoidedLoss	True
705.571	2.632	Lose2	0.6533	n/a	Yes	2.632	n/a	n/a	GoodResponse	0	0.0	n/a	11	74	ISIslide	AvoidedLoss	True
708.229	0.25	Lose2	0.6579	0.0	Yes	2.921	0.029	n/a	GoodResponse	0	n/a	n/a	11	75	Cue	AvoidedLoss	True
708.48	3.95	Lose2	0.6579	0.0	Yes	2.921	0.001	n/a	GoodResponse	0	n/a	n/a	11	75	Fixation	AvoidedLoss	True
712.425	0.27	Lose2	0.6579	0.004	Yes	2.921	-0.004	4.0	GoodResponse	0	0.206	711.631	11	75	Target	AvoidedLoss	True
712.631	0.3	Lose2	0.6579	0.004	Yes	2.921	-0.004	4.0	GoodResponse	0	0.206	n/a	11	75	ButtonPress	AvoidedLoss	True
712.709	0.43	Lose2	0.6579	n/a	Yes	2.921	n/a	n/a	GoodResponse	0	n/a	n/a	11	75	Blank	AvoidedLoss	True
713.127	1.45	Lose2	0.6579	n/a	Yes	2.921	n/a	5.0	GoodResponse	0	0.007	712.134	11	75	Feedback	AvoidedLoss	True
714.581	2.921	Lose2	0.6579	n/a	Yes	2.921	n/a	n/a	GoodResponse	0	0.0	n/a	11	75	ISIslide	AvoidedLoss	True
717.523	0.25	Control	0.6494	0.0	No	3.227	0.023	n/a	LatePress	0	n/a	n/a	11	76	Cue	Neutral	True
717.774	4.05	Control	0.6494	0.0	No	3.227	0.001	n/a	LatePress	0	n/a	n/a	11	76	Fixation	Neutral	True
721.82	0.27	Control	0.6494	0.003	No	3.227	-0.003	4.0	LatePress	0	0.277	721.097	11	76	Target	Neutral	True
722.097	0.3	Control	0.6494	0.003	No	3.227	-0.003	4.0	LatePress	0	0.277	n/a	11	76	ButtonPress	Neutral	True
722.104	0.43	Control	0.6494	n/a	No	3.227	n/a	n/a	LatePress	0	n/a	n/a	11	76	Blank	Neutral	True
722.522	1.45	Control	0.6494	n/a	No	3.227	n/a	5.0	LatePress	0	0.027	721.549	11	76	Feedback	Neutral	True
723.976	3.227	Control	0.6494	n/a	No	3.227	n/a	n/a	LatePress	0	0.0	n/a	11	76	ISIslide	Neutral	True
727.219	0.25	Lose2	0.6537999999999999	0.0	Yes	2.581	0.019	n/a	GoodResponse	0	n/a	n/a	11	77	Cue	AvoidedLoss	True
727.47	3.95	Lose2	0.6537999999999999	0.0	Yes	2.581	0.001	n/a	GoodResponse	0	n/a	n/a	11	77	Fixation	AvoidedLoss	True
731.415	0.28	Lose2	0.6537999999999999	0.004	Yes	2.581	-0.004	4.0	GoodResponse	0	0.258	730.673	11	77	Target	AvoidedLoss	True
731.673	0.3	Lose2	0.6537999999999999	0.004	Yes	2.581	-0.004	4.0	GoodResponse	0	0.258	n/a	11	77	ButtonPress	AvoidedLoss	True
731.699	0.42	Lose2	0.6537999999999999	n/a	Yes	2.581	n/a	n/a	GoodResponse	0	n/a	n/a	11	77	Blank	AvoidedLoss	True
732.117	1.45	Lose2	0.6537999999999999	n/a	Yes	2.581	n/a	5.0	GoodResponse	0	0.042	731.159	11	77	Feedback	AvoidedLoss	True
733.571	2.581	Lose2	0.6537999999999999	n/a	Yes	2.581	n/a	n/a	GoodResponse	0	0.0	n/a	11	77	ISIslide	AvoidedLoss	True
