onset	duration	cue_type	current_mean_accuracy	duration_error	is_hit	isi_adjusted	onset_delay	response	response_type	reward	rt	rt_time	total_reward	trial_number	trial_phase	trial_type	one_press
11.1	0.25	Control	1.0	0.0	Yes	2.95	0.0	n/a	GoodResponse	0	n/a	n/a	0	0	Cue	Neutral	True
11.35	3.85	Control	1.0	0.0	Yes	2.95	0.0	n/a	GoodResponse	0	n/a	n/a	0	0	Fixation	Neutral	True
15.212	0.4	Control	1.0	0.0	Yes	2.95	0.012	4.0	GoodResponse	0	0.204	14.416	0	0	Target	Neutral	True
15.416	0.3	Control	1.0	0.0	Yes	2.95	0.012	4.0	GoodResponse	0	0.204	n/a	0	0	ButtonPress	Neutral	True
15.596	0.3	Control	1.0	n/a	Yes	2.95	n/a	n/a	GoodResponse	0	n/a	n/a	0	0	Blank	Neutral	True
15.897	1.45	Control	1.0	n/a	Yes	2.95	n/a	5.0	GoodResponse	0	0.029	14.926	0	0	Feedback	Neutral	True
17.352	2.95	Control	1.0	n/a	Yes	2.95	n/a	n/a	GoodResponse	0	0.0	n/a	0	0	ISIslide	Neutral	True
20.327	0.25	Lose2	1.0	0.0	Yes	2.773	0.027	n/a	GoodResponse	0	n/a	n/a	0	1	Cue	AvoidedLoss	True
20.578	4.0	Lose2	1.0	0.0	Yes	2.773	0.001	n/a	GoodResponse	0	n/a	n/a	0	1	Fixation	AvoidedLoss	True
24.573	0.39	Lose2	1.0	0.004	Yes	2.773	-0.004	4.0	GoodResponse	0	0.197	23.77	0	1	Target	AvoidedLoss	True
24.77	0.3	Lose2	1.0	0.004	Yes	2.773	-0.004	4.0	GoodResponse	0	0.197	n/a	0	1	ButtonPress	AvoidedLoss	True
24.974	0.31	Lose2	1.0	n/a	Yes	2.773	n/a	n/a	GoodResponse	0	n/a	n/a	0	1	Blank	AvoidedLoss	True
25.275	1.45	Lose2	1.0	n/a	Yes	2.773	n/a	5.0	GoodResponse	0	0.017	24.292	0	1	Feedback	AvoidedLoss	True
26.73	2.773	Lose2	1.0	n/a	Yes	2.773	n/a	n/a	GoodResponse	0	0.0	n/a	0	1	ISIslide	AvoidedLoss	True
29.521	0.25	Control	1.0	0.0	Yes	2.579	0.021	n/a	GoodResponse	0	n/a	n/a	0	2	Cue	Neutral	True
29.772	4.1	Control	1.0	0.0	Yes	2.579	0.001	n/a	GoodResponse	0	n/a	n/a	0	2	Fixation	Neutral	True
33.868	0.38	Control	1.0	0.003	Yes	2.579	-0.003	4.0	GoodResponse	0	0.195	33.063	0	2	Target	Neutral	True
34.063	0.3	Control	1.0	0.003	Yes	2.579	-0.003	4.0	GoodResponse	0	0.195	n/a	0	2	ButtonPress	Neutral	True
34.252	0.32	Control	1.0	n/a	Yes	2.579	n/a	n/a	GoodResponse	0	n/a	n/a	0	2	Blank	Neutral	True
34.57	1.45	Control	1.0	n/a	Yes	2.579	n/a	5.0	GoodResponse	0	0.039	33.609	0	2	Feedback	Neutral	True
36.024	2.579	Control	1.0	n/a	Yes	2.579	n/a	n/a	GoodResponse	0	0.0	n/a	0	2	ISIslide	Neutral	True
38.632	0.25	Win2	1.0	0.0	Yes	2.818	0.032	n/a	GoodResponse	1	n/a	n/a	1	3	Cue	Win	True
38.883	3.95	Win2	1.0	0.0	Yes	2.818	0.001	n/a	GoodResponse	1	n/a	n/a	1	3	Fixation	Win	True
42.828	0.37	Win2	1.0	0.004	Yes	2.818	-0.004	4.0	GoodResponse	1	0.174	42.002	1	3	Target	Win	True
43.002	0.3	Win2	1.0	0.004	Yes	2.818	-0.004	4.0	GoodResponse	1	0.174	n/a	1	3	ButtonPress	Win	True
43.212	0.33	Win2	1.0	n/a	Yes	2.818	n/a	n/a	GoodResponse	1	n/a	n/a	1	3	Blank	Win	True
43.53	1.45	Win2	1.0	n/a	Yes	2.818	n/a	5.0	GoodResponse	1	0.008	42.538	1	3	Feedback	Win	True
44.984	2.818	Win2	1.0	n/a	Yes	2.818	n/a	n/a	GoodResponse	1	0.0	n/a	1	3	ISIslide	Win	True
47.826	0.25	Win2	1.0	0.0	Yes	3.274	0.026	n/a	GoodResponse	1	n/a	n/a	2	4	Cue	Win	True
48.077	4.0	Win2	1.0	0.0	Yes	3.274	0.001	n/a	GoodResponse	1	n/a	n/a	2	4	Fixation	Win	True
52.072	0.36	Win2	1.0	0.004	Yes	3.274	-0.004	4.0	GoodResponse	1	0.186	51.258	2	4	Target	Win	True
52.258	0.3	Win2	1.0	0.004	Yes	3.274	-0.004	4.0	GoodResponse	1	0.186	n/a	2	4	ButtonPress	Win	True
52.44	0.34	Win2	1.0	n/a	Yes	3.274	n/a	n/a	GoodResponse	1	n/a	n/a	2	4	Blank	Win	True
52.774	1.45	Win2	1.0	n/a	Yes	3.274	n/a	5.0	GoodResponse	1	0.03	51.804	2	4	Feedback	Win	True
54.229	3.274	Win2	1.0	n/a	Yes	3.274	n/a	n/a	GoodResponse	1	0.0	n/a	2	4	ISIslide	Win	True
57.522	0.25	Win2	1.0	0.0	Yes	2.778	0.022	n/a	GoodResponse	1	n/a	n/a	3	5	Cue	Win	True
57.773	4.0	Win2	1.0	0.0	Yes	2.778	0.001	n/a	GoodResponse	1	n/a	n/a	3	5	Fixation	Win	True
61.768	0.35	Win2	1.0	0.004	Yes	2.778	-0.004	4.0	GoodResponse	1	0.183	60.951	3	5	Target	Win	True
61.951	0.3	Win2	1.0	0.004	Yes	2.778	-0.004	4.0	GoodResponse	1	0.183	n/a	3	5	ButtonPress	Win	True
62.119	0.35	Win2	1.0	n/a	Yes	2.778	n/a	n/a	GoodResponse	1	n/a	n/a	3	5	Blank	Win	True
62.47	1.45	Win2	1.0	n/a	Yes	2.778	n/a	5.0	GoodResponse	1	0.041	61.511	3	5	Feedback	Win	True
63.924	2.778	Win2	1.0	n/a	Yes	2.778	n/a	n/a	GoodResponse	1	0.0	n/a	3	5	ISIslide	Win	True
66.716	0.25	Lose2	1.0	0.0	Yes	2.734	0.016	n/a	GoodResponse	0	n/a	n/a	3	6	Cue	AvoidedLoss	True
66.967	3.95	Lose2	1.0	0.0	Yes	2.734	0.001	n/a	GoodResponse	0	n/a	n/a	3	6	Fixation	AvoidedLoss	True
70.912	0.34	Lose2	1.0	0.004	Yes	2.734	-0.004	4.0	GoodResponse	0	0.169	70.081	3	6	Target	AvoidedLoss	True
71.081	0.3	Lose2	1.0	0.004	Yes	2.734	-0.004	4.0	GoodResponse	0	0.169	n/a	3	6	ButtonPress	AvoidedLoss	True
71.263	0.36	Lose2	1.0	n/a	Yes	2.734	n/a	n/a	GoodResponse	0	n/a	n/a	3	6	Blank	AvoidedLoss	True
71.614	1.45	Lose2	1.0	n/a	Yes	2.734	n/a	5.0	GoodResponse	0	0.019	70.633	3	6	Feedback	AvoidedLoss	True
73.069	2.734	Lose2	1.0	n/a	Yes	2.734	n/a	n/a	GoodResponse	0	0.0	n/a	3	6	ISIslide	AvoidedLoss	True
75.827	0.25	Lose2	1.0	0.0	Yes	4.023	0.027	n/a	GoodResponse	0	n/a	n/a	3	7	Cue	AvoidedLoss	True
76.078	4.05	Lose2	1.0	0.0	Yes	4.023	0.001	n/a	GoodResponse	0	n/a	n/a	3	7	Fixation	AvoidedLoss	True
80.123	0.33	Lose2	1.0	0.004	Yes	4.023	-0.004	4.0	GoodResponse	0	0.174	79.297	3	7	Target	AvoidedLoss	True
80.297	0.3	Lose2	1.0	0.004	Yes	4.023	-0.004	4.0	GoodResponse	0	0.174	n/a	3	7	ButtonPress	AvoidedLoss	True
80.457	0.37	Lose2	1.0	n/a	Yes	4.023	n/a	n/a	GoodResponse	0	n/a	n/a	3	7	Blank	AvoidedLoss	True
80.825	1.45	Lose2	1.0	n/a	Yes	4.023	n/a	5.0	GoodResponse	0	0.028	79.853	3	7	Feedback	AvoidedLoss	True
82.279	4.023	Lose2	1.0	n/a	Yes	4.023	n/a	n/a	GoodResponse	0	0.0	n/a	3	7	ISIslide	AvoidedLoss	True
86.325	0.25	Lose2	1.0	0.0	Yes	3.025	0.025	n/a	GoodResponse	0	n/a	n/a	3	8	Cue	AvoidedLoss	True
86.576	3.95	Lose2	1.0	0.0	Yes	3.025	0.001	n/a	GoodResponse	0	n/a	n/a	3	8	Fixation	AvoidedLoss	True
90.521	0.32	Lose2	1.0	0.004	Yes	3.025	-0.004	4.0	GoodResponse	0	0.171	89.692	3	8	Target	AvoidedLoss	True
90.692	0.3	Lose2	1.0	0.004	Yes	3.025	-0.004	4.0	GoodResponse	0	0.171	n/a	3	8	ButtonPress	AvoidedLoss	True
90.855	0.38	Lose2	1.0	n/a	Yes	3.025	n/a	n/a	GoodResponse	0	n/a	n/a	3	8	Blank	AvoidedLoss	True
91.223	1.45	Lose2	1.0	n/a	Yes	3.025	n/a	5.0	GoodResponse	0	0.02	90.243	3	8	Feedback	AvoidedLoss	True
92.677	3.025	Lose2	1.0	n/a	Yes	3.025	n/a	n/a	GoodResponse	0	0.0	n/a	3	8	ISIslide	AvoidedLoss	True
95.72	0.25	Lose2	1.0	0.0	Yes	3.13	0.02	n/a	GoodResponse	0	n/a	n/a	3	9	Cue	AvoidedLoss	True
95.97	3.95	Lose2	1.0	0.001	Yes	3.13	0.0	n/a	GoodResponse	0	n/a	n/a	3	9	Fixation	AvoidedLoss	True
99.916	0.31	Lose2	1.0	0.004	Yes	3.13	-0.004	4.0	GoodResponse	0	0.197	99.113	3	9	Target	AvoidedLoss	True
100.113	0.3	Lose2	1.0	0.004	Yes	3.13	-0.004	4.0	GoodResponse	0	0.197	n/a	3	9	ButtonPress	AvoidedLoss	True
100.233	0.39	Lose2	1.0	n/a	Yes	3.13	n/a	n/a	GoodResponse	0	n/a	n/a	3	9	Blank	AvoidedLoss	True
100.618	1.45	Lose2	1.0	n/a	Yes	3.13	n/a	5.0	GoodResponse	0	0.04	99.658	3	9	Feedback	AvoidedLoss	True
102.072	3.13	Lose2	1.0	n/a	Yes	3.13	n/a	n/a	GoodResponse	0	0.0	n/a	3	9	ISIslide	AvoidedLoss	True
105.215	0.25	Control	1.0	0.0	Yes	3.285	0.015	n/a	GoodResponse	0	n/a	n/a	3	10	Cue	Neutral	True
105.466	4.0	Control	1.0	0.0	Yes	3.285	0.001	n/a	GoodResponse	0	n/a	n/a	3	10	Fixation	Neutral	True
109.461	0.3	Control	1.0	0.004	Yes	3.285	-0.004	4.0	GoodResponse	0	0.191	108.652	3	10	Target	Neutral	True
109.652	0.3	Control	1.0	0.004	Yes	3.285	-0.004	4.0	GoodResponse	0	0.191	n/a	3	10	ButtonPress	Neutral	True
109.762	0.4	Control	1.0	n/a	Yes	3.285	n/a	n/a	GoodResponse	0	n/a	n/a	3	10	Blank	Neutral	True
110.163	1.45	Control	1.0	n/a	Yes	3.285	n/a	5.0	GoodResponse	0	0.008	109.171	3	10	Feedback	Neutral	True
111.617	3.285	Control	1.0	n/a	Yes	3.285	n/a	n/a	GoodResponse	0	0.0	n/a	3	10	ISIslide	Neutral	True
114.927	0.25	Lose2	1.0	0.0	Yes	2.723	0.027	n/a	GoodResponse	0	n/a	n/a	3	11	Cue	AvoidedLoss	True
115.178	4.05	Lose2	1.0	0.0	Yes	2.723	0.001	n/a	GoodResponse	0	n/a	n/a	3	11	Fixation	AvoidedLoss	True
119.224	0.29	Lose2	1.0	0.003	Yes	2.723	-0.003	4.0	GoodResponse	0	0.188	118.412	3	11	Target	AvoidedLoss	True
119.412	0.3	Lose2	1.0	0.003	Yes	2.723	-0.003	4.0	GoodResponse	0	0.188	n/a	3	11	ButtonPress	AvoidedLoss	True
119.524	0.41	Lose2	1.0	n/a	Yes	2.723	n/a	n/a	GoodResponse	0	n/a	n/a	3	11	Blank	AvoidedLoss	True
119.926	1.45	Lose2	1.0	n/a	Yes	2.723	n/a	5.0	GoodResponse	0	0.048	118.974	3	11	Feedback	AvoidedLoss	True
121.38	2.723	Lose2	1.0	n/a	Yes	2.723	n/a	n/a	GoodResponse	0	0.0	n/a	3	11	ISIslide	AvoidedLoss	True
124.122	0.25	Control	1.0	0.0	Yes	2.978	0.022	n/a	GoodResponse	0	n/a	n/a	3	12	Cue	Neutral	True
124.372	3.9	Control	1.0	0.0	Yes	2.978	0.0	n/a	GoodResponse	0	n/a	n/a	3	12	Fixation	Neutral	True
128.284	0.28	Control	1.0	0.0	Yes	2.978	0.012	4.0	GoodResponse	0	0.221	127.505	3	12	Target	Neutral	True
128.505	0.3	Control	1.0	0.0	Yes	2.978	0.012	4.0	GoodResponse	0	0.221	n/a	3	12	ButtonPress	Neutral	True
128.551	0.42	Control	1.0	n/a	Yes	2.978	n/a	n/a	GoodResponse	0	n/a	n/a	3	12	Blank	Neutral	True
128.969	1.45	Control	1.0	n/a	Yes	2.978	n/a	5.0	GoodResponse	0	0.03	127.999	3	12	Feedback	Neutral	True
130.424	2.978	Control	1.0	n/a	Yes	2.978	n/a	n/a	GoodResponse	0	0.0	n/a	3	12	ISIslide	Neutral	True
133.416	0.25	Control	1.0	0.0	Yes	2.784	0.016	n/a	GoodResponse	0	n/a	n/a	3	13	Cue	Neutral	True
133.667	4.0	Control	1.0	0.0	Yes	2.784	0.001	n/a	GoodResponse	0	n/a	n/a	3	13	Fixation	Neutral	True
137.662	0.27	Control	1.0	0.004	Yes	2.784	-0.004	4.0	GoodResponse	0	0.182	136.844	3	13	Target	Neutral	True
137.844	0.3	Control	1.0	0.004	Yes	2.784	-0.004	4.0	GoodResponse	0	0.182	n/a	3	13	ButtonPress	Neutral	True
137.946	0.43	Control	1.0	n/a	Yes	2.784	n/a	n/a	GoodResponse	0	n/a	n/a	3	13	Blank	Neutral	True
138.364	1.45	Control	1.0	n/a	Yes	2.784	n/a	5.0	GoodResponse	0	0.001	137.365	3	13	Feedback	Neutral	True
139.819	2.784	Control	1.0	n/a	Yes	2.784	n/a	n/a	GoodResponse	0	0.0	n/a	3	13	ISIslide	Neutral	True
142.627	0.25	Win2	1.0	0.0	Yes	2.673	0.027	n/a	GoodResponse	1	n/a	n/a	4	14	Cue	Win	True
142.878	4.1	Win2	1.0	0.0	Yes	2.673	0.001	n/a	GoodResponse	1	n/a	n/a	4	14	Fixation	Win	True
146.973	0.26	Win2	1.0	0.004	Yes	2.673	-0.004	4.0	GoodResponse	1	0.171	146.144	4	14	Target	Win	True
147.144	0.3	Win2	1.0	0.004	Yes	2.673	-0.004	4.0	GoodResponse	1	0.171	n/a	4	14	ButtonPress	Win	True
147.241	0.44	Win2	1.0	n/a	Yes	2.673	n/a	n/a	GoodResponse	1	n/a	n/a	4	14	Blank	Win	True
147.675	1.45	Win2	1.0	n/a	Yes	2.673	n/a	5.0	GoodResponse	1	0.008	146.683	4	14	Feedback	Win	True
149.13	2.673	Win2	1.0	n/a	Yes	2.673	n/a	n/a	GoodResponse	1	0.0	n/a	4	14	ISIslide	Win	True
151.821	0.25	Control	1.0	0.0	Yes	2.979	0.021	n/a	GoodResponse	0	n/a	n/a	4	15	Cue	Neutral	True
152.072	4.0	Control	1.0	0.0	Yes	2.979	0.001	n/a	GoodResponse	0	n/a	n/a	4	15	Fixation	Neutral	True
156.067	0.25	Control	1.0	0.004	Yes	2.979	-0.004	4.0	GoodResponse	0	0.179	155.246	4	15	Target	Neutral	True
156.246	0.3	Control	1.0	0.004	Yes	2.979	-0.004	4.0	GoodResponse	0	0.179	n/a	4	15	ButtonPress	Neutral	True
156.318	0.45	Control	1.0	n/a	Yes	2.979	n/a	n/a	GoodResponse	0	n/a	n/a	4	15	Blank	Neutral	True
156.769	1.45	Control	1.0	n/a	Yes	2.979	n/a	5.0	GoodResponse	0	0.035	155.804	4	15	Feedback	Neutral	True
158.224	2.979	Control	1.0	n/a	Yes	2.979	n/a	n/a	GoodResponse	0	0.0	n/a	4	15	ISIslide	Neutral	True
161.216	0.25	Win2	1.0	0.0	Yes	2.884	0.016	n/a	GoodResponse	1	n/a	n/a	5	16	Cue	Win	True
161.467	4.0	Win2	1.0	0.0	Yes	2.884	0.001	n/a	GoodResponse	1	n/a	n/a	5	16	Fixation	Win	True
165.462	0.24	Win2	1.0	0.004	Yes	2.884	-0.004	4.0	GoodResponse	1	0.175	164.637	5	16	Target	Win	True
165.637	0.3	Win2	1.0	0.004	Yes	2.884	-0.004	4.0	GoodResponse	1	0.175	n/a	5	16	ButtonPress	Win	True
165.713	0.46	Win2	1.0	n/a	Yes	2.884	n/a	n/a	GoodResponse	1	n/a	n/a	5	16	Blank	Win	True
166.164	1.45	Win2	1.0	n/a	Yes	2.884	n/a	5.0	GoodResponse	1	0.008	165.172	5	16	Feedback	Win	True
167.619	2.884	Win2	1.0	n/a	Yes	2.884	n/a	n/a	GoodResponse	1	0.0	n/a	5	16	ISIslide	Win	True
170.527	0.25	Lose2	1.0	0.0	Yes	2.723	0.027	n/a	GoodResponse	0	n/a	n/a	5	17	Cue	AvoidedLoss	True
170.778	3.95	Lose2	1.0	0.0	Yes	2.723	0.001	n/a	GoodResponse	0	n/a	n/a	5	17	Fixation	AvoidedLoss	True
174.723	0.23	Lose2	1.0	0.004	Yes	2.723	-0.004	4.0	GoodResponse	0	0.181	173.904	5	17	Target	AvoidedLoss	True
174.904	0.3	Lose2	1.0	0.004	Yes	2.723	-0.004	4.0	GoodResponse	0	0.181	n/a	5	17	ButtonPress	AvoidedLoss	True
174.957	0.47	Lose2	1.0	n/a	Yes	2.723	n/a	n/a	GoodResponse	0	n/a	n/a	5	17	Blank	AvoidedLoss	True
175.425	1.45	Lose2	1.0	n/a	Yes	2.723	n/a	5.0	GoodResponse	0	0.012	174.437	5	17	Feedback	AvoidedLoss	True
176.88	2.723	Lose2	1.0	n/a	Yes	2.723	n/a	n/a	GoodResponse	0	0.0	n/a	5	17	ISIslide	AvoidedLoss	True
179.621	0.25	Lose2	0.9473999999999999	0.0	No	2.729	0.021	n/a	NoResponse	-1	n/a	n/a	4	18	Cue	Loss	True
179.872	4.05	Lose2	0.9473999999999999	0.0	No	2.729	0.001	n/a	NoResponse	-1	n/a	n/a	4	18	Fixation	Loss	True
183.917	0.22	Lose2	0.9473999999999999	0.004	No	2.729	-0.004	4.0	NoResponse	-1	0.294	183.211	4	18	Target	Loss	True
184.151	0.48	Lose2	0.9473999999999999	n/a	No	2.729	n/a	n/a	NoResponse	-1	n/a	n/a	4	18	Blank	Loss	True
184.211	0.3	Lose2	0.9473999999999999	0.004	No	2.729	-0.004	4.0	NoResponse	-1	0.294	n/a	4	18	ButtonPress	Loss	True
184.619	1.45	Lose2	0.9473999999999999	n/a	No	2.729	n/a	5.0	NoResponse	-1	0.038	183.657	4	18	Feedback	Loss	True
186.074	2.729	Lose2	0.9473999999999999	n/a	No	2.729	n/a	n/a	NoResponse	-1	0.0	n/a	4	18	ISIslide	Loss	True
188.815	0.25	Control	0.95	0.0	Yes	2.935	0.015	n/a	GoodResponse	0	n/a	n/a	4	19	Cue	Neutral	True
189.066	3.95	Control	0.95	0.0	Yes	2.935	0.001	n/a	GoodResponse	0	n/a	n/a	4	19	Fixation	Neutral	True
193.011	0.21	Control	0.95	0.004	Yes	2.935	-0.004	4.0	GoodResponse	0	0.157	192.168	4	19	Target	Neutral	True
193.168	0.3	Control	0.95	0.004	Yes	2.935	-0.004	4.0	GoodResponse	0	0.157	n/a	4	19	ButtonPress	Neutral	True
193.229	0.49	Control	0.95	n/a	Yes	2.935	n/a	n/a	GoodResponse	0	n/a	n/a	4	19	Blank	Neutral	True
193.713	1.45	Control	0.95	n/a	Yes	2.935	n/a	5.0	GoodResponse	0	0.017	192.73	4	19	Feedback	Neutral	True
195.168	2.935	Control	0.95	n/a	Yes	2.935	n/a	n/a	GoodResponse	0	0.0	n/a	4	19	ISIslide	Neutral	True
198.127	0.25	Control	0.9523999999999999	0.0	Yes	2.623	0.027	n/a	GoodResponse	0	n/a	n/a	4	20	Cue	Neutral	True
198.377	4.05	Control	0.9523999999999999	0.0	Yes	2.623	0.0	n/a	GoodResponse	0	n/a	n/a	4	20	Fixation	Neutral	True
202.423	0.2	Control	0.9523999999999999	0.004	Yes	2.623	-0.004	4.0	GoodResponse	0	0.174	201.597	4	20	Target	Neutral	True
202.597	0.3	Control	0.9523999999999999	0.004	Yes	2.623	-0.004	4.0	GoodResponse	0	0.174	n/a	4	20	ButtonPress	Neutral	True
202.623	0.5	Control	0.9523999999999999	n/a	Yes	2.623	n/a	n/a	GoodResponse	0	n/a	n/a	4	20	Blank	Neutral	True
203.125	1.45	Control	0.9523999999999999	n/a	Yes	2.623	n/a	5.0	GoodResponse	0	0.02	202.145	4	20	Feedback	Neutral	True
204.579	2.623	Control	0.9523999999999999	n/a	Yes	2.623	n/a	n/a	GoodResponse	0	0.0	n/a	4	20	ISIslide	Neutral	True
207.221	0.25	Control	0.9545	0.0	Yes	2.779	0.021	n/a	GoodResponse	0	n/a	n/a	4	21	Cue	Neutral	True
207.471	4.1	Control	0.9545	0.0	Yes	2.779	0.0	n/a	GoodResponse	0	n/a	n/a	4	21	Fixation	Neutral	True
211.567	0.19	Control	0.9545	0.004	Yes	2.779	-0.004	4.0	GoodResponse	0	0.166	210.733	4	21	Target	Neutral	True
211.733	0.3	Control	0.9545	0.004	Yes	2.779	-0.004	4.0	GoodResponse	0	0.166	n/a	4	21	ButtonPress	Neutral	True
211.767	0.51	Control	0.9545	n/a	Yes	2.779	n/a	n/a	GoodResponse	0	n/a	n/a	4	21	Blank	Neutral	True
212.269	1.45	Control	0.9545	n/a	Yes	2.779	n/a	5.0	GoodResponse	0	0.047	211.316	4	21	Feedback	Neutral	True
213.723	2.779	Control	0.9545	n/a	Yes	2.779	n/a	n/a	GoodResponse	0	0.0	n/a	4	21	ISIslide	Neutral	True
216.515	0.25	Control	0.9565	0.0	Yes	2.785	0.015	n/a	GoodResponse	0	n/a	n/a	4	22	Cue	Neutral	True
216.766	4.0	Control	0.9565	0.0	Yes	2.785	0.001	n/a	GoodResponse	0	n/a	n/a	4	22	Fixation	Neutral	True
220.761	0.18	Control	0.9565	0.004	Yes	2.785	-0.004	4.0	GoodResponse	0	0.158	219.919	4	22	Target	Neutral	True
220.919	0.3	Control	0.9565	0.004	Yes	2.785	-0.004	4.0	GoodResponse	0	0.158	n/a	4	22	ButtonPress	Neutral	True
220.945	0.52	Control	0.9565	n/a	Yes	2.785	n/a	n/a	GoodResponse	0	n/a	n/a	4	22	Blank	Neutral	True
221.463	1.45	Control	0.9565	n/a	Yes	2.785	n/a	5.0	GoodResponse	0	0.024	220.487	4	22	Feedback	Neutral	True
222.918	2.785	Control	0.9565	n/a	Yes	2.785	n/a	n/a	GoodResponse	0	0.0	n/a	4	22	ISIslide	Neutral	True
225.726	0.25	Control	0.9582999999999999	0.0	Yes	2.774	0.026	n/a	GoodResponse	0	n/a	n/a	4	23	Cue	Neutral	True
225.977	3.9	Control	0.9582999999999999	0.0	Yes	2.774	0.001	n/a	GoodResponse	0	n/a	n/a	4	23	Fixation	Neutral	True
229.872	0.17	Control	0.9582999999999999	0.004	Yes	2.774	-0.004	4.0	GoodResponse	0	0.161	229.033	4	23	Target	Neutral	True
230.033	0.3	Control	0.9582999999999999	0.004	Yes	2.774	-0.004	4.0	GoodResponse	0	0.161	n/a	4	23	ButtonPress	Neutral	True
230.056	0.53	Control	0.9582999999999999	n/a	Yes	2.774	n/a	n/a	GoodResponse	0	n/a	n/a	4	23	Blank	Neutral	True
230.574	1.45	Control	0.9582999999999999	n/a	Yes	2.774	n/a	5.0	GoodResponse	0	0.034	229.608	4	23	Feedback	Neutral	True
232.028	2.774	Control	0.9582999999999999	n/a	Yes	2.774	n/a	n/a	GoodResponse	0	0.0	n/a	4	23	ISIslide	Neutral	True
234.82	0.25	Win2	0.92	0.0	No	3.13	0.02	n/a	NoResponse	0	n/a	n/a	4	24	Cue	MissedWin	True
235.071	3.95	Win2	0.92	0.0	No	3.13	0.001	n/a	NoResponse	0	n/a	n/a	4	24	Fixation	MissedWin	True
239.016	0.16	Win2	0.92	0.004	No	3.13	-0.004	4.0	NoResponse	0	0.176	238.192	4	24	Target	MissedWin	True
239.183	0.54	Win2	0.92	n/a	No	3.13	n/a	n/a	NoResponse	0	n/a	n/a	4	24	Blank	MissedWin	True
239.192	0.3	Win2	0.92	0.004	No	3.13	-0.004	4.0	NoResponse	0	0.176	n/a	4	24	ButtonPress	MissedWin	True
239.718	1.45	Win2	0.92	n/a	No	3.13	n/a	5.0	NoResponse	0	0.012	238.73	4	24	Feedback	MissedWin	True
241.172	3.13	Win2	0.92	n/a	No	3.13	n/a	n/a	NoResponse	0	0.0	n/a	4	24	ISIslide	MissedWin	True
244.315	0.25	Win2	0.8845999999999999	0.0	No	3.085	0.015	n/a	NoResponse	0	n/a	n/a	4	25	Cue	MissedWin	True
244.566	4.0	Win2	0.8845999999999999	0.0	No	3.085	0.001	n/a	NoResponse	0	n/a	n/a	4	25	Fixation	MissedWin	True
248.561	0.15	Win2	0.8845999999999999	0.004	No	3.085	-0.004	4.0	NoResponse	0	0.165	247.726	4	25	Target	MissedWin	True
248.712	0.55	Win2	0.8845999999999999	n/a	No	3.085	n/a	n/a	NoResponse	0	n/a	n/a	4	25	Blank	MissedWin	True
248.726	0.3	Win2	0.8845999999999999	0.004	No	3.085	-0.004	4.0	NoResponse	0	0.165	n/a	4	25	ButtonPress	MissedWin	True
249.263	1.45	Win2	0.8845999999999999	n/a	No	3.085	n/a	5.0	NoResponse	0	0.028	248.291	4	25	Feedback	MissedWin	True
250.718	3.085	Win2	0.8845999999999999	n/a	No	3.085	n/a	n/a	NoResponse	0	0.0	n/a	4	25	ISIslide	MissedWin	True
253.827	0.25	Win2	0.8519	0.0	No	2.923	0.027	n/a	NoResponse	0	n/a	n/a	4	26	Cue	MissedWin	True
254.078	3.95	Win2	0.8519	0.0	No	2.923	0.001	n/a	NoResponse	0	n/a	n/a	4	26	Fixation	MissedWin	True
258.023	0.15	Win2	0.8519	0.004	No	2.923	-0.004	4.0	NoResponse	0	0.162	257.185	4	26	Target	MissedWin	True
258.173	0.55	Win2	0.8519	n/a	No	2.923	n/a	n/a	NoResponse	0	n/a	n/a	4	26	Blank	MissedWin	True
258.185	0.3	Win2	0.8519	0.004	No	2.923	-0.004	4.0	NoResponse	0	0.162	n/a	4	26	ButtonPress	MissedWin	True
258.725	1.45	Win2	0.8519	n/a	No	2.923	n/a	5.0	NoResponse	0	0.029	257.754	4	26	Feedback	MissedWin	True
260.179	2.923	Win2	0.8519	n/a	No	2.923	n/a	n/a	NoResponse	0	0.0	n/a	4	26	ISIslide	MissedWin	True
263.121	0.25	Lose2	0.8214	0.0	No	2.829	0.021	n/a	NoResponse	-1	n/a	n/a	3	27	Cue	Loss	True
263.372	4.05	Lose2	0.8214	0.0	No	2.829	0.001	n/a	NoResponse	-1	n/a	n/a	3	27	Fixation	Loss	True
267.418	0.15	Lose2	0.8214	0.003	No	2.829	-0.003	4.0	NoResponse	-1	0.191	266.609	3	27	Target	Loss	True
267.568	0.55	Lose2	0.8214	n/a	No	2.829	n/a	n/a	NoResponse	-1	n/a	n/a	3	27	Blank	Loss	True
267.609	0.3	Lose2	0.8214	0.003	No	2.829	-0.003	4.0	NoResponse	-1	0.191	n/a	3	27	ButtonPress	Loss	True
268.12	1.45	Lose2	0.8214	n/a	No	2.829	n/a	5.0	NoResponse	-1	0.049	267.169	3	27	Feedback	Loss	True
269.574	2.829	Lose2	0.8214	n/a	No	2.829	n/a	n/a	NoResponse	-1	0.0	n/a	3	27	ISIslide	Loss	True
272.416	0.25	Control	0.7931	0.0	No	2.834	0.016	n/a	PrematurePress	0	n/a	n/a	3	28	Cue	Neutral	True
272.667	4.05	Control	0.7931	0.0	No	2.834	0.001	n/a	PrematurePress	0	n/a	n/a	3	28	Fixation	Neutral	True
276.712	0.15	Control	0.7931	0.004	No	2.834	-0.004	4.0	PrematurePress	0	0.081	275.793	3	28	Target	Neutral	True
276.793	0.3	Control	0.7931	0.004	No	2.834	-0.004	4.0	PrematurePress	0	0.081	n/a	3	28	ButtonPress	Neutral	True
276.863	0.55	Control	0.7931	n/a	No	2.834	n/a	n/a	PrematurePress	0	n/a	n/a	3	28	Blank	Neutral	True
277.414	1.45	Control	0.7931	n/a	No	2.834	n/a	5.0	PrematurePress	0	0.023	276.437	3	28	Feedback	Neutral	True
278.869	2.834	Control	0.7931	n/a	No	2.834	n/a	n/a	PrematurePress	0	0.0	n/a	3	28	ISIslide	Neutral	True
281.727	0.25	Lose2	0.7667	0.0	No	2.823	0.027	n/a	NoResponse	-1	n/a	n/a	2	29	Cue	Loss	False
281.978	3.95	Lose2	0.7667	0.0	No	2.823	0.001	4.0	NoResponse	-1	3.432	284.41	2	29	Fixation	Loss	False
285.41	0.3	Lose2	0.7667	0.0	No	2.823	0.001	4.0	NoResponse	-1	3.432	n/a	2	29	ButtonPress	Loss	False
285.923	0.15	Lose2	0.7667	0.004	No	2.823	-0.004	4.0	NoResponse	-1	0.195	285.118	2	29	Target	Loss	False
286.073	0.55	Lose2	0.7667	n/a	No	2.823	n/a	n/a	NoResponse	-1	n/a	n/a	2	29	Blank	Loss	False
286.118	0.3	Lose2	0.7667	0.004	No	2.823	-0.004	4.0	NoResponse	-1	0.195	n/a	2	29	ButtonPress	Loss	False
286.625	1.45	Lose2	0.7667	n/a	No	2.823	n/a	5.0	NoResponse	-1	0.031	285.656	2	29	Feedback	Loss	False
288.079	2.823	Lose2	0.7667	n/a	No	2.823	n/a	n/a	NoResponse	-1	0.0	n/a	2	29	ISIslide	Loss	False
290.921	0.25	Win2	0.7419	0.0	No	2.779	0.021	n/a	NoResponse	0	n/a	n/a	2	30	Cue	MissedWin	True
291.172	3.9	Win2	0.7419	0.0	No	2.779	0.001	n/a	NoResponse	0	n/a	n/a	2	30	Fixation	MissedWin	True
295.067	0.15	Win2	0.7419	0.004	No	2.779	-0.004	4.0	NoResponse	0	0.173	294.24	2	30	Target	MissedWin	True
295.218	0.55	Win2	0.7419	n/a	No	2.779	n/a	n/a	NoResponse	0	n/a	n/a	2	30	Blank	MissedWin	True
295.24	0.3	Win2	0.7419	0.004	No	2.779	-0.004	4.0	NoResponse	0	0.173	n/a	2	30	ButtonPress	MissedWin	True
295.769	1.45	Win2	0.7419	n/a	No	2.779	n/a	5.0	NoResponse	0	0.009	294.778	2	30	Feedback	MissedWin	True
297.224	2.779	Win2	0.7419	n/a	No	2.779	n/a	n/a	NoResponse	0	0.0	n/a	2	30	ISIslide	MissedWin	True
300.015	0.25	Lose2	0.7188	0.0	No	2.835	0.015	n/a	NoResponse	-1	n/a	n/a	1	31	Cue	Loss	False
300.266	4.05	Lose2	0.7188	0.0	No	2.835	0.001	4.0	NoResponse	-1	3.123	302.389	1	31	Fixation	Loss	False
303.389	0.3	Lose2	0.7188	0.0	No	2.835	0.001	4.0	NoResponse	-1	3.123	n/a	1	31	ButtonPress	Loss	False
304.311	0.15	Lose2	0.7188	0.004	No	2.835	-0.004	4.0	NoResponse	-1	0.169	303.48	1	31	Target	Loss	False
304.462	0.55	Lose2	0.7188	n/a	No	2.835	n/a	n/a	NoResponse	-1	n/a	n/a	1	31	Blank	Loss	False
304.48	0.3	Lose2	0.7188	0.004	No	2.835	-0.004	4.0	NoResponse	-1	0.169	n/a	1	31	ButtonPress	Loss	False
305.014	1.45	Lose2	0.7188	n/a	No	2.835	n/a	5.0	NoResponse	-1	0.032	304.046	1	31	Feedback	Loss	False
306.468	2.835	Lose2	0.7188	n/a	No	2.835	n/a	n/a	NoResponse	-1	0.0	n/a	1	31	ISIslide	Loss	False
309.326	0.25	Lose2	0.6970000000000001	0.001	No	2.624	0.026	n/a	NoResponse	-1	n/a	n/a	0	32	Cue	Loss	True
309.577	4.15	Lose2	0.6970000000000001	0.0	No	2.624	0.001	n/a	NoResponse	-1	n/a	n/a	0	32	Fixation	Loss	True
313.723	0.15	Lose2	0.6970000000000001	0.003	No	2.624	-0.003	4.0	NoResponse	-1	0.163	312.886	0	32	Target	Loss	True
313.873	0.55	Lose2	0.6970000000000001	n/a	No	2.624	n/a	n/a	NoResponse	-1	n/a	n/a	0	32	Blank	Loss	True
313.886	0.3	Lose2	0.6970000000000001	0.003	No	2.624	-0.003	4.0	NoResponse	-1	0.163	n/a	0	32	ButtonPress	Loss	True
314.425	1.45	Lose2	0.6970000000000001	n/a	No	2.624	n/a	5.0	NoResponse	-1	0.036	313.461	0	32	Feedback	Loss	True
315.879	2.624	Lose2	0.6970000000000001	n/a	No	2.624	n/a	n/a	NoResponse	-1	0.0	n/a	0	32	ISIslide	Loss	True
318.521	0.25	Win2	0.6765000000000001	0.0	No	2.679	0.021	n/a	NoResponse	0	n/a	n/a	0	33	Cue	MissedWin	True
318.771	4.0	Win2	0.6765000000000001	0.001	No	2.679	0.0	n/a	NoResponse	0	n/a	n/a	0	33	Fixation	MissedWin	True
322.767	0.15	Win2	0.6765000000000001	0.004	No	2.679	-0.004	4.0	NoResponse	0	0.154	321.921	0	33	Target	MissedWin	True
322.917	0.55	Win2	0.6765000000000001	n/a	No	2.679	n/a	n/a	NoResponse	0	n/a	n/a	0	33	Blank	MissedWin	True
322.921	0.3	Win2	0.6765000000000001	0.004	No	2.679	-0.004	4.0	NoResponse	0	0.154	n/a	0	33	ButtonPress	MissedWin	True
323.469	1.45	Win2	0.6765000000000001	n/a	No	2.679	n/a	5.0	NoResponse	0	0.017	322.486	0	33	Feedback	MissedWin	True
324.923	2.679	Win2	0.6765000000000001	n/a	No	2.679	n/a	n/a	NoResponse	0	0.0	n/a	0	33	ISIslide	MissedWin	True
327.631	0.25	Lose2	0.6570999999999999	0.0	No	2.619	0.031	n/a	NoResponse	-1	n/a	n/a	-1	34	Cue	Loss	True
327.882	4.05	Lose2	0.6570999999999999	0.0	No	2.619	0.001	n/a	NoResponse	-1	n/a	n/a	-1	34	Fixation	Loss	True
331.928	0.15	Lose2	0.6570999999999999	0.003	No	2.619	-0.003	4.0	NoResponse	-1	0.161	331.089	-1	34	Target	Loss	True
332.078	0.55	Lose2	0.6570999999999999	n/a	No	2.619	n/a	n/a	NoResponse	-1	n/a	n/a	-1	34	Blank	Loss	True
332.089	0.3	Lose2	0.6570999999999999	0.003	No	2.619	-0.003	4.0	NoResponse	-1	0.161	n/a	-1	34	ButtonPress	Loss	True
332.63	1.45	Lose2	0.6570999999999999	n/a	No	2.619	n/a	5.0	NoResponse	-1	0.027	331.657	-1	34	Feedback	Loss	True
334.084	2.619	Lose2	0.6570999999999999	n/a	No	2.619	n/a	n/a	NoResponse	-1	0.0	n/a	-1	34	ISIslide	Loss	True
336.725	0.25	Lose2	0.6389	0.0	No	2.675	0.025	n/a	NoResponse	-1	n/a	n/a	-2	35	Cue	Loss	True
336.976	4.0	Lose2	0.6389	0.0	No	2.675	0.001	n/a	NoResponse	-1	n/a	n/a	-2	35	Fixation	Loss	True
340.971	0.15	Lose2	0.6389	0.004	No	2.675	-0.004	4.0	NoResponse	-1	0.177	340.148	-2	35	Target	Loss	True
341.122	0.55	Lose2	0.6389	n/a	No	2.675	n/a	n/a	NoResponse	-1	n/a	n/a	-2	35	Blank	Loss	True
341.148	0.3	Lose2	0.6389	0.004	No	2.675	-0.004	4.0	NoResponse	-1	0.177	n/a	-2	35	ButtonPress	Loss	True
341.673	1.45	Lose2	0.6389	n/a	No	2.675	n/a	5.0	NoResponse	-1	0.008	340.681	-2	35	Feedback	Loss	True
343.128	2.675	Lose2	0.6389	n/a	No	2.675	n/a	n/a	NoResponse	-1	0.0	n/a	-2	35	ISIslide	Loss	True
345.819	0.25	Control	0.6215999999999999	0.0	No	2.681	0.019	n/a	NoResponse	0	n/a	n/a	-2	36	Cue	Neutral	True
346.07	4.0	Control	0.6215999999999999	0.0	No	2.681	0.001	n/a	NoResponse	0	n/a	n/a	-2	36	Fixation	Neutral	True
350.065	0.16	Control	0.6215999999999999	0.004	No	2.681	-0.004	4.0	NoResponse	0	0.175	349.24	-2	36	Target	Neutral	True
350.232	0.54	Control	0.6215999999999999	n/a	No	2.681	n/a	n/a	NoResponse	0	n/a	n/a	-2	36	Blank	Neutral	True
350.24	0.3	Control	0.6215999999999999	0.004	No	2.681	-0.004	4.0	NoResponse	0	0.175	n/a	-2	36	ButtonPress	Neutral	True
350.767	1.45	Control	0.6215999999999999	n/a	No	2.681	n/a	5.0	NoResponse	0	0.035	349.802	-2	36	Feedback	Neutral	True
352.222	2.681	Control	0.6215999999999999	n/a	No	2.681	n/a	n/a	NoResponse	0	0.0	n/a	-2	36	ISIslide	Neutral	True
354.93	0.25	Win2	0.6053000000000001	0.0	No	2.87	0.03	n/a	NoResponse	0	n/a	n/a	-2	37	Cue	MissedWin	False
355.181	4.0	Win2	0.6053000000000001	0.0	No	2.87	0.001	4.0	NoResponse	0	2.892	357.073	-2	37	Fixation	MissedWin	False
358.073	0.3	Win2	0.6053000000000001	0.0	No	2.87	0.001	4.0	NoResponse	0	2.892	n/a	-2	37	ButtonPress	MissedWin	False
359.176	0.17	Win2	0.6053000000000001	0.004	No	2.87	-0.004	4.0	NoResponse	0	0.23	358.406	-2	37	Target	MissedWin	False
359.36	0.53	Win2	0.6053000000000001	n/a	No	2.87	n/a	n/a	NoResponse	0	n/a	n/a	-2	37	Blank	MissedWin	False
359.406	0.3	Win2	0.6053000000000001	0.004	No	2.87	-0.004	4.0	NoResponse	0	0.23	n/a	-2	37	ButtonPress	MissedWin	False
359.878	1.45	Win2	0.6053000000000001	n/a	No	2.87	n/a	5.0	NoResponse	0	0.046	358.924	-2	37	Feedback	MissedWin	False
361.332	2.87	Win2	0.6053000000000001	n/a	No	2.87	n/a	n/a	NoResponse	0	0.0	n/a	-2	37	ISIslide	MissedWin	False
364.224	0.25	Lose2	0.6154	0.0	Yes	2.826	0.024	n/a	GoodResponse	0	n/a	n/a	-2	38	Cue	AvoidedLoss	True
364.475	3.95	Lose2	0.6154	0.0	Yes	2.826	0.001	n/a	GoodResponse	0	n/a	n/a	-2	38	Fixation	AvoidedLoss	True
368.42	0.18	Lose2	0.6154	0.004	Yes	2.826	-0.004	4.0	GoodResponse	0	0.171	367.591	-2	38	Target	AvoidedLoss	True
368.591	0.3	Lose2	0.6154	0.004	Yes	2.826	-0.004	4.0	GoodResponse	0	0.171	n/a	-2	38	ButtonPress	AvoidedLoss	True
368.604	0.52	Lose2	0.6154	n/a	Yes	2.826	n/a	n/a	GoodResponse	0	n/a	n/a	-2	38	Blank	AvoidedLoss	True
369.122	1.45	Lose2	0.6154	n/a	Yes	2.826	n/a	5.0	GoodResponse	0	0.022	368.144	-2	38	Feedback	AvoidedLoss	True
370.577	2.826	Lose2	0.6154	n/a	Yes	2.826	n/a	n/a	GoodResponse	0	0.0	n/a	-2	38	ISIslide	AvoidedLoss	True
373.419	0.25	Win2	0.625	0.0	Yes	2.981	0.019	n/a	GoodResponse	1	n/a	n/a	-1	39	Cue	Win	True
373.669	4.1	Win2	0.625	0.0	Yes	2.981	0.0	n/a	GoodResponse	1	n/a	n/a	-1	39	Fixation	Win	True
377.765	0.19	Win2	0.625	0.004	Yes	2.981	-0.004	4.0	GoodResponse	1	0.169	376.934	-1	39	Target	Win	True
377.934	0.3	Win2	0.625	0.004	Yes	2.981	-0.004	4.0	GoodResponse	1	0.169	n/a	-1	39	ButtonPress	Win	True
377.965	0.51	Win2	0.625	n/a	Yes	2.981	n/a	n/a	GoodResponse	1	n/a	n/a	-1	39	Blank	Win	True
378.467	1.45	Win2	0.625	n/a	Yes	2.981	n/a	5.0	GoodResponse	1	0.043	377.51	-1	39	Feedback	Win	True
379.921	2.981	Win2	0.625	n/a	Yes	2.981	n/a	n/a	GoodResponse	1	0.0	n/a	-1	39	ISIslide	Win	True
382.93	0.25	Win2	0.6341	0.0	Yes	2.72	0.03	n/a	GoodResponse	1	n/a	n/a	0	40	Cue	Win	True
383.181	3.95	Win2	0.6341	0.0	Yes	2.72	0.001	n/a	GoodResponse	1	n/a	n/a	0	40	Fixation	Win	True
387.126	0.2	Win2	0.6341	0.004	Yes	2.72	-0.004	4.0	GoodResponse	1	0.17	386.296	0	40	Target	Win	True
387.296	0.3	Win2	0.6341	0.004	Yes	2.72	-0.004	4.0	GoodResponse	1	0.17	n/a	0	40	ButtonPress	Win	True
387.327	0.5	Win2	0.6341	n/a	Yes	2.72	n/a	n/a	GoodResponse	1	n/a	n/a	0	40	Blank	Win	True
387.828	1.45	Win2	0.6341	n/a	Yes	2.72	n/a	5.0	GoodResponse	1	0.048	386.876	0	40	Feedback	Win	True
389.283	2.72	Win2	0.6341	n/a	Yes	2.72	n/a	n/a	GoodResponse	1	0.0	n/a	0	40	ISIslide	Win	True
392.024	0.25	Win2	0.6429	0.0	Yes	2.776	0.024	n/a	GoodResponse	1	n/a	n/a	1	41	Cue	Win	False
392.275	3.9	Win2	0.6429	0.0	Yes	2.776	0.001	4.0	GoodResponse	1	3.387	394.662	1	41	Fixation	Win	False
395.662	0.3	Win2	0.6429	0.0	Yes	2.776	0.001	4.0	GoodResponse	1	3.387	n/a	1	41	ButtonPress	Win	False
396.17	0.21	Win2	0.6429	0.004	Yes	2.776	-0.004	4.0	GoodResponse	1	0.162	395.332	1	41	Target	Win	False
396.332	0.3	Win2	0.6429	0.004	Yes	2.776	-0.004	4.0	GoodResponse	1	0.162	n/a	1	41	ButtonPress	Win	False
396.387	0.49	Win2	0.6429	n/a	Yes	2.776	n/a	n/a	GoodResponse	1	n/a	n/a	1	41	Blank	Win	False
396.872	1.45	Win2	0.6429	n/a	Yes	2.776	n/a	5.0	GoodResponse	1	0.028	395.9	1	41	Feedback	Win	False
398.326	2.776	Win2	0.6429	n/a	Yes	2.776	n/a	n/a	GoodResponse	1	0.0	n/a	1	41	ISIslide	Win	False
401.118	0.25	Control	0.6512	0.0	Yes	2.932	0.018	n/a	GoodResponse	0	n/a	n/a	1	42	Cue	Neutral	True
401.369	3.85	Control	0.6512	0.0	Yes	2.932	0.001	n/a	GoodResponse	0	n/a	n/a	1	42	Fixation	Neutral	True
405.214	0.22	Control	0.6512	0.004	Yes	2.932	-0.004	4.0	GoodResponse	0	0.161	404.375	1	42	Target	Neutral	True
405.375	0.3	Control	0.6512	0.004	Yes	2.932	-0.004	4.0	GoodResponse	0	0.161	n/a	1	42	ButtonPress	Neutral	True
405.448	0.48	Control	0.6512	n/a	Yes	2.932	n/a	n/a	GoodResponse	0	n/a	n/a	1	42	Blank	Neutral	True
405.916	1.45	Control	0.6512	n/a	Yes	2.932	n/a	5.0	GoodResponse	0	0.008	404.924	1	42	Feedback	Neutral	True
407.37	2.932	Control	0.6512	n/a	Yes	2.932	n/a	n/a	GoodResponse	0	0.0	n/a	1	42	ISIslide	Neutral	True
410.329	0.25	Win2	0.6591	0.0	Yes	3.171	0.029	n/a	GoodResponse	1	n/a	n/a	2	43	Cue	Win	True
410.58	4.0	Win2	0.6591	0.0	Yes	3.171	0.001	n/a	GoodResponse	1	n/a	n/a	2	43	Fixation	Win	True
414.575	0.23	Win2	0.6591	0.004	Yes	3.171	-0.004	4.0	GoodResponse	1	0.17	413.745	2	43	Target	Win	True
414.745	0.3	Win2	0.6591	0.004	Yes	3.171	-0.004	4.0	GoodResponse	1	0.17	n/a	2	43	ButtonPress	Win	True
414.809	0.47	Win2	0.6591	n/a	Yes	3.171	n/a	n/a	GoodResponse	1	n/a	n/a	2	43	Blank	Win	True
415.277	1.45	Win2	0.6591	n/a	Yes	3.171	n/a	5.0	GoodResponse	1	0.013	414.29	2	43	Feedback	Win	True
416.732	3.171	Win2	0.6591	n/a	Yes	3.171	n/a	n/a	GoodResponse	1	0.0	n/a	2	43	ISIslide	Win	True
419.925	0.25	Win2	0.6667000000000001	0.0	Yes	2.975	0.025	n/a	GoodResponse	1	n/a	n/a	3	44	Cue	Win	True
420.175	4.0	Win2	0.6667000000000001	0.0	Yes	2.975	0.0	n/a	GoodResponse	1	n/a	n/a	3	44	Fixation	Win	True
424.171	0.23	Win2	0.6667000000000001	0.004	Yes	2.975	-0.004	4.0	GoodResponse	1	0.213	423.384	3	44	Target	Win	True
424.384	0.3	Win2	0.6667000000000001	0.004	Yes	2.975	-0.004	4.0	GoodResponse	1	0.213	n/a	3	44	ButtonPress	Win	True
424.405	0.47	Win2	0.6667000000000001	n/a	Yes	2.975	n/a	n/a	GoodResponse	1	n/a	n/a	3	44	Blank	Win	True
424.873	1.45	Win2	0.6667000000000001	n/a	Yes	2.975	n/a	5.0	GoodResponse	1	0.026	423.899	3	44	Feedback	Win	True
426.327	2.975	Win2	0.6667000000000001	n/a	Yes	2.975	n/a	n/a	GoodResponse	1	0.0	n/a	3	44	ISIslide	Win	True
429.319	0.25	Control	0.6739	0.0	Yes	2.881	0.019	n/a	GoodResponse	0	n/a	n/a	3	45	Cue	Neutral	True
429.57	4.1	Control	0.6739	0.0	Yes	2.881	0.001	n/a	GoodResponse	0	n/a	n/a	3	45	Fixation	Neutral	True
433.666	0.22	Control	0.6739	0.003	Yes	2.881	-0.003	4.0	GoodResponse	0	0.148	432.814	3	45	Target	Neutral	True
433.814	0.3	Control	0.6739	0.003	Yes	2.881	-0.003	4.0	GoodResponse	0	0.148	n/a	3	45	ButtonPress	Neutral	True
433.9	0.48	Control	0.6739	n/a	Yes	2.881	n/a	n/a	GoodResponse	0	n/a	n/a	3	45	Blank	Neutral	True
434.368	1.45	Control	0.6739	n/a	Yes	2.881	n/a	5.0	GoodResponse	0	0.044	433.412	3	45	Feedback	Neutral	True
435.822	2.881	Control	0.6739	n/a	Yes	2.881	n/a	n/a	GoodResponse	0	0.0	n/a	3	45	ISIslide	Neutral	True
438.731	0.25	Lose2	0.6809000000000001	0.0	Yes	3.369	0.031	n/a	GoodResponse	0	n/a	n/a	3	46	Cue	AvoidedLoss	True
438.982	4.0	Lose2	0.6809000000000001	0.0	Yes	3.369	0.001	n/a	GoodResponse	0	n/a	n/a	3	46	Fixation	AvoidedLoss	True
442.977	0.21	Lose2	0.6809000000000001	0.004	Yes	3.369	-0.004	4.0	GoodResponse	0	0.172	442.149	3	46	Target	AvoidedLoss	True
443.149	0.3	Lose2	0.6809000000000001	0.004	Yes	3.369	-0.004	4.0	GoodResponse	0	0.172	n/a	3	46	ButtonPress	AvoidedLoss	True
443.194	0.49	Lose2	0.6809000000000001	n/a	Yes	3.369	n/a	n/a	GoodResponse	0	n/a	n/a	3	46	Blank	AvoidedLoss	True
443.679	1.45	Lose2	0.6809000000000001	n/a	Yes	3.369	n/a	5.0	GoodResponse	0	0.001	442.68	3	46	Feedback	AvoidedLoss	True
445.133	3.369	Lose2	0.6809000000000001	n/a	Yes	3.369	n/a	n/a	GoodResponse	0	0.0	n/a	3	46	ISIslide	AvoidedLoss	True
448.527	0.25	Lose2	0.6875	0.0	Yes	2.673	0.027	n/a	GoodResponse	0	n/a	n/a	3	47	Cue	AvoidedLoss	True
448.778	4.0	Lose2	0.6875	0.0	Yes	2.673	0.001	n/a	GoodResponse	0	n/a	n/a	3	47	Fixation	AvoidedLoss	True
452.773	0.2	Lose2	0.6875	0.004	Yes	2.673	-0.004	4.0	GoodResponse	0	0.19	451.963	3	47	Target	AvoidedLoss	True
452.963	0.3	Lose2	0.6875	0.004	Yes	2.673	-0.004	4.0	GoodResponse	0	0.19	n/a	3	47	ButtonPress	AvoidedLoss	True
452.974	0.5	Lose2	0.6875	n/a	Yes	2.673	n/a	n/a	GoodResponse	0	n/a	n/a	3	47	Blank	AvoidedLoss	True
453.475	1.45	Lose2	0.6875	n/a	Yes	2.673	n/a	5.0	GoodResponse	0	0.01	452.485	3	47	Feedback	AvoidedLoss	True
454.929	2.673	Lose2	0.6875	n/a	Yes	2.673	n/a	n/a	GoodResponse	0	0.0	n/a	3	47	ISIslide	AvoidedLoss	True
457.621	0.25	Lose2	0.6939	0.0	Yes	3.029	0.021	n/a	GoodResponse	0	n/a	n/a	3	48	Cue	AvoidedLoss	True
457.872	3.95	Lose2	0.6939	0.0	Yes	3.029	0.001	n/a	GoodResponse	0	n/a	n/a	3	48	Fixation	AvoidedLoss	True
461.817	0.19	Lose2	0.6939	0.004	Yes	3.029	-0.004	4.0	GoodResponse	0	0.168	460.985	3	48	Target	AvoidedLoss	True
461.985	0.3	Lose2	0.6939	0.004	Yes	3.029	-0.004	4.0	GoodResponse	0	0.168	n/a	3	48	ButtonPress	AvoidedLoss	True
462.017	0.51	Lose2	0.6939	n/a	Yes	3.029	n/a	n/a	GoodResponse	0	n/a	n/a	3	48	Blank	AvoidedLoss	True
462.519	1.45	Lose2	0.6939	n/a	Yes	3.029	n/a	5.0	GoodResponse	0	0.038	461.557	3	48	Feedback	AvoidedLoss	True
463.973	3.029	Lose2	0.6939	n/a	Yes	3.029	n/a	n/a	GoodResponse	0	0.0	n/a	3	48	ISIslide	AvoidedLoss	True
467.016	0.25	Control	0.7	0.0	Yes	2.884	0.016	n/a	GoodResponse	0	n/a	n/a	3	49	Cue	Neutral	True
467.266	4.0	Control	0.7	0.0	Yes	2.884	0.0	n/a	GoodResponse	0	n/a	n/a	3	49	Fixation	Neutral	True
471.262	0.18	Control	0.7	0.004	Yes	2.884	-0.004	4.0	GoodResponse	0	0.17	470.432	3	49	Target	Neutral	True
471.432	0.3	Control	0.7	0.004	Yes	2.884	-0.004	4.0	GoodResponse	0	0.17	n/a	3	49	ButtonPress	Neutral	True
471.446	0.52	Control	0.7	n/a	Yes	2.884	n/a	n/a	GoodResponse	0	n/a	n/a	3	49	Blank	Neutral	True
471.964	1.45	Control	0.7	n/a	Yes	2.884	n/a	5.0	GoodResponse	0	0.008	470.972	3	49	Feedback	Neutral	True
473.418	2.884	Control	0.7	n/a	Yes	2.884	n/a	n/a	GoodResponse	0	0.0	n/a	3	49	ISIslide	Neutral	True
476.327	0.25	Control	0.6862999999999999	0.0	No	2.773	0.027	n/a	NoResponse	0	n/a	n/a	3	50	Cue	Neutral	False
476.578	4.0	Control	0.6862999999999999	0.0	No	2.773	0.001	4.0	NoResponse	0	3.806	479.384	3	50	Fixation	Neutral	False
480.384	0.3	Control	0.6862999999999999	0.0	No	2.773	0.001	4.0	NoResponse	0	3.806	n/a	3	50	ButtonPress	Neutral	False
480.573	0.17	Control	0.6862999999999999	0.004	No	2.773	-0.004	4.0	NoResponse	0	0.207	479.78	3	50	Target	Neutral	False
480.757	0.53	Control	0.6862999999999999	n/a	No	2.773	n/a	n/a	NoResponse	0	n/a	n/a	3	50	Blank	Neutral	False
480.78	0.3	Control	0.6862999999999999	0.004	No	2.773	-0.004	4.0	NoResponse	0	0.207	n/a	3	50	ButtonPress	Neutral	False
481.275	1.45	Control	0.6862999999999999	n/a	No	2.773	n/a	5.0	NoResponse	0	0.014	480.289	3	50	Feedback	Neutral	False
482.729	2.773	Control	0.6862999999999999	n/a	No	2.773	n/a	n/a	NoResponse	0	0.0	n/a	3	50	ISIslide	Neutral	False
485.521	0.25	Control	0.6731	0.0	No	2.729	0.021	n/a	NoResponse	0	n/a	n/a	3	51	Cue	Neutral	True
485.772	3.95	Control	0.6731	0.0	No	2.729	0.001	n/a	NoResponse	0	n/a	n/a	3	51	Fixation	Neutral	True
489.717	0.16	Control	0.6731	0.004	No	2.729	-0.004	4.0	NoResponse	0	0.174	488.891	3	51	Target	Neutral	True
489.884	0.54	Control	0.6731	n/a	No	2.729	n/a	n/a	NoResponse	0	n/a	n/a	3	51	Blank	Neutral	True
489.891	0.3	Control	0.6731	0.004	No	2.729	-0.004	4.0	NoResponse	0	0.174	n/a	3	51	ButtonPress	Neutral	True
490.419	1.45	Control	0.6731	n/a	No	2.729	n/a	5.0	NoResponse	0	0.041	489.46	3	51	Feedback	Neutral	True
491.873	2.729	Control	0.6731	n/a	No	2.729	n/a	n/a	NoResponse	0	0.0	n/a	3	51	ISIslide	Neutral	True
494.615	0.25	Control	0.6604000000000001	0.0	No	2.635	0.015	n/a	NoResponse	0	n/a	n/a	3	52	Cue	Neutral	True
494.866	4.05	Control	0.6604000000000001	0.0	No	2.635	0.001	n/a	NoResponse	0	n/a	n/a	3	52	Fixation	Neutral	True
498.911	0.15	Control	0.6604000000000001	0.004	No	2.635	-0.004	4.0	NoResponse	0	0.187	498.098	3	52	Target	Neutral	True
499.062	0.55	Control	0.6604000000000001	n/a	No	2.635	n/a	n/a	NoResponse	0	n/a	n/a	3	52	Blank	Neutral	True
499.098	0.3	Control	0.6604000000000001	0.004	No	2.635	-0.004	4.0	NoResponse	0	0.187	n/a	3	52	ButtonPress	Neutral	True
499.613	1.45	Control	0.6604000000000001	n/a	No	2.635	n/a	5.0	NoResponse	0	0.018	498.631	3	52	Feedback	Neutral	True
501.068	2.635	Control	0.6604000000000001	n/a	No	2.635	n/a	n/a	NoResponse	0	0.0	n/a	3	52	ISIslide	Neutral	True
503.726	0.25	Win2	0.6481	0.0	No	2.924	0.026	n/a	NoResponse	0	n/a	n/a	3	53	Cue	MissedWin	True
503.976	4.05	Win2	0.6481	0.0	No	2.924	0.0	n/a	NoResponse	0	n/a	n/a	3	53	Fixation	MissedWin	True
508.022	0.15	Win2	0.6481	0.004	No	2.924	-0.004	4.0	NoResponse	0	0.174	507.196	3	53	Target	MissedWin	True
508.172	0.55	Win2	0.6481	n/a	No	2.924	n/a	n/a	NoResponse	0	n/a	n/a	3	53	Blank	MissedWin	True
508.196	0.3	Win2	0.6481	0.004	No	2.924	-0.004	4.0	NoResponse	0	0.174	n/a	3	53	ButtonPress	MissedWin	True
508.724	1.45	Win2	0.6481	n/a	No	2.924	n/a	5.0	NoResponse	0	0.029	507.753	3	53	Feedback	MissedWin	True
510.178	2.924	Win2	0.6481	n/a	No	2.924	n/a	n/a	NoResponse	0	0.0	n/a	3	53	ISIslide	MissedWin	True
513.12	0.25	Win2	0.6364	0.001	No	2.73	0.02	n/a	NoResponse	0	n/a	n/a	3	54	Cue	MissedWin	True
513.371	3.95	Win2	0.6364	0.0	No	2.73	0.001	4.0	NoResponse	0	1.067	513.438	3	54	Fixation	MissedWin	True
514.438	0.3	Win2	0.6364	0.0	No	2.73	0.001	4.0	NoResponse	0	1.067	n/a	3	54	ButtonPress	MissedWin	True
517.316	0.16	Win2	0.6364	0.004	No	2.73	-0.004	n/a	NoResponse	0	n/a	n/a	3	54	Target	MissedWin	True
517.484	0.54	Win2	0.6364	n/a	No	2.73	n/a	n/a	NoResponse	0	n/a	n/a	3	54	Blank	MissedWin	True
518.018	1.45	Win2	0.6364	n/a	No	2.73	n/a	5.0	NoResponse	0	0.007	517.025	3	54	Feedback	MissedWin	True
519.473	2.73	Win2	0.6364	n/a	No	2.73	n/a	n/a	NoResponse	0	0.0	n/a	3	54	ISIslide	MissedWin	True
522.214	0.25	Control	0.6429	0.0	Yes	3.036	0.014	n/a	GoodResponse	0	n/a	n/a	3	55	Cue	Neutral	True
522.465	3.95	Control	0.6429	0.0	Yes	3.036	0.001	n/a	GoodResponse	0	n/a	n/a	3	55	Fixation	Neutral	True
526.41	0.17	Control	0.6429	0.004	Yes	3.036	-0.004	4.0	GoodResponse	0	0.164	525.574	3	55	Target	Neutral	True
526.574	0.3	Control	0.6429	0.004	Yes	3.036	-0.004	4.0	GoodResponse	0	0.164	n/a	3	55	ButtonPress	Neutral	True
526.594	0.53	Control	0.6429	n/a	Yes	3.036	n/a	n/a	GoodResponse	0	n/a	n/a	3	55	Blank	Neutral	True
527.112	1.45	Control	0.6429	n/a	Yes	3.036	n/a	5.0	GoodResponse	0	0.031	526.143	3	55	Feedback	Neutral	True
528.567	3.036	Control	0.6429	n/a	Yes	3.036	n/a	n/a	GoodResponse	0	0.0	n/a	3	55	ISIslide	Neutral	True
531.626	0.25	Control	0.6315999999999999	0.0	No	2.824	0.026	n/a	NoResponse	0	n/a	n/a	3	56	Cue	Neutral	True
531.877	3.95	Control	0.6315999999999999	0.0	No	2.824	0.001	n/a	NoResponse	0	n/a	n/a	3	56	Fixation	Neutral	True
535.822	0.18	Control	0.6315999999999999	0.004	No	2.824	-0.004	4.0	NoResponse	0	0.192	535.014	3	56	Target	Neutral	True
536.006	0.52	Control	0.6315999999999999	n/a	No	2.824	n/a	n/a	NoResponse	0	n/a	n/a	3	56	Blank	Neutral	True
536.014	0.3	Control	0.6315999999999999	0.004	No	2.824	-0.004	4.0	NoResponse	0	0.192	n/a	3	56	ButtonPress	Neutral	True
536.524	1.45	Control	0.6315999999999999	n/a	No	2.824	n/a	5.0	NoResponse	0	0.033	535.557	3	56	Feedback	Neutral	True
537.978	2.824	Control	0.6315999999999999	n/a	No	2.824	n/a	n/a	NoResponse	0	0.0	n/a	3	56	ISIslide	Neutral	True
540.82	0.25	Control	0.6379	0.0	Yes	3.48	0.02	n/a	GoodResponse	0	n/a	n/a	3	57	Cue	Neutral	True
541.071	4.0	Control	0.6379	0.0	Yes	3.48	0.001	n/a	GoodResponse	0	n/a	n/a	3	57	Fixation	Neutral	True
545.066	0.19	Control	0.6379	0.004	Yes	3.48	-0.004	4.0	GoodResponse	0	0.182	544.248	3	57	Target	Neutral	True
545.248	0.3	Control	0.6379	0.004	Yes	3.48	-0.004	4.0	GoodResponse	0	0.182	n/a	3	57	ButtonPress	Neutral	True
545.267	0.51	Control	0.6379	n/a	Yes	3.48	n/a	n/a	GoodResponse	0	n/a	n/a	3	57	Blank	Neutral	True
545.768	1.45	Control	0.6379	n/a	Yes	3.48	n/a	5.0	GoodResponse	0	0.009	544.777	3	57	Feedback	Neutral	True
547.223	3.48	Control	0.6379	n/a	Yes	3.48	n/a	n/a	GoodResponse	0	0.0	n/a	3	57	ISIslide	Neutral	True
550.716	0.25	Win2	0.6441	0.0	Yes	2.734	0.016	n/a	GoodResponse	1	n/a	n/a	4	58	Cue	Win	False
550.967	4.05	Win2	0.6441	0.0	Yes	2.734	0.001	4.0	GoodResponse	1	3.587	553.554	4	58	Fixation	Win	False
554.554	0.3	Win2	0.6441	0.0	Yes	2.734	0.001	4.0	GoodResponse	1	3.587	n/a	4	58	ButtonPress	Win	False
555.013	0.2	Win2	0.6441	0.003	Yes	2.734	-0.003	4.0	GoodResponse	1	0.171	554.184	4	58	Target	Win	False
555.184	0.3	Win2	0.6441	0.003	Yes	2.734	-0.003	4.0	GoodResponse	1	0.171	n/a	4	58	ButtonPress	Win	False
555.213	0.5	Win2	0.6441	n/a	Yes	2.734	n/a	n/a	GoodResponse	1	n/a	n/a	4	58	Blank	Win	False
555.715	1.45	Win2	0.6441	n/a	Yes	2.734	n/a	5.0	GoodResponse	1	0.013	554.728	4	58	Feedback	Win	False
557.169	2.734	Win2	0.6441	n/a	Yes	2.734	n/a	n/a	GoodResponse	1	0.0	n/a	4	58	ISIslide	Win	False
559.927	0.25	Lose2	0.65	0.001	Yes	2.673	0.027	n/a	GoodResponse	0	n/a	n/a	4	59	Cue	AvoidedLoss	True
560.178	4.0	Lose2	0.65	0.0	Yes	2.673	0.001	n/a	GoodResponse	0	n/a	n/a	4	59	Fixation	AvoidedLoss	True
564.173	0.21	Lose2	0.65	0.004	Yes	2.673	-0.004	4.0	GoodResponse	0	0.181	563.354	4	59	Target	AvoidedLoss	True
564.354	0.3	Lose2	0.65	0.004	Yes	2.673	-0.004	4.0	GoodResponse	0	0.181	n/a	4	59	ButtonPress	AvoidedLoss	True
564.391	0.49	Lose2	0.65	n/a	Yes	2.673	n/a	n/a	GoodResponse	0	n/a	n/a	4	59	Blank	AvoidedLoss	True
564.876	1.45	Lose2	0.65	n/a	Yes	2.673	n/a	5.0	GoodResponse	0	0.023	563.899	4	59	Feedback	AvoidedLoss	True
566.33	2.673	Lose2	0.65	n/a	Yes	2.673	n/a	n/a	GoodResponse	0	0.0	n/a	4	59	ISIslide	AvoidedLoss	True
569.021	0.25	Control	0.6557	0.0	Yes	2.679	0.021	n/a	GoodResponse	0	n/a	n/a	4	60	Cue	Neutral	True
569.272	4.0	Control	0.6557	0.0	Yes	2.679	0.001	n/a	GoodResponse	0	n/a	n/a	4	60	Fixation	Neutral	True
573.267	0.22	Control	0.6557	0.004	Yes	2.679	-0.004	4.0	GoodResponse	0	0.167	572.434	4	60	Target	Neutral	True
573.434	0.3	Control	0.6557	0.004	Yes	2.679	-0.004	4.0	GoodResponse	0	0.167	n/a	4	60	ButtonPress	Neutral	True
573.501	0.48	Control	0.6557	n/a	Yes	2.679	n/a	n/a	GoodResponse	0	n/a	n/a	4	60	Blank	Neutral	True
573.969	1.45	Control	0.6557	n/a	Yes	2.679	n/a	5.0	GoodResponse	0	0.007	572.976	4	60	Feedback	Neutral	True
575.424	2.679	Control	0.6557	n/a	Yes	2.679	n/a	n/a	GoodResponse	0	0.0	n/a	4	60	ISIslide	Neutral	True
578.115	0.25	Lose2	0.6613	0.0	Yes	2.985	0.015	n/a	GoodResponse	0	n/a	n/a	4	61	Cue	AvoidedLoss	True
578.366	4.0	Lose2	0.6613	0.0	Yes	2.985	0.001	n/a	GoodResponse	0	n/a	n/a	4	61	Fixation	AvoidedLoss	True
582.361	0.22	Lose2	0.6613	0.004	Yes	2.985	-0.004	4.0	GoodResponse	0	0.182	581.543	4	61	Target	AvoidedLoss	True
582.543	0.3	Lose2	0.6613	0.004	Yes	2.985	-0.004	4.0	GoodResponse	0	0.182	n/a	4	61	ButtonPress	AvoidedLoss	True
582.595	0.48	Lose2	0.6613	n/a	Yes	2.985	n/a	n/a	GoodResponse	0	n/a	n/a	4	61	Blank	AvoidedLoss	True
583.063	1.45	Lose2	0.6613	n/a	Yes	2.985	n/a	5.0	GoodResponse	0	0.03	582.093	4	61	Feedback	AvoidedLoss	True
584.518	2.985	Lose2	0.6613	n/a	Yes	2.985	n/a	n/a	GoodResponse	0	0.0	n/a	4	61	ISIslide	AvoidedLoss	True
587.527	0.25	Lose2	0.6667000000000001	0.0	Yes	2.873	0.027	n/a	GoodResponse	0	n/a	n/a	4	62	Cue	AvoidedLoss	True
587.777	3.9	Lose2	0.6667000000000001	0.001	Yes	2.873	0.0	n/a	GoodResponse	0	n/a	n/a	4	62	Fixation	AvoidedLoss	True
591.689	0.22	Lose2	0.6667000000000001	0.0	Yes	2.873	0.012	4.0	GoodResponse	0	0.184	590.873	4	62	Target	AvoidedLoss	True
591.873	0.3	Lose2	0.6667000000000001	0.0	Yes	2.873	0.012	4.0	GoodResponse	0	0.184	n/a	4	62	ButtonPress	AvoidedLoss	True
591.907	0.48	Lose2	0.6667000000000001	n/a	Yes	2.873	n/a	n/a	GoodResponse	0	n/a	n/a	4	62	Blank	AvoidedLoss	True
592.375	1.45	Lose2	0.6667000000000001	n/a	Yes	2.873	n/a	5.0	GoodResponse	0	0.036	591.411	4	62	Feedback	AvoidedLoss	True
593.829	2.873	Lose2	0.6667000000000001	n/a	Yes	2.873	n/a	n/a	GoodResponse	0	0.0	n/a	4	62	ISIslide	AvoidedLoss	True
596.721	0.25	Lose2	0.6718999999999999	0.0	Yes	2.629	0.021	n/a	GoodResponse	0	n/a	n/a	4	63	Cue	AvoidedLoss	True
596.972	4.05	Lose2	0.6718999999999999	0.0	Yes	2.629	0.001	n/a	GoodResponse	0	n/a	n/a	4	63	Fixation	AvoidedLoss	True
601.017	0.21	Lose2	0.6718999999999999	0.004	Yes	2.629	-0.004	4.0	GoodResponse	0	0.185	600.202	4	63	Target	AvoidedLoss	True
601.202	0.3	Lose2	0.6718999999999999	0.004	Yes	2.629	-0.004	4.0	GoodResponse	0	0.185	n/a	4	63	ButtonPress	AvoidedLoss	True
601.234	0.49	Lose2	0.6718999999999999	n/a	Yes	2.629	n/a	n/a	GoodResponse	0	n/a	n/a	4	63	Blank	AvoidedLoss	True
601.719	1.45	Lose2	0.6718999999999999	n/a	Yes	2.629	n/a	5.0	GoodResponse	0	0.009	600.728	4	63	Feedback	AvoidedLoss	True
603.174	2.629	Lose2	0.6718999999999999	n/a	Yes	2.629	n/a	n/a	GoodResponse	0	0.0	n/a	4	63	ISIslide	AvoidedLoss	True
605.832	0.25	Win2	0.6615000000000001	0.0	No	3.118	0.032	n/a	NoResponse	0	n/a	n/a	4	64	Cue	MissedWin	True
606.082	4.15	Win2	0.6615000000000001	0.0	No	3.118	0.0	n/a	NoResponse	0	n/a	n/a	4	64	Fixation	MissedWin	True
610.228	0.2	Win2	0.6615000000000001	0.004	No	3.118	-0.004	4.0	NoResponse	0	0.226	609.454	4	64	Target	MissedWin	True
610.429	0.5	Win2	0.6615000000000001	n/a	No	3.118	n/a	n/a	NoResponse	0	n/a	n/a	4	64	Blank	MissedWin	True
610.454	0.3	Win2	0.6615000000000001	0.004	No	3.118	-0.004	4.0	NoResponse	0	0.226	n/a	4	64	ButtonPress	MissedWin	True
610.93	1.45	Win2	0.6615000000000001	n/a	No	3.118	n/a	5.0	NoResponse	0	0.017	609.947	4	64	Feedback	MissedWin	True
612.385	3.118	Win2	0.6615000000000001	n/a	No	3.118	n/a	n/a	NoResponse	0	0.0	n/a	4	64	ISIslide	MissedWin	True
615.527	0.25	Control	0.6667000000000001	0.0	Yes	2.773	0.027	n/a	GoodResponse	0	n/a	n/a	4	65	Cue	Neutral	True
615.778	4.0	Control	0.6667000000000001	0.0	Yes	2.773	0.001	n/a	GoodResponse	0	n/a	n/a	4	65	Fixation	Neutral	True
619.773	0.2	Control	0.6667000000000001	0.004	Yes	2.773	-0.004	4.0	GoodResponse	0	0.175	618.948	4	65	Target	Neutral	True
619.948	0.3	Control	0.6667000000000001	0.004	Yes	2.773	-0.004	4.0	GoodResponse	0	0.175	n/a	4	65	ButtonPress	Neutral	True
619.974	0.5	Control	0.6667000000000001	n/a	Yes	2.773	n/a	n/a	GoodResponse	0	n/a	n/a	4	65	Blank	Neutral	True
620.475	1.45	Control	0.6667000000000001	n/a	Yes	2.773	n/a	5.0	GoodResponse	0	0.033	619.508	4	65	Feedback	Neutral	True
621.93	2.773	Control	0.6667000000000001	n/a	Yes	2.773	n/a	n/a	GoodResponse	0	0.0	n/a	4	65	ISIslide	Neutral	True
624.722	0.25	Win2	0.6716	0.0	Yes	2.778	0.022	n/a	GoodResponse	1	n/a	n/a	5	66	Cue	Win	True
624.972	3.9	Win2	0.6716	0.0	Yes	2.778	0.0	n/a	GoodResponse	1	n/a	n/a	5	66	Fixation	Win	True
628.884	0.19	Win2	0.6716	0.0	Yes	2.778	0.012	4.0	GoodResponse	1	0.171	628.055	5	66	Target	Win	True
629.055	0.3	Win2	0.6716	0.0	Yes	2.778	0.012	4.0	GoodResponse	1	0.171	n/a	5	66	ButtonPress	Win	True
629.068	0.51	Win2	0.6716	n/a	Yes	2.778	n/a	n/a	GoodResponse	1	n/a	n/a	5	66	Blank	Win	True
629.569	1.45	Win2	0.6716	n/a	Yes	2.778	n/a	5.0	GoodResponse	1	0.013	628.582	5	66	Feedback	Win	True
631.024	2.778	Win2	0.6716	n/a	Yes	2.778	n/a	n/a	GoodResponse	1	0.0	n/a	5	66	ISIslide	Win	True
633.815	0.25	Control	0.6618	0.0	No	2.735	0.015	n/a	NoResponse	0	n/a	n/a	5	67	Cue	Neutral	True
634.066	3.95	Control	0.6618	0.0	No	2.735	0.001	n/a	NoResponse	0	n/a	n/a	5	67	Fixation	Neutral	True
638.011	0.18	Control	0.6618	0.004	No	2.735	-0.004	4.0	NoResponse	0	0.247	637.258	5	67	Target	Neutral	True
638.195	0.52	Control	0.6618	n/a	No	2.735	n/a	n/a	NoResponse	0	n/a	n/a	5	67	Blank	Neutral	True
638.258	0.3	Control	0.6618	0.004	No	2.735	-0.004	4.0	NoResponse	0	0.247	n/a	5	67	ButtonPress	Neutral	True
638.713	1.45	Control	0.6618	n/a	No	2.735	n/a	5.0	NoResponse	0	0.039	637.752	5	67	Feedback	Neutral	True
640.168	2.735	Control	0.6618	n/a	No	2.735	n/a	n/a	NoResponse	0	0.0	n/a	5	67	ISIslide	Neutral	True
642.926	0.25	Win2	0.6667000000000001	0.0	Yes	3.074	0.026	n/a	GoodResponse	1	n/a	n/a	6	68	Cue	Win	True
643.177	4.0	Win2	0.6667000000000001	0.0	Yes	3.074	0.001	n/a	GoodResponse	1	n/a	n/a	6	68	Fixation	Win	True
647.172	0.18	Win2	0.6667000000000001	0.004	Yes	3.074	-0.004	4.0	GoodResponse	1	0.162	646.334	6	68	Target	Win	True
647.334	0.3	Win2	0.6667000000000001	0.004	Yes	3.074	-0.004	4.0	GoodResponse	1	0.162	n/a	6	68	ButtonPress	Win	True
647.356	0.52	Win2	0.6667000000000001	n/a	Yes	3.074	n/a	n/a	GoodResponse	1	n/a	n/a	6	68	Blank	Win	True
647.874	1.45	Win2	0.6667000000000001	n/a	Yes	3.074	n/a	5.0	GoodResponse	1	0.0	646.874	6	68	Feedback	Win	True
649.329	3.074	Win2	0.6667000000000001	n/a	Yes	3.074	n/a	n/a	GoodResponse	1	0.0	n/a	6	68	ISIslide	Win	True
652.421	0.25	Win2	0.6570999999999999	0.0	No	3.229	0.021	n/a	NoResponse	0	n/a	n/a	6	69	Cue	MissedWin	True
652.672	3.95	Win2	0.6570999999999999	0.0	No	3.229	0.001	4.0	NoResponse	0	3.923	655.595	6	69	Fixation	MissedWin	True
656.595	0.3	Win2	0.6570999999999999	0.0	No	3.229	0.001	4.0	NoResponse	0	3.923	n/a	6	69	ButtonPress	MissedWin	True
656.617	0.17	Win2	0.6570999999999999	0.004	No	3.229	-0.004	n/a	NoResponse	0	n/a	n/a	6	69	Target	MissedWin	True
656.801	0.53	Win2	0.6570999999999999	n/a	No	3.229	n/a	n/a	NoResponse	0	n/a	n/a	6	69	Blank	MissedWin	True
657.319	1.45	Win2	0.6570999999999999	n/a	No	3.229	n/a	5.0	NoResponse	0	0.018	656.337	6	69	Feedback	MissedWin	True
658.774	3.229	Win2	0.6570999999999999	n/a	No	3.229	n/a	n/a	NoResponse	0	0.0	n/a	6	69	ISIslide	MissedWin	True
662.017	0.25	Lose2	0.6479	0.0	No	3.033	0.017	n/a	LatePress	-1	n/a	n/a	5	70	Cue	Loss	True
662.267	4.05	Lose2	0.6479	0.0	No	3.033	0.0	n/a	LatePress	-1	n/a	n/a	5	70	Fixation	Loss	True
666.313	0.17	Lose2	0.6479	0.004	No	3.033	-0.004	4.0	LatePress	-1	0.17	665.483	5	70	Target	Loss	True
666.483	0.3	Lose2	0.6479	0.004	No	3.033	-0.004	4.0	LatePress	-1	0.17	n/a	5	70	ButtonPress	Loss	True
666.497	0.53	Lose2	0.6479	n/a	No	3.033	n/a	n/a	LatePress	-1	n/a	n/a	5	70	Blank	Loss	True
667.015	1.45	Lose2	0.6479	n/a	No	3.033	n/a	5.0	LatePress	-1	0.029	666.044	5	70	Feedback	Loss	True
668.469	3.033	Lose2	0.6479	n/a	No	3.033	n/a	n/a	LatePress	-1	0.0	n/a	5	70	ISIslide	Loss	True
671.528	0.25	Win2	0.6389	0.001	No	2.722	0.028	n/a	PrematurePress	0	n/a	n/a	5	71	Cue	MissedWin	True
671.779	4.05	Win2	0.6389	0.0	No	2.722	0.001	n/a	PrematurePress	0	n/a	n/a	5	71	Fixation	MissedWin	True
675.825	0.18	Win2	0.6389	0.003	No	2.722	-0.003	4.0	PrematurePress	0	0.019	674.844	5	71	Target	MissedWin	True
675.844	0.3	Win2	0.6389	0.003	No	2.722	-0.003	4.0	PrematurePress	0	0.019	n/a	5	71	ButtonPress	MissedWin	True
676.009	0.52	Win2	0.6389	n/a	No	2.722	n/a	n/a	PrematurePress	0	n/a	n/a	5	71	Blank	MissedWin	True
676.527	1.45	Win2	0.6389	n/a	No	2.722	n/a	5.0	PrematurePress	0	0.03	675.557	5	71	Feedback	MissedWin	True
677.981	2.722	Win2	0.6389	n/a	No	2.722	n/a	n/a	PrematurePress	0	0.0	n/a	5	71	ISIslide	MissedWin	True
680.723	0.25	Win2	0.6437999999999999	0.0	Yes	2.777	0.023	n/a	GoodResponse	1	n/a	n/a	6	72	Cue	Win	True
680.973	4.1	Win2	0.6437999999999999	0.0	Yes	2.777	0.0	n/a	GoodResponse	1	n/a	n/a	6	72	Fixation	Win	True
685.069	0.19	Win2	0.6437999999999999	0.004	Yes	2.777	-0.004	4.0	GoodResponse	1	0.189	684.258	6	72	Target	Win	True
685.258	0.3	Win2	0.6437999999999999	0.004	Yes	2.777	-0.004	4.0	GoodResponse	1	0.189	n/a	6	72	ButtonPress	Win	True
685.27	0.51	Win2	0.6437999999999999	n/a	Yes	2.777	n/a	n/a	GoodResponse	1	n/a	n/a	6	72	Blank	Win	True
685.771	1.45	Win2	0.6437999999999999	n/a	Yes	2.777	n/a	5.0	GoodResponse	1	0.007	684.778	6	72	Feedback	Win	True
687.225	2.777	Win2	0.6437999999999999	n/a	Yes	2.777	n/a	n/a	GoodResponse	1	0.0	n/a	6	72	ISIslide	Win	True
690.017	0.25	Win2	0.6486	0.0	Yes	2.683	0.017	n/a	GoodResponse	1	n/a	n/a	7	73	Cue	Win	True
690.268	4.0	Win2	0.6486	0.0	Yes	2.683	0.001	n/a	GoodResponse	1	n/a	n/a	7	73	Fixation	Win	True
694.263	0.2	Win2	0.6486	0.004	Yes	2.683	-0.004	4.0	GoodResponse	1	0.186	693.449	7	73	Target	Win	True
694.449	0.3	Win2	0.6486	0.004	Yes	2.683	-0.004	4.0	GoodResponse	1	0.186	n/a	7	73	ButtonPress	Win	True
694.464	0.5	Win2	0.6486	n/a	Yes	2.683	n/a	n/a	GoodResponse	1	n/a	n/a	7	73	Blank	Win	True
694.965	1.45	Win2	0.6486	n/a	Yes	2.683	n/a	5.0	GoodResponse	1	0.031	693.996	7	73	Feedback	Win	True
696.42	2.683	Win2	0.6486	n/a	Yes	2.683	n/a	n/a	GoodResponse	1	0.0	n/a	7	73	ISIslide	Win	True
699.128	0.25	Lose2	0.6533	0.0	Yes	2.622	0.028	n/a	GoodResponse	0	n/a	n/a	7	74	Cue	AvoidedLoss	True
699.379	4.05	Lose2	0.6533	0.0	Yes	2.622	0.001	n/a	GoodResponse	0	n/a	n/a	7	74	Fixation	AvoidedLoss	True
703.424	0.21	Lose2	0.6533	0.004	Yes	2.622	-0.004	4.0	GoodResponse	0	0.169	702.593	7	74	Target	AvoidedLoss	True
703.593	0.3	Lose2	0.6533	0.004	Yes	2.622	-0.004	4.0	GoodResponse	0	0.169	n/a	7	74	ButtonPress	AvoidedLoss	True
703.641	0.49	Lose2	0.6533	n/a	Yes	2.622	n/a	n/a	GoodResponse	0	n/a	n/a	7	74	Blank	AvoidedLoss	True
704.126	1.45	Lose2	0.6533	n/a	Yes	2.622	n/a	5.0	GoodResponse	0	0.04	703.166	7	74	Feedback	AvoidedLoss	True
705.58	2.622	Lose2	0.6533	n/a	Yes	2.622	n/a	n/a	GoodResponse	0	0.0	n/a	7	74	ISIslide	AvoidedLoss	True
708.222	0.25	Lose2	0.6446999999999999	0.0	No	2.928	0.022	n/a	NoResponse	-1	n/a	n/a	6	75	Cue	Loss	True
708.472	3.95	Lose2	0.6446999999999999	0.001	No	2.928	0.0	4.0	NoResponse	-1	3.888	711.36	6	75	Fixation	Loss	True
712.36	0.3	Lose2	0.6446999999999999	0.001	No	2.928	0.0	4.0	NoResponse	-1	3.888	n/a	6	75	ButtonPress	Loss	True
712.418	0.22	Lose2	0.6446999999999999	0.004	No	2.928	-0.004	n/a	NoResponse	-1	n/a	n/a	6	75	Target	Loss	True
712.652	0.48	Lose2	0.6446999999999999	n/a	No	2.928	n/a	n/a	NoResponse	-1	n/a	n/a	6	75	Blank	Loss	True
713.12	1.45	Lose2	0.6446999999999999	n/a	No	2.928	n/a	5.0	NoResponse	-1	0.022	712.142	6	75	Feedback	Loss	True
714.574	2.928	Lose2	0.6446999999999999	n/a	No	2.928	n/a	n/a	NoResponse	-1	0.0	n/a	6	75	ISIslide	Loss	True
717.516	0.25	Control	0.6494	0.0	Yes	3.234	0.016	n/a	GoodResponse	0	n/a	n/a	6	76	Cue	Neutral	True
717.767	4.05	Control	0.6494	0.0	Yes	3.234	0.001	n/a	GoodResponse	0	n/a	n/a	6	76	Fixation	Neutral	True
721.812	0.23	Control	0.6494	0.004	Yes	3.234	-0.004	4.0	GoodResponse	0	0.209	721.021	6	76	Target	Neutral	True
722.021	0.3	Control	0.6494	0.004	Yes	3.234	-0.004	4.0	GoodResponse	0	0.209	n/a	6	76	ButtonPress	Neutral	True
722.046	0.47	Control	0.6494	n/a	Yes	3.234	n/a	n/a	GoodResponse	0	n/a	n/a	6	76	Blank	Neutral	True
722.515	1.45	Control	0.6494	n/a	Yes	3.234	n/a	5.0	GoodResponse	0	0.041	721.556	6	76	Feedback	Neutral	True
723.969	3.234	Control	0.6494	n/a	Yes	3.234	n/a	n/a	GoodResponse	0	0.0	n/a	6	76	ISIslide	Neutral	True
727.229	0.25	Lose2	0.6537999999999999	0.0	Yes	2.571	0.029	n/a	GoodResponse	0	n/a	n/a	6	77	Cue	AvoidedLoss	True
727.479	3.95	Lose2	0.6537999999999999	0.0	Yes	2.571	0.0	n/a	GoodResponse	0	n/a	n/a	6	77	Fixation	AvoidedLoss	True
731.425	0.24	Lose2	0.6537999999999999	0.004	Yes	2.571	-0.004	4.0	GoodResponse	0	0.177	730.602	6	77	Target	AvoidedLoss	True
731.602	0.3	Lose2	0.6537999999999999	0.004	Yes	2.571	-0.004	4.0	GoodResponse	0	0.177	n/a	6	77	ButtonPress	AvoidedLoss	True
731.675	0.46	Lose2	0.6537999999999999	n/a	Yes	2.571	n/a	n/a	GoodResponse	0	n/a	n/a	6	77	Blank	AvoidedLoss	True
732.127	1.45	Lose2	0.6537999999999999	n/a	Yes	2.571	n/a	5.0	GoodResponse	0	0.039	731.166	6	77	Feedback	AvoidedLoss	True
733.581	2.571	Lose2	0.6537999999999999	n/a	Yes	2.571	n/a	n/a	GoodResponse	0	0.0	n/a	6	77	ISIslide	AvoidedLoss	True
