onset	duration	cue_type	current_mean_accuracy	duration_error	is_hit	isi_adjusted	onset_delay	response	response_type	reward	rt	rt_time	total_reward	trial_number	trial_phase	trial_type	one_press
11.102	0.25	Control	1.0	0.0	Yes	2.948	0.002	n/a	GoodResponse	0	n/a	n/a	0	0	Cue	Neutral	True
11.352	3.85	Control	1.0	0.0	Yes	2.948	0.0	n/a	GoodResponse	0	n/a	n/a	0	0	Fixation	Neutral	True
15.2	0.4	Control	1.0	0.002	Yes	2.948	-0.002	2.0	GoodResponse	0	0.216	14.416	0	0	Target	Neutral	True
15.416	0.3	Control	1.0	0.002	Yes	2.948	-0.002	2.0	GoodResponse	0	0.216	n/a	0	0	ButtonPress	Neutral	True
15.6	0.3	Control	1.0	n/a	Yes	2.948	n/a	n/a	GoodResponse	0	n/a	n/a	0	0	Blank	Neutral	True
15.9	1.45	Control	1.0	n/a	Yes	2.948	n/a	5.0	GoodResponse	0	0.029	14.929	0	0	Feedback	Neutral	True
17.35	2.948	Control	1.0	n/a	Yes	2.948	n/a	n/a	GoodResponse	0	0.0	n/a	0	0	ISIslide	Neutral	True
20.315	0.25	Lose2	1.0	0.0	Yes	2.785	0.015	n/a	GoodResponse	0	n/a	n/a	0	1	Cue	AvoidedLoss	True
20.565	4.0	Lose2	1.0	0.0	Yes	2.785	0.0	n/a	GoodResponse	0	n/a	n/a	0	1	Fixation	AvoidedLoss	True
24.564	0.39	Lose2	1.0	0.001	Yes	2.785	-0.001	2.0	GoodResponse	0	0.213	23.777	0	1	Target	AvoidedLoss	True
24.777	0.3	Lose2	1.0	0.001	Yes	2.785	-0.001	2.0	GoodResponse	0	0.213	n/a	0	1	ButtonPress	AvoidedLoss	True
24.964	0.31	Lose2	1.0	n/a	Yes	2.785	n/a	n/a	GoodResponse	0	n/a	n/a	0	1	Blank	AvoidedLoss	True
25.263	1.45	Lose2	1.0	n/a	Yes	2.785	n/a	5.0	GoodResponse	0	0.032	24.295	0	1	Feedback	AvoidedLoss	True
26.713	2.785	Lose2	1.0	n/a	Yes	2.785	n/a	n/a	GoodResponse	0	0.0	n/a	0	1	ISIslide	AvoidedLoss	True
29.529	0.25	Control	1.0	0.0	Yes	2.571	0.029	n/a	GoodResponse	0	n/a	n/a	0	2	Cue	Neutral	True
29.779	4.1	Control	1.0	0.0	Yes	2.571	0.0	n/a	GoodResponse	0	n/a	n/a	0	2	Fixation	Neutral	True
33.877	0.38	Control	1.0	0.002	Yes	2.571	-0.002	2.0	GoodResponse	0	0.259	33.136	0	2	Target	Neutral	True
34.136	0.3	Control	1.0	0.002	Yes	2.571	-0.002	2.0	GoodResponse	0	0.259	n/a	0	2	ButtonPress	Neutral	True
34.26	0.32	Control	1.0	n/a	Yes	2.571	n/a	n/a	GoodResponse	0	n/a	n/a	0	2	Blank	Neutral	True
34.577	1.45	Control	1.0	n/a	Yes	2.571	n/a	5.0	GoodResponse	0	0.034	33.611	0	2	Feedback	Neutral	True
36.026	2.571	Control	1.0	n/a	Yes	2.571	n/a	n/a	GoodResponse	0	0.0	n/a	0	2	ISIslide	Neutral	True
38.625	0.25	Win2	1.0	0.001	Yes	2.825	0.025	n/a	GoodResponse	1	n/a	n/a	1	3	Cue	Win	True
38.875	3.95	Win2	1.0	0.0	Yes	2.825	0.0	n/a	GoodResponse	1	n/a	n/a	1	3	Fixation	Win	True
42.824	0.37	Win2	1.0	0.001	Yes	2.825	-0.001	2.0	GoodResponse	1	0.176	42.0	1	3	Target	Win	True
43	0.3	Win2	1.0	0.001	Yes	2.825	-0.001	2.0	GoodResponse	1	0.176	n/a	1	3	ButtonPress	Win	True
43.191	0.33	Win2	1.0	n/a	Yes	2.825	n/a	n/a	GoodResponse	1	n/a	n/a	1	3	Blank	Win	True
43.524	1.45	Win2	1.0	n/a	Yes	2.825	n/a	5.0	GoodResponse	1	0.014	42.538	1	3	Feedback	Win	True
44.973	2.825	Win2	1.0	n/a	Yes	2.825	n/a	n/a	GoodResponse	1	0.0	n/a	1	3	ISIslide	Win	True
47.822	0.25	Win2	1.0	0.0	Yes	3.278	0.022	n/a	GoodResponse	1	n/a	n/a	2	4	Cue	Win	True
48.072	4.0	Win2	1.0	0.0	Yes	3.278	0.0	n/a	GoodResponse	1	n/a	n/a	2	4	Fixation	Win	True
52.071	0.36	Win2	1.0	0.001	Yes	3.278	-0.001	2.0	GoodResponse	1	0.172	51.243	2	4	Target	Win	True
52.243	0.3	Win2	1.0	0.001	Yes	3.278	-0.001	2.0	GoodResponse	1	0.172	n/a	2	4	ButtonPress	Win	True
52.437	0.34	Win2	1.0	n/a	Yes	3.278	n/a	n/a	GoodResponse	1	n/a	n/a	2	4	Blank	Win	True
52.771	1.45	Win2	1.0	n/a	Yes	3.278	n/a	5.0	GoodResponse	1	0.036	51.807	2	4	Feedback	Win	True
54.22	3.278	Win2	1.0	n/a	Yes	3.278	n/a	n/a	GoodResponse	1	0.0	n/a	2	4	ISIslide	Win	True
57.519	0.25	Win2	1.0	0.0	Yes	2.781	0.019	n/a	GoodResponse	1	n/a	n/a	3	5	Cue	Win	True
57.769	4.0	Win2	1.0	0.0	Yes	2.781	0.0	n/a	GoodResponse	1	n/a	n/a	3	5	Fixation	Win	True
61.767	0.35	Win2	1.0	0.002	Yes	2.781	-0.002	2.0	GoodResponse	1	0.278	61.045	3	5	Target	Win	True
62.045	0.3	Win2	1.0	0.002	Yes	2.781	-0.002	2.0	GoodResponse	1	0.278	n/a	3	5	ButtonPress	Win	True
62.117	0.35	Win2	1.0	n/a	Yes	2.781	n/a	n/a	GoodResponse	1	n/a	n/a	3	5	Blank	Win	True
62.467	1.45	Win2	1.0	n/a	Yes	2.781	n/a	5.0	GoodResponse	1	0.047	61.514	3	5	Feedback	Win	True
63.917	2.781	Win2	1.0	n/a	Yes	2.781	n/a	n/a	GoodResponse	1	0.0	n/a	3	5	ISIslide	Win	True
66.716	0.25	Lose2	1.0	0.0	Yes	2.734	0.016	n/a	GoodResponse	0	n/a	n/a	3	6	Cue	AvoidedLoss	True
66.966	3.95	Lose2	1.0	0.0	Yes	2.734	0.0	n/a	GoodResponse	0	n/a	n/a	3	6	Fixation	AvoidedLoss	True
70.914	0.34	Lose2	1.0	0.002	Yes	2.734	-0.002	2.0	GoodResponse	0	0.274	70.188	3	6	Target	AvoidedLoss	True
71.188	0.3	Lose2	1.0	0.002	Yes	2.734	-0.002	2.0	GoodResponse	0	0.274	n/a	3	6	ButtonPress	AvoidedLoss	True
71.264	0.36	Lose2	1.0	n/a	Yes	2.734	n/a	n/a	GoodResponse	0	n/a	n/a	3	6	Blank	AvoidedLoss	True
71.614	1.45	Lose2	1.0	n/a	Yes	2.734	n/a	5.0	GoodResponse	0	0.022	70.636	3	6	Feedback	AvoidedLoss	True
73.064	2.734	Lose2	1.0	n/a	Yes	2.734	n/a	n/a	GoodResponse	0	0.0	n/a	3	6	ISIslide	AvoidedLoss	True
75.829	0.25	Lose2	1.0	0.0	Yes	4.021	0.029	n/a	GoodResponse	0	n/a	n/a	3	7	Cue	AvoidedLoss	False
76.079	4.05	Lose2	1.0	0.0	Yes	4.021	0.0	2.0	GoodResponse	0	2.969	78.048	3	7	Fixation	AvoidedLoss	False
79.048	0.3	Lose2	1.0	0.0	Yes	4.021	0.0	2.0	GoodResponse	0	2.969	n/a	3	7	ButtonPress	AvoidedLoss	False
80.128	0.33	Lose2	1.0	0.001	Yes	4.021	-0.001	2.0	GoodResponse	0	0.225	79.353	3	7	Target	AvoidedLoss	False
80.353	0.3	Lose2	1.0	0.001	Yes	4.021	-0.001	2.0	GoodResponse	0	0.225	n/a	3	7	ButtonPress	AvoidedLoss	False
80.461	0.37	Lose2	1.0	n/a	Yes	4.021	n/a	n/a	GoodResponse	0	n/a	n/a	3	7	Blank	AvoidedLoss	False
80.828	1.45	Lose2	1.0	n/a	Yes	4.021	n/a	5.0	GoodResponse	0	0.028	79.856	3	7	Feedback	AvoidedLoss	False
82.277	4.021	Lose2	1.0	n/a	Yes	4.021	n/a	n/a	GoodResponse	0	0.0	n/a	3	7	ISIslide	AvoidedLoss	False
86.326	0.25	Lose2	1.0	0.0	Yes	3.024	0.026	n/a	GoodResponse	0	n/a	n/a	3	8	Cue	AvoidedLoss	True
86.576	3.95	Lose2	1.0	0.0	Yes	3.024	0.0	n/a	GoodResponse	0	n/a	n/a	3	8	Fixation	AvoidedLoss	True
90.524	0.32	Lose2	1.0	0.002	Yes	3.024	-0.002	2.0	GoodResponse	0	0.233	89.757	3	8	Target	AvoidedLoss	True
90.757	0.3	Lose2	1.0	0.002	Yes	3.024	-0.002	2.0	GoodResponse	0	0.233	n/a	3	8	ButtonPress	AvoidedLoss	True
90.857	0.38	Lose2	1.0	n/a	Yes	3.024	n/a	n/a	GoodResponse	0	n/a	n/a	3	8	Blank	AvoidedLoss	True
91.224	1.45	Lose2	1.0	n/a	Yes	3.024	n/a	5.0	GoodResponse	0	0.022	90.246	3	8	Feedback	AvoidedLoss	True
92.673	3.024	Lose2	1.0	n/a	Yes	3.024	n/a	n/a	GoodResponse	0	0.0	n/a	3	8	ISIslide	AvoidedLoss	True
95.722	0.25	Lose2	1.0	0.0	Yes	3.128	0.022	n/a	GoodResponse	0	n/a	n/a	3	9	Cue	AvoidedLoss	True
95.972	3.95	Lose2	1.0	0.0	Yes	3.128	0.0	n/a	GoodResponse	0	n/a	n/a	3	9	Fixation	AvoidedLoss	True
99.921	0.31	Lose2	1.0	0.001	Yes	3.128	-0.001	2.0	GoodResponse	0	0.223	99.144	3	9	Target	AvoidedLoss	True
100.144	0.3	Lose2	1.0	0.001	Yes	3.128	-0.001	2.0	GoodResponse	0	0.223	n/a	3	9	ButtonPress	AvoidedLoss	True
100.238	0.39	Lose2	1.0	n/a	Yes	3.128	n/a	n/a	GoodResponse	0	n/a	n/a	3	9	Blank	AvoidedLoss	True
100.621	1.45	Lose2	1.0	n/a	Yes	3.128	n/a	5.0	GoodResponse	0	0.039	99.66	3	9	Feedback	AvoidedLoss	True
102.07	3.128	Lose2	1.0	n/a	Yes	3.128	n/a	n/a	GoodResponse	0	0.0	n/a	3	9	ISIslide	AvoidedLoss	True
105.219	0.25	Control	1.0	0.0	Yes	3.281	0.019	n/a	GoodResponse	0	n/a	n/a	3	10	Cue	Neutral	True
105.469	4.0	Control	1.0	0.0	Yes	3.281	0.0	n/a	GoodResponse	0	n/a	n/a	3	10	Fixation	Neutral	True
109.468	0.3	Control	1.0	0.001	Yes	3.281	-0.001	2.0	GoodResponse	0	0.215	108.683	3	10	Target	Neutral	True
109.683	0.3	Control	1.0	0.001	Yes	3.281	-0.001	2.0	GoodResponse	0	0.215	n/a	3	10	ButtonPress	Neutral	True
109.768	0.4	Control	1.0	n/a	Yes	3.281	n/a	n/a	GoodResponse	0	n/a	n/a	3	10	Blank	Neutral	True
110.167	1.45	Control	1.0	n/a	Yes	3.281	n/a	5.0	GoodResponse	0	0.007	109.174	3	10	Feedback	Neutral	True
111.617	3.281	Control	1.0	n/a	Yes	3.281	n/a	n/a	GoodResponse	0	0.0	n/a	3	10	ISIslide	Neutral	True
114.916	0.25	Lose2	1.0	0.0	Yes	2.734	0.016	n/a	GoodResponse	0	n/a	n/a	3	11	Cue	AvoidedLoss	True
115.166	4.05	Lose2	1.0	0.0	Yes	2.734	0.0	n/a	GoodResponse	0	n/a	n/a	3	11	Fixation	AvoidedLoss	True
119.214	0.29	Lose2	1.0	0.002	Yes	2.734	-0.002	2.0	GoodResponse	0	0.265	118.479	3	11	Target	AvoidedLoss	True
119.479	0.3	Lose2	1.0	0.002	Yes	2.734	-0.002	2.0	GoodResponse	0	0.265	n/a	3	11	ButtonPress	AvoidedLoss	True
119.514	0.41	Lose2	1.0	n/a	Yes	2.734	n/a	n/a	GoodResponse	0	n/a	n/a	3	11	Blank	AvoidedLoss	True
119.914	1.45	Lose2	1.0	n/a	Yes	2.734	n/a	5.0	GoodResponse	0	0.014	118.928	3	11	Feedback	AvoidedLoss	True
121.364	2.734	Lose2	1.0	n/a	Yes	2.734	n/a	n/a	GoodResponse	0	0.0	n/a	3	11	ISIslide	AvoidedLoss	True
124.113	0.25	Control	1.0	0.0	Yes	2.987	0.013	n/a	GoodResponse	0	n/a	n/a	3	12	Cue	Neutral	True
124.363	3.9	Control	1.0	0.0	Yes	2.987	0.0	n/a	GoodResponse	0	n/a	n/a	3	12	Fixation	Neutral	True
128.261	0.28	Control	1.0	0.002	Yes	2.987	-0.002	2.0	GoodResponse	0	0.215	127.476	3	12	Target	Neutral	True
128.476	0.3	Control	1.0	0.002	Yes	2.987	-0.002	2.0	GoodResponse	0	0.215	n/a	3	12	ButtonPress	Neutral	True
128.544	0.42	Control	1.0	n/a	Yes	2.987	n/a	n/a	GoodResponse	0	n/a	n/a	3	12	Blank	Neutral	True
128.961	1.45	Control	1.0	n/a	Yes	2.987	n/a	5.0	GoodResponse	0	0.041	128.002	3	12	Feedback	Neutral	True
130.41	2.987	Control	1.0	n/a	Yes	2.987	n/a	n/a	GoodResponse	0	0.0	n/a	3	12	ISIslide	Neutral	True
133.426	0.25	Control	0.9286	0.0	No	2.774	0.026	n/a	NoResponse	0	n/a	n/a	3	13	Cue	Neutral	True
133.676	4.0	Control	0.9286	0.0	No	2.774	0.0	n/a	NoResponse	0	n/a	n/a	3	13	Fixation	Neutral	True
137.675	0.27	Control	0.9286	0.001	No	2.774	-0.001	2.0	NoResponse	0	0.291	136.966	3	13	Target	Neutral	True
137.958	0.43	Control	0.9286	n/a	No	2.774	n/a	n/a	NoResponse	0	n/a	n/a	3	13	Blank	Neutral	True
137.966	0.3	Control	0.9286	0.001	No	2.774	-0.001	2.0	NoResponse	0	0.291	n/a	3	13	ButtonPress	Neutral	True
138.374	1.45	Control	0.9286	n/a	No	2.774	n/a	5.0	NoResponse	0	0.042	137.416	3	13	Feedback	Neutral	True
139.824	2.774	Control	0.9286	n/a	No	2.774	n/a	n/a	NoResponse	0	0.0	n/a	3	13	ISIslide	Neutral	True
142.623	0.25	Win2	0.9333	0.0	Yes	2.677	0.023	n/a	GoodResponse	1	n/a	n/a	4	14	Cue	Win	True
142.873	4.1	Win2	0.9333	0.0	Yes	2.677	0.0	n/a	GoodResponse	1	n/a	n/a	4	14	Fixation	Win	True
146.971	0.26	Win2	0.9333	0.002	Yes	2.677	-0.002	2.0	GoodResponse	1	0.224	146.195	4	14	Target	Win	True
147.195	0.3	Win2	0.9333	0.002	Yes	2.677	-0.002	2.0	GoodResponse	1	0.224	n/a	4	14	ButtonPress	Win	True
147.238	0.44	Win2	0.9333	n/a	Yes	2.677	n/a	n/a	GoodResponse	1	n/a	n/a	4	14	Blank	Win	True
147.671	1.45	Win2	0.9333	n/a	Yes	2.677	n/a	5.0	GoodResponse	1	0.014	146.685	4	14	Feedback	Win	True
149.121	2.677	Win2	0.9333	n/a	Yes	2.677	n/a	n/a	GoodResponse	1	0.0	n/a	4	14	ISIslide	Win	True
151.82	0.25	Control	0.9375	0.0	Yes	2.98	0.02	n/a	GoodResponse	0	n/a	n/a	4	15	Cue	Neutral	True
152.07	4.0	Control	0.9375	0.0	Yes	2.98	0.0	n/a	GoodResponse	0	n/a	n/a	4	15	Fixation	Neutral	True
156.068	0.25	Control	0.9375	0.002	Yes	2.98	-0.002	2.0	GoodResponse	0	0.235	155.303	4	15	Target	Neutral	True
156.303	0.3	Control	0.9375	0.002	Yes	2.98	-0.002	2.0	GoodResponse	0	0.235	n/a	4	15	ButtonPress	Neutral	True
156.318	0.45	Control	0.9375	n/a	Yes	2.98	n/a	n/a	GoodResponse	0	n/a	n/a	4	15	Blank	Neutral	True
156.768	1.45	Control	0.9375	n/a	Yes	2.98	n/a	5.0	GoodResponse	0	0.038	155.806	4	15	Feedback	Neutral	True
158.217	2.98	Control	0.9375	n/a	Yes	2.98	n/a	n/a	GoodResponse	0	0.0	n/a	4	15	ISIslide	Neutral	True
161.216	0.25	Win2	0.9412	0.001	Yes	2.884	0.016	n/a	GoodResponse	1	n/a	n/a	5	16	Cue	Win	True
161.466	4.0	Win2	0.9412	0.0	Yes	2.884	0.0	n/a	GoodResponse	1	n/a	n/a	5	16	Fixation	Win	True
165.465	0.24	Win2	0.9412	0.001	Yes	2.884	-0.001	2.0	GoodResponse	1	0.202	164.667	5	16	Target	Win	True
165.667	0.3	Win2	0.9412	0.001	Yes	2.884	-0.001	2.0	GoodResponse	1	0.202	n/a	5	16	ButtonPress	Win	True
165.715	0.46	Win2	0.9412	n/a	Yes	2.884	n/a	n/a	GoodResponse	1	n/a	n/a	5	16	Blank	Win	True
166.165	1.45	Win2	0.9412	n/a	Yes	2.884	n/a	5.0	GoodResponse	1	0.007	165.172	5	16	Feedback	Win	True
167.614	2.884	Win2	0.9412	n/a	Yes	2.884	n/a	n/a	GoodResponse	1	0.0	n/a	5	16	ISIslide	Win	True
170.513	0.25	Lose2	0.8889	0.0	No	2.737	0.013	n/a	NoResponse	-1	n/a	n/a	4	17	Cue	Loss	True
170.763	3.95	Lose2	0.8889	0.0	No	2.737	0.0	n/a	NoResponse	-1	n/a	n/a	4	17	Fixation	Loss	True
174.712	0.23	Lose2	0.8889	0.001	No	2.737	-0.001	2.0	NoResponse	-1	0.234	173.946	4	17	Target	Loss	True
174.945	0.47	Lose2	0.8889	n/a	No	2.737	n/a	n/a	NoResponse	-1	n/a	n/a	4	17	Blank	Loss	True
174.946	0.3	Lose2	0.8889	0.001	No	2.737	-0.001	2.0	NoResponse	-1	0.234	n/a	4	17	ButtonPress	Loss	True
175.412	1.45	Lose2	0.8889	n/a	No	2.737	n/a	5.0	NoResponse	-1	0.028	174.44	4	17	Feedback	Loss	True
176.861	2.737	Lose2	0.8889	n/a	No	2.737	n/a	n/a	NoResponse	-1	0.0	n/a	4	17	ISIslide	Loss	True
179.627	0.25	Lose2	0.8421	0.0	No	2.723	0.027	n/a	NoResponse	-1	n/a	n/a	3	18	Cue	Loss	True
179.877	4.05	Lose2	0.8421	0.0	No	2.723	0.0	n/a	NoResponse	-1	n/a	n/a	3	18	Fixation	Loss	True
183.925	0.22	Lose2	0.8421	0.002	No	2.723	-0.002	2.0	NoResponse	-1	0.246	183.171	3	18	Target	Loss	True
184.159	0.48	Lose2	0.8421	n/a	No	2.723	n/a	n/a	NoResponse	-1	n/a	n/a	3	18	Blank	Loss	True
184.171	0.3	Lose2	0.8421	0.002	No	2.723	-0.002	2.0	NoResponse	-1	0.246	n/a	3	18	ButtonPress	Loss	True
184.625	1.45	Lose2	0.8421	n/a	No	2.723	n/a	5.0	NoResponse	-1	0.035	183.66	3	18	Feedback	Loss	True
186.075	2.723	Lose2	0.8421	n/a	No	2.723	n/a	n/a	NoResponse	-1	0.0	n/a	3	18	ISIslide	Loss	True
188.824	0.25	Control	0.8	0.0	No	2.926	0.024	n/a	PrematurePress	0	n/a	n/a	3	19	Cue	Neutral	False
189.073	3.95	Control	0.8	0.001	No	2.926	-0.001	2.0	PrematurePress	0	1.875	189.948	3	19	Fixation	Neutral	False
190.948	0.3	Control	0.8	0.001	No	2.926	-0.001	2.0	PrematurePress	0	1.875	n/a	3	19	ButtonPress	Neutral	False
193.022	0.21	Control	0.8	0.002	No	2.926	-0.002	2.0	PrematurePress	0	0.009	192.031	3	19	Target	Neutral	False
193.031	0.3	Control	0.8	0.002	No	2.926	-0.002	2.0	PrematurePress	0	0.009	n/a	3	19	ButtonPress	Neutral	False
193.239	0.49	Control	0.8	n/a	No	2.926	n/a	n/a	PrematurePress	0	n/a	n/a	3	19	Blank	Neutral	False
193.722	1.45	Control	0.8	n/a	No	2.926	n/a	5.0	PrematurePress	0	0.011	192.733	3	19	Feedback	Neutral	False
195.171	2.926	Control	0.8	n/a	No	2.926	n/a	2.0	PrematurePress	0	0.05	n/a	3	19	ISIslide	Neutral	False
198.104	0.25	Control	0.7619	0.0	No	2.646	0.004	n/a	PrematurePress	0	n/a	n/a	3	20	Cue	Neutral	False
198.354	4.05	Control	0.7619	0.0	No	2.646	0.0	2.0	PrematurePress	0	1.492	198.846	3	20	Fixation	Neutral	False
199.846	0.3	Control	0.7619	0.0	No	2.646	0.0	2.0	PrematurePress	0	1.492	n/a	3	20	ButtonPress	Neutral	False
202.402	0.2	Control	0.7619	0.002	No	2.646	-0.002	2.0	PrematurePress	0	0.079	201.481	3	20	Target	Neutral	False
202.481	0.3	Control	0.7619	0.002	No	2.646	-0.002	2.0	PrematurePress	0	0.079	n/a	3	20	ButtonPress	Neutral	False
202.602	0.5	Control	0.7619	n/a	No	2.646	n/a	n/a	PrematurePress	0	n/a	n/a	3	20	Blank	Neutral	False
203.102	1.45	Control	0.7619	n/a	No	2.646	n/a	5.0	PrematurePress	0	0.046	202.148	3	20	Feedback	Neutral	False
204.551	2.646	Control	0.7619	n/a	No	2.646	n/a	n/a	PrematurePress	0	0.0	n/a	3	20	ISIslide	Neutral	False
207.217	0.25	Control	0.7273000000000001	0.0	No	2.783	0.017	n/a	NoResponse	0	n/a	n/a	3	21	Cue	Neutral	False
207.467	4.1	Control	0.7273000000000001	0.0	No	2.783	0.0	2.0	NoResponse	0	1.807	208.274	3	21	Fixation	Neutral	False
209.274	0.3	Control	0.7273000000000001	0.0	No	2.783	0.0	2.0	NoResponse	0	1.807	n/a	3	21	ButtonPress	Neutral	False
211.566	0.19	Control	0.7273000000000001	0.001	No	2.783	-0.001	2.0	NoResponse	0	0.219	210.785	3	21	Target	Neutral	False
211.766	0.51	Control	0.7273000000000001	n/a	No	2.783	n/a	n/a	NoResponse	0	n/a	n/a	3	21	Blank	Neutral	False
211.785	0.3	Control	0.7273000000000001	0.001	No	2.783	-0.001	2.0	NoResponse	0	0.219	n/a	3	21	ButtonPress	Neutral	False
212.265	1.45	Control	0.7273000000000001	n/a	No	2.783	n/a	5.0	NoResponse	0	0.006	211.271	3	21	Feedback	Neutral	False
213.715	2.783	Control	0.7273000000000001	n/a	No	2.783	n/a	n/a	NoResponse	0	0.0	n/a	3	21	ISIslide	Neutral	False
216.514	0.25	Control	0.6957	0.0	No	2.786	0.014	n/a	PrematurePress	0	n/a	n/a	3	22	Cue	Neutral	False
216.764	4.0	Control	0.6957	0.0	No	2.786	0.0	2.0	PrematurePress	0	3.281	219.045	3	22	Fixation	Neutral	False
220.045	0.3	Control	0.6957	0.0	No	2.786	0.0	2.0	PrematurePress	0	3.281	n/a	3	22	ButtonPress	Neutral	False
220.762	0.18	Control	0.6957	0.002	No	2.786	-0.002	2.0	PrematurePress	0	0.079	219.841	3	22	Target	Neutral	False
220.841	0.3	Control	0.6957	0.002	No	2.786	-0.002	2.0	PrematurePress	0	0.079	n/a	3	22	ButtonPress	Neutral	False
220.946	0.52	Control	0.6957	n/a	No	2.786	n/a	n/a	PrematurePress	0	n/a	n/a	3	22	Blank	Neutral	False
221.462	1.45	Control	0.6957	n/a	No	2.786	n/a	5.0	PrematurePress	0	0.027	220.489	3	22	Feedback	Neutral	False
222.912	2.786	Control	0.6957	n/a	No	2.786	n/a	n/a	PrematurePress	0	0.0	n/a	3	22	ISIslide	Neutral	False
225.727	0.25	Control	0.6667000000000001	0.001	No	2.773	0.027	n/a	NoResponse	0	n/a	n/a	3	23	Cue	Neutral	False
225.977	3.9	Control	0.6667000000000001	0.0	No	2.773	0.0	2.0	NoResponse	0	1.149	226.126	3	23	Fixation	Neutral	False
227.126	0.3	Control	0.6667000000000001	0.0	No	2.773	0.0	2.0	NoResponse	0	1.149	n/a	3	23	ButtonPress	Neutral	False
229.876	0.17	Control	0.6667000000000001	0.001	No	2.773	-0.001	2.0	NoResponse	0	0.181	229.057	3	23	Target	Neutral	False
230.043	0.53	Control	0.6667000000000001	n/a	No	2.773	n/a	n/a	NoResponse	0	n/a	n/a	3	23	Blank	Neutral	False
230.057	0.3	Control	0.6667000000000001	0.001	No	2.773	-0.001	2.0	NoResponse	0	0.181	n/a	3	23	ButtonPress	Neutral	False
230.576	1.45	Control	0.6667000000000001	n/a	No	2.773	n/a	5.0	NoResponse	0	0.035	229.611	3	23	Feedback	Neutral	False
232.025	2.773	Control	0.6667000000000001	n/a	No	2.773	n/a	n/a	NoResponse	0	0.0	n/a	3	23	ISIslide	Neutral	False
234.824	0.25	Win2	0.64	0.0	No	3.126	0.024	n/a	PrematurePress	0	n/a	n/a	3	24	Cue	MissedWin	False
235.074	3.95	Win2	0.64	0.0	No	3.126	0.0	2.0	PrematurePress	0	0.409	234.483	3	24	Fixation	MissedWin	False
235.483	0.3	Win2	0.64	0.0	No	3.126	0.0	2.0	PrematurePress	0	0.409	n/a	3	24	ButtonPress	MissedWin	False
239.023	0.16	Win2	0.64	0.001	No	3.126	-0.001	2.0	PrematurePress	0	0.097	238.12	3	24	Target	MissedWin	False
239.12	0.3	Win2	0.64	0.001	No	3.126	-0.001	2.0	PrematurePress	0	0.097	n/a	3	24	ButtonPress	MissedWin	False
239.189	0.54	Win2	0.64	n/a	No	3.126	n/a	n/a	PrematurePress	0	n/a	n/a	3	24	Blank	MissedWin	False
239.723	1.45	Win2	0.64	n/a	No	3.126	n/a	5.0	PrematurePress	0	0.01	238.733	3	24	Feedback	MissedWin	False
241.172	3.126	Win2	0.64	n/a	No	3.126	n/a	n/a	PrematurePress	0	0.0	n/a	3	24	ISIslide	MissedWin	False
244.321	0.25	Win2	0.6154	0.0	No	3.079	0.021	n/a	NoResponse	0	n/a	n/a	3	25	Cue	MissedWin	True
244.571	4.0	Win2	0.6154	0.0	No	3.079	0.0	n/a	NoResponse	0	n/a	n/a	3	25	Fixation	MissedWin	True
248.57	0.17	Win2	0.6154	0.001	No	3.079	-0.001	2.0	NoResponse	0	0.292	247.862	3	25	Target	MissedWin	True
248.753	0.53	Win2	0.6154	n/a	No	3.079	n/a	n/a	NoResponse	0	n/a	n/a	3	25	Blank	MissedWin	True
248.862	0.3	Win2	0.6154	0.001	No	3.079	-0.001	2.0	NoResponse	0	0.292	n/a	3	25	ButtonPress	MissedWin	True
249.269	1.45	Win2	0.6154	n/a	No	3.079	n/a	5.0	NoResponse	0	0.025	248.294	3	25	Feedback	MissedWin	True
250.719	3.079	Win2	0.6154	n/a	No	3.079	n/a	n/a	NoResponse	0	0.0	n/a	3	25	ISIslide	MissedWin	True
253.818	0.25	Win2	0.5926	0.0	No	2.932	0.018	n/a	NoResponse	0	n/a	n/a	3	26	Cue	MissedWin	True
254.068	3.95	Win2	0.5926	0.0	No	2.932	0.0	n/a	NoResponse	0	n/a	n/a	3	26	Fixation	MissedWin	True
258.016	0.18	Win2	0.5926	0.002	No	2.932	-0.002	2.0	NoResponse	0	0.208	257.224	3	26	Target	MissedWin	True
258.2	0.52	Win2	0.5926	n/a	No	2.932	n/a	n/a	NoResponse	0	n/a	n/a	3	26	Blank	MissedWin	True
258.224	0.3	Win2	0.5926	0.002	No	2.932	-0.002	2.0	NoResponse	0	0.208	n/a	3	26	ButtonPress	MissedWin	True
258.716	1.45	Win2	0.5926	n/a	No	2.932	n/a	5.0	NoResponse	0	0.041	257.757	3	26	Feedback	MissedWin	True
260.166	2.932	Win2	0.5926	n/a	No	2.932	n/a	n/a	NoResponse	0	0.0	n/a	3	26	ISIslide	MissedWin	True
263.115	0.25	Lose2	0.5714	0.0	No	2.835	0.015	n/a	NoResponse	-1	n/a	n/a	2	27	Cue	Loss	True
263.364	4.05	Lose2	0.5714	0.001	No	2.835	-0.001	n/a	NoResponse	-1	n/a	n/a	2	27	Fixation	Loss	True
267.413	0.19	Lose2	0.5714	0.002	No	2.835	-0.002	2.0	NoResponse	-1	0.207	266.62	2	27	Target	Loss	True
267.613	0.51	Lose2	0.5714	n/a	No	2.835	n/a	n/a	NoResponse	-1	n/a	n/a	2	27	Blank	Loss	True
267.62	0.3	Lose2	0.5714	0.002	No	2.835	-0.002	2.0	NoResponse	-1	0.207	n/a	2	27	ButtonPress	Loss	True
268.113	1.45	Lose2	0.5714	n/a	No	2.835	n/a	5.0	NoResponse	-1	0.01	267.123	2	27	Feedback	Loss	True
269.562	2.835	Lose2	0.5714	n/a	No	2.835	n/a	n/a	NoResponse	-1	0.0	n/a	2	27	ISIslide	Loss	True
272.411	0.25	Control	0.5517	0.0	No	2.839	0.011	n/a	NoResponse	0	n/a	n/a	2	28	Cue	Neutral	False
272.661	4.05	Control	0.5517	0.0	No	2.839	0.0	2.0	NoResponse	0	3.679	275.34	2	28	Fixation	Neutral	False
276.34	0.3	Control	0.5517	0.0	No	2.839	0.0	2.0	NoResponse	0	3.679	n/a	2	28	ButtonPress	Neutral	False
276.71	0.2	Control	0.5517	0.001	No	2.839	-0.001	2.0	NoResponse	0	0.216	275.926	2	28	Target	Neutral	False
276.91	0.5	Control	0.5517	n/a	No	2.839	n/a	n/a	NoResponse	0	n/a	n/a	2	28	Blank	Neutral	False
276.926	0.3	Control	0.5517	0.001	No	2.839	-0.001	2.0	NoResponse	0	0.216	n/a	2	28	ButtonPress	Neutral	False
277.41	1.45	Control	0.5517	n/a	No	2.839	n/a	5.0	NoResponse	0	0.03	276.44	2	28	Feedback	Neutral	False
278.859	2.839	Control	0.5517	n/a	No	2.839	n/a	n/a	NoResponse	0	0.0	n/a	2	28	ISIslide	Neutral	False
281.725	0.25	Lose2	0.5333	0.0	No	2.825	0.025	n/a	NoResponse	-1	n/a	n/a	1	29	Cue	Loss	True
281.975	3.95	Lose2	0.5333	0.0	No	2.825	0.0	n/a	NoResponse	-1	n/a	n/a	1	29	Fixation	Loss	True
285.923	0.21	Lose2	0.5333	0.002	No	2.825	-0.002	2.0	NoResponse	-1	0.225	285.148	1	29	Target	Loss	True
286.14	0.49	Lose2	0.5333	n/a	No	2.825	n/a	n/a	NoResponse	-1	n/a	n/a	1	29	Blank	Loss	True
286.148	0.3	Lose2	0.5333	0.002	No	2.825	-0.002	2.0	NoResponse	-1	0.225	n/a	1	29	ButtonPress	Loss	True
286.623	1.45	Lose2	0.5333	n/a	No	2.825	n/a	5.0	NoResponse	-1	0.036	285.659	1	29	Feedback	Loss	True
288.073	2.825	Lose2	0.5333	n/a	No	2.825	n/a	n/a	NoResponse	-1	0.0	n/a	1	29	ISIslide	Loss	True
290.922	0.25	Win2	0.5161	0.0	No	2.778	0.022	n/a	NoResponse	0	n/a	n/a	1	30	Cue	MissedWin	False
291.171	3.9	Win2	0.5161	0.001	No	2.778	-0.001	n/a	NoResponse	0	n/a	n/a	1	30	Fixation	MissedWin	False
295.07	0.22	Win2	0.5161	0.002	No	2.778	-0.002	n/a	NoResponse	0	n/a	n/a	1	30	Target	MissedWin	False
295.303	0.48	Win2	0.5161	n/a	No	2.778	n/a	n/a	NoResponse	0	n/a	n/a	1	30	Blank	MissedWin	False
295.77	1.45	Win2	0.5161	n/a	No	2.778	n/a	5.0	NoResponse	0	0.011	294.781	1	30	Feedback	MissedWin	False
297.219	2.778	Win2	0.5161	n/a	No	2.778	n/a	n/a	NoResponse	0	0.0	n/a	1	30	ISIslide	MissedWin	False
300.018	0.25	Lose2	0.5312	0.001	Yes	2.832	0.018	n/a	GoodResponse	0	n/a	n/a	1	31	Cue	AvoidedLoss	True
300.268	4.05	Lose2	0.5312	0.0	Yes	2.832	0.0	n/a	GoodResponse	0	n/a	n/a	1	31	Fixation	AvoidedLoss	True
304.317	0.23	Lose2	0.5312	0.001	Yes	2.832	-0.001	2.0	GoodResponse	0	0.166	303.483	1	31	Target	AvoidedLoss	True
304.483	0.3	Lose2	0.5312	0.001	Yes	2.832	-0.001	2.0	GoodResponse	0	0.166	n/a	1	31	ButtonPress	AvoidedLoss	True
304.55	0.47	Lose2	0.5312	n/a	Yes	2.832	n/a	n/a	GoodResponse	0	n/a	n/a	1	31	Blank	AvoidedLoss	True
305.017	1.45	Lose2	0.5312	n/a	Yes	2.832	n/a	5.0	GoodResponse	0	0.033	304.05	1	31	Feedback	AvoidedLoss	True
306.466	2.832	Lose2	0.5312	n/a	Yes	2.832	n/a	n/a	GoodResponse	0	0.0	n/a	1	31	ISIslide	AvoidedLoss	True
309.315	0.25	Lose2	0.5455	0.0	Yes	2.635	0.015	n/a	GoodResponse	0	n/a	n/a	1	32	Cue	AvoidedLoss	True
309.565	4.15	Lose2	0.5455	0.0	Yes	2.635	0.0	n/a	GoodResponse	0	n/a	n/a	1	32	Fixation	AvoidedLoss	True
313.714	0.24	Lose2	0.5455	0.001	Yes	2.635	-0.001	2.0	GoodResponse	0	0.139	312.853	1	32	Target	AvoidedLoss	True
313.853	0.3	Lose2	0.5455	0.001	Yes	2.635	-0.001	2.0	GoodResponse	0	0.139	n/a	1	32	ButtonPress	AvoidedLoss	True
313.964	0.46	Lose2	0.5455	n/a	Yes	2.635	n/a	n/a	GoodResponse	0	n/a	n/a	1	32	Blank	AvoidedLoss	True
314.413	1.45	Lose2	0.5455	n/a	Yes	2.635	n/a	5.0	GoodResponse	0	0.006	313.419	1	32	Feedback	AvoidedLoss	True
315.863	2.635	Lose2	0.5455	n/a	Yes	2.635	n/a	n/a	GoodResponse	0	0.0	n/a	1	32	ISIslide	AvoidedLoss	True
318.529	0.25	Win2	0.5588000000000001	0.0	Yes	2.671	0.029	n/a	GoodResponse	1	n/a	n/a	2	33	Cue	Win	True
318.779	4.0	Win2	0.5588000000000001	0.0	Yes	2.671	0.0	n/a	GoodResponse	1	n/a	n/a	2	33	Fixation	Win	True
322.777	0.25	Win2	0.5588000000000001	0.002	Yes	2.671	-0.002	2.0	GoodResponse	1	0.192	321.969	2	33	Target	Win	True
322.969	0.3	Win2	0.5588000000000001	0.002	Yes	2.671	-0.002	2.0	GoodResponse	1	0.192	n/a	2	33	ButtonPress	Win	True
323.027	0.45	Win2	0.5588000000000001	n/a	Yes	2.671	n/a	n/a	GoodResponse	1	n/a	n/a	2	33	Blank	Win	True
323.477	1.45	Win2	0.5588000000000001	n/a	Yes	2.671	n/a	5.0	GoodResponse	1	0.012	322.489	2	33	Feedback	Win	True
324.926	2.671	Win2	0.5588000000000001	n/a	Yes	2.671	n/a	n/a	GoodResponse	1	0.0	n/a	2	33	ISIslide	Win	True
327.626	0.25	Lose2	0.5714	0.0	Yes	2.624	0.026	n/a	GoodResponse	0	n/a	n/a	2	34	Cue	AvoidedLoss	True
327.875	4.05	Lose2	0.5714	0.001	Yes	2.624	-0.001	n/a	GoodResponse	0	n/a	n/a	2	34	Fixation	AvoidedLoss	True
331.924	0.26	Lose2	0.5714	0.002	Yes	2.624	-0.002	2.0	GoodResponse	0	0.224	331.148	2	34	Target	AvoidedLoss	True
332.148	0.3	Lose2	0.5714	0.002	Yes	2.624	-0.002	2.0	GoodResponse	0	0.224	n/a	2	34	ButtonPress	AvoidedLoss	True
332.191	0.44	Lose2	0.5714	n/a	Yes	2.624	n/a	n/a	GoodResponse	0	n/a	n/a	2	34	Blank	AvoidedLoss	True
332.624	1.45	Lose2	0.5714	n/a	Yes	2.624	n/a	5.0	GoodResponse	0	0.035	331.659	2	34	Feedback	AvoidedLoss	True
334.073	2.624	Lose2	0.5714	n/a	Yes	2.624	n/a	n/a	GoodResponse	0	0.0	n/a	2	34	ISIslide	AvoidedLoss	True
336.722	0.25	Lose2	0.5556	0.0	No	2.678	0.022	n/a	NoResponse	-1	n/a	n/a	1	35	Cue	Loss	True
336.972	4.0	Lose2	0.5556	0.0	No	2.678	0.0	2.0	NoResponse	-1	3.933	339.905	1	35	Fixation	Loss	True
340.905	0.3	Lose2	0.5556	0.0	No	2.678	0.0	2.0	NoResponse	-1	3.933	n/a	1	35	ButtonPress	Loss	True
340.971	0.27	Lose2	0.5556	0.001	No	2.678	-0.001	n/a	NoResponse	-1	n/a	n/a	1	35	Target	Loss	True
341.238	0.43	Lose2	0.5556	n/a	No	2.678	n/a	n/a	NoResponse	-1	n/a	n/a	1	35	Blank	Loss	True
341.671	1.45	Lose2	0.5556	n/a	No	2.678	n/a	5.0	NoResponse	-1	0.012	340.683	1	35	Feedback	Loss	True
343.12	2.678	Lose2	0.5556	n/a	No	2.678	n/a	n/a	NoResponse	-1	0.0	n/a	1	35	ISIslide	Loss	True
345.819	0.25	Control	0.5405	0.0	No	2.681	0.019	n/a	NoResponse	0	n/a	n/a	1	36	Cue	Neutral	True
346.069	4.0	Control	0.5405	0.0	No	2.681	0.0	n/a	NoResponse	0	n/a	n/a	1	36	Fixation	Neutral	True
350.068	0.28	Control	0.5405	0.001	No	2.681	-0.001	2.0	NoResponse	0	0.311	349.379	1	36	Target	Neutral	True
350.351	0.42	Control	0.5405	n/a	No	2.681	n/a	n/a	NoResponse	0	n/a	n/a	1	36	Blank	Neutral	True
350.379	0.3	Control	0.5405	0.001	No	2.681	-0.001	2.0	NoResponse	0	0.311	n/a	1	36	ButtonPress	Neutral	True
350.768	1.45	Control	0.5405	n/a	No	2.681	n/a	5.0	NoResponse	0	0.037	349.805	1	36	Feedback	Neutral	True
352.217	2.681	Control	0.5405	n/a	No	2.681	n/a	n/a	NoResponse	0	0.0	n/a	1	36	ISIslide	Neutral	True
354.916	0.25	Win2	0.5526	0.0	Yes	2.884	0.016	n/a	GoodResponse	1	n/a	n/a	2	37	Cue	Win	True
355.166	4.0	Win2	0.5526	0.0	Yes	2.884	0.0	n/a	GoodResponse	1	n/a	n/a	2	37	Fixation	Win	True
359.165	0.29	Win2	0.5526	0.001	Yes	2.884	-0.001	2.0	GoodResponse	1	0.222	358.387	2	37	Target	Win	True
359.387	0.3	Win2	0.5526	0.001	Yes	2.884	-0.001	2.0	GoodResponse	1	0.222	n/a	2	37	ButtonPress	Win	True
359.465	0.41	Win2	0.5526	n/a	Yes	2.884	n/a	n/a	GoodResponse	1	n/a	n/a	2	37	Blank	Win	True
359.864	1.45	Win2	0.5526	n/a	Yes	2.884	n/a	5.0	GoodResponse	1	0.015	358.879	2	37	Feedback	Win	True
361.314	2.884	Win2	0.5526	n/a	Yes	2.884	n/a	n/a	GoodResponse	1	0.0	n/a	2	37	ISIslide	Win	True
364.213	0.25	Lose2	0.5640999999999999	0.0	Yes	2.837	0.013	n/a	GoodResponse	0	n/a	n/a	2	38	Cue	AvoidedLoss	True
364.463	3.95	Lose2	0.5640999999999999	0.0	Yes	2.837	0.0	n/a	GoodResponse	0	n/a	n/a	2	38	Fixation	AvoidedLoss	True
368.411	0.3	Lose2	0.5640999999999999	0.002	Yes	2.837	-0.002	2.0	GoodResponse	0	0.214	367.625	2	38	Target	AvoidedLoss	True
368.625	0.3	Lose2	0.5640999999999999	0.002	Yes	2.837	-0.002	2.0	GoodResponse	0	0.214	n/a	2	38	ButtonPress	AvoidedLoss	True
368.711	0.4	Lose2	0.5640999999999999	n/a	Yes	2.837	n/a	n/a	GoodResponse	0	n/a	n/a	2	38	Blank	AvoidedLoss	True
369.111	1.45	Lose2	0.5640999999999999	n/a	Yes	2.837	n/a	5.0	GoodResponse	0	0.036	368.147	2	38	Feedback	AvoidedLoss	True
370.561	2.837	Lose2	0.5640999999999999	n/a	Yes	2.837	n/a	n/a	GoodResponse	0	0.0	n/a	2	38	ISIslide	AvoidedLoss	True
373.426	0.25	Win2	0.575	0.0	Yes	2.974	0.026	n/a	GoodResponse	1	n/a	n/a	3	39	Cue	Win	True
373.676	4.1	Win2	0.575	0.0	Yes	2.974	0.0	n/a	GoodResponse	1	n/a	n/a	3	39	Fixation	Win	True
377.775	0.31	Win2	0.575	0.001	Yes	2.974	-0.001	2.0	GoodResponse	1	0.258	377.033	3	39	Target	Win	True
378.033	0.3	Win2	0.575	0.001	Yes	2.974	-0.001	2.0	GoodResponse	1	0.258	n/a	3	39	ButtonPress	Win	True
378.091	0.39	Win2	0.575	n/a	Yes	2.974	n/a	n/a	GoodResponse	1	n/a	n/a	3	39	Blank	Win	True
378.475	1.45	Win2	0.575	n/a	Yes	2.974	n/a	5.0	GoodResponse	1	0.038	377.513	3	39	Feedback	Win	True
379.924	2.974	Win2	0.575	n/a	Yes	2.974	n/a	n/a	GoodResponse	1	0.0	n/a	3	39	ISIslide	Win	True
382.923	0.25	Win2	0.5854	0.0	Yes	2.727	0.023	n/a	GoodResponse	1	n/a	n/a	4	40	Cue	Win	True
383.173	3.95	Win2	0.5854	0.0	Yes	2.727	0.0	n/a	GoodResponse	1	n/a	n/a	4	40	Fixation	Win	True
387.122	0.32	Win2	0.5854	0.001	Yes	2.727	-0.001	2.0	GoodResponse	1	0.205	386.327	4	40	Target	Win	True
387.327	0.3	Win2	0.5854	0.001	Yes	2.727	-0.001	2.0	GoodResponse	1	0.205	n/a	4	40	ButtonPress	Win	True
387.455	0.38	Win2	0.5854	n/a	Yes	2.727	n/a	n/a	GoodResponse	1	n/a	n/a	4	40	Blank	Win	True
387.821	1.45	Win2	0.5854	n/a	Yes	2.727	n/a	5.0	GoodResponse	1	0.009	386.83	4	40	Feedback	Win	True
389.271	2.727	Win2	0.5854	n/a	Yes	2.727	n/a	n/a	GoodResponse	1	0.0	n/a	4	40	ISIslide	Win	True
392.02	0.25	Win2	0.5952000000000001	0.0	Yes	2.78	0.02	n/a	GoodResponse	1	n/a	n/a	5	41	Cue	Win	True
392.27	3.9	Win2	0.5952000000000001	0.0	Yes	2.78	0.0	n/a	GoodResponse	1	n/a	n/a	5	41	Fixation	Win	True
396.169	0.33	Win2	0.5952000000000001	0.001	Yes	2.78	-0.001	2.0	GoodResponse	1	0.285	395.454	5	41	Target	Win	True
396.454	0.3	Win2	0.5952000000000001	0.001	Yes	2.78	-0.001	2.0	GoodResponse	1	0.285	n/a	5	41	ButtonPress	Win	True
396.502	0.37	Win2	0.5952000000000001	n/a	Yes	2.78	n/a	n/a	GoodResponse	1	n/a	n/a	5	41	Blank	Win	True
396.868	1.45	Win2	0.5952000000000001	n/a	Yes	2.78	n/a	5.0	GoodResponse	1	0.034	395.902	5	41	Feedback	Win	True
398.318	2.78	Win2	0.5952000000000001	n/a	Yes	2.78	n/a	n/a	GoodResponse	1	0.0	n/a	5	41	ISIslide	Win	True
401.117	0.25	Control	0.6047	0.0	Yes	2.933	0.017	n/a	GoodResponse	0	n/a	n/a	5	42	Cue	Neutral	True
401.367	3.85	Control	0.6047	0.0	Yes	2.933	0.0	n/a	GoodResponse	0	n/a	n/a	5	42	Fixation	Neutral	True
405.215	0.34	Control	0.6047	0.002	Yes	2.933	-0.002	2.0	GoodResponse	0	0.22	404.435	5	42	Target	Neutral	True
405.435	0.3	Control	0.6047	0.002	Yes	2.933	-0.002	2.0	GoodResponse	0	0.22	n/a	5	42	ButtonPress	Neutral	True
405.565	0.36	Control	0.6047	n/a	Yes	2.933	n/a	n/a	GoodResponse	0	n/a	n/a	5	42	Blank	Neutral	True
405.915	1.45	Control	0.6047	n/a	Yes	2.933	n/a	5.0	GoodResponse	0	0.012	404.927	5	42	Feedback	Neutral	True
407.365	2.933	Control	0.6047	n/a	Yes	2.933	n/a	n/a	GoodResponse	0	0.0	n/a	5	42	ISIslide	Neutral	True
410.314	0.25	Win2	0.6136	0.0	Yes	3.186	0.014	n/a	GoodResponse	1	n/a	n/a	6	43	Cue	Win	True
410.564	4.0	Win2	0.6136	0.0	Yes	3.186	0.0	n/a	GoodResponse	1	n/a	n/a	6	43	Fixation	Win	True
414.562	0.35	Win2	0.6136	0.002	Yes	3.186	-0.002	2.0	GoodResponse	1	0.223	413.785	6	43	Target	Win	True
414.785	0.3	Win2	0.6136	0.002	Yes	3.186	-0.002	2.0	GoodResponse	1	0.223	n/a	6	43	ButtonPress	Win	True
414.912	0.35	Win2	0.6136	n/a	Yes	3.186	n/a	n/a	GoodResponse	1	n/a	n/a	6	43	Blank	Win	True
415.262	1.45	Win2	0.6136	n/a	Yes	3.186	n/a	5.0	GoodResponse	1	0.031	414.293	6	43	Feedback	Win	True
416.711	3.186	Win2	0.6136	n/a	Yes	3.186	n/a	n/a	GoodResponse	1	0.0	n/a	6	43	ISIslide	Win	True
419.927	0.25	Win2	0.6222	0.0	Yes	2.973	0.027	n/a	GoodResponse	1	n/a	n/a	7	44	Cue	Win	True
420.177	4.0	Win2	0.6222	0.0	Yes	2.973	0.0	n/a	GoodResponse	1	n/a	n/a	7	44	Fixation	Win	True
424.175	0.36	Win2	0.6222	0.002	Yes	2.973	-0.002	2.0	GoodResponse	1	0.305	423.48	7	44	Target	Win	True
424.48	0.3	Win2	0.6222	0.002	Yes	2.973	-0.002	2.0	GoodResponse	1	0.305	n/a	7	44	ButtonPress	Win	True
424.542	0.34	Win2	0.6222	n/a	Yes	2.973	n/a	n/a	GoodResponse	1	n/a	n/a	7	44	Blank	Win	True
424.875	1.45	Win2	0.6222	n/a	Yes	2.973	n/a	5.0	GoodResponse	1	0.028	423.903	7	44	Feedback	Win	True
426.325	2.973	Win2	0.6222	n/a	Yes	2.973	n/a	n/a	GoodResponse	1	0.0	n/a	7	44	ISIslide	Win	True
429.324	0.25	Control	0.6304	0.0	Yes	2.876	0.024	n/a	GoodResponse	0	n/a	n/a	7	45	Cue	Neutral	True
429.574	4.1	Control	0.6304	0.0	Yes	2.876	0.0	n/a	GoodResponse	0	n/a	n/a	7	45	Fixation	Neutral	True
433.672	0.37	Control	0.6304	0.002	Yes	2.876	-0.002	2.0	GoodResponse	0	0.223	432.895	7	45	Target	Neutral	True
433.895	0.3	Control	0.6304	0.002	Yes	2.876	-0.002	2.0	GoodResponse	0	0.223	n/a	7	45	ButtonPress	Neutral	True
434.055	0.33	Control	0.6304	n/a	Yes	2.876	n/a	n/a	GoodResponse	0	n/a	n/a	7	45	Blank	Neutral	True
434.372	1.45	Control	0.6304	n/a	Yes	2.876	n/a	5.0	GoodResponse	0	0.043	433.415	7	45	Feedback	Neutral	True
435.821	2.876	Control	0.6304	n/a	Yes	2.876	n/a	n/a	GoodResponse	0	0.0	n/a	7	45	ISIslide	Neutral	True
438.72	0.25	Lose2	0.6383	0.001	Yes	3.38	0.02	n/a	GoodResponse	0	n/a	n/a	7	46	Cue	AvoidedLoss	True
438.97	4.0	Lose2	0.6383	0.0	Yes	3.38	0.0	n/a	GoodResponse	0	n/a	n/a	7	46	Fixation	AvoidedLoss	True
442.969	0.38	Lose2	0.6383	0.001	Yes	3.38	-0.001	2.0	GoodResponse	0	0.204	442.173	7	46	Target	AvoidedLoss	True
443.173	0.3	Lose2	0.6383	0.001	Yes	3.38	-0.001	2.0	GoodResponse	0	0.204	n/a	7	46	ButtonPress	AvoidedLoss	True
443.352	0.32	Lose2	0.6383	n/a	Yes	3.38	n/a	n/a	GoodResponse	0	n/a	n/a	7	46	Blank	AvoidedLoss	True
443.669	1.45	Lose2	0.6383	n/a	Yes	3.38	n/a	5.0	GoodResponse	0	0.014	442.683	7	46	Feedback	AvoidedLoss	True
445.118	3.38	Lose2	0.6383	n/a	Yes	3.38	n/a	n/a	GoodResponse	0	0.0	n/a	7	46	ISIslide	AvoidedLoss	True
448.517	0.25	Lose2	0.6457999999999999	0.0	Yes	2.683	0.017	n/a	GoodResponse	0	n/a	n/a	7	47	Cue	AvoidedLoss	True
448.767	4.0	Lose2	0.6457999999999999	0.0	Yes	2.683	0.0	n/a	GoodResponse	0	n/a	n/a	7	47	Fixation	AvoidedLoss	True
452.766	0.39	Lose2	0.6457999999999999	0.001	Yes	2.683	-0.001	2.0	GoodResponse	0	0.241	452.007	7	47	Target	AvoidedLoss	True
453.007	0.3	Lose2	0.6457999999999999	0.001	Yes	2.683	-0.001	2.0	GoodResponse	0	0.241	n/a	7	47	ButtonPress	AvoidedLoss	True
453.165	0.31	Lose2	0.6457999999999999	n/a	Yes	2.683	n/a	n/a	GoodResponse	0	n/a	n/a	7	47	Blank	AvoidedLoss	True
453.465	1.45	Lose2	0.6457999999999999	n/a	Yes	2.683	n/a	5.0	GoodResponse	0	0.022	452.487	7	47	Feedback	AvoidedLoss	True
454.915	2.683	Lose2	0.6457999999999999	n/a	Yes	2.683	n/a	n/a	GoodResponse	0	0.0	n/a	7	47	ISIslide	AvoidedLoss	True
457.614	0.25	Lose2	0.6531	0.0	Yes	3.036	0.014	n/a	GoodResponse	0	n/a	n/a	7	48	Cue	AvoidedLoss	True
457.864	3.95	Lose2	0.6531	0.0	Yes	3.036	0.0	n/a	GoodResponse	0	n/a	n/a	7	48	Fixation	AvoidedLoss	True
461.812	0.4	Lose2	0.6531	0.002	Yes	3.036	-0.002	2.0	GoodResponse	0	0.239	461.051	7	48	Target	AvoidedLoss	True
462.051	0.3	Lose2	0.6531	0.002	Yes	3.036	-0.002	2.0	GoodResponse	0	0.239	n/a	7	48	ButtonPress	AvoidedLoss	True
462.212	0.3	Lose2	0.6531	n/a	Yes	3.036	n/a	n/a	GoodResponse	0	n/a	n/a	7	48	Blank	AvoidedLoss	True
462.512	1.45	Lose2	0.6531	n/a	Yes	3.036	n/a	5.0	GoodResponse	0	0.049	461.561	7	48	Feedback	AvoidedLoss	True
463.962	3.036	Lose2	0.6531	n/a	Yes	3.036	n/a	n/a	GoodResponse	0	0.0	n/a	7	48	ISIslide	AvoidedLoss	True
467.027	0.25	Control	0.66	0.0	Yes	2.873	0.027	n/a	GoodResponse	0	n/a	n/a	7	49	Cue	Neutral	True
467.277	4.0	Control	0.66	0.0	Yes	2.873	0.0	n/a	GoodResponse	0	n/a	n/a	7	49	Fixation	Neutral	True
471.276	0.41	Control	0.66	0.001	Yes	2.873	-0.001	2.0	GoodResponse	0	0.23	470.506	7	49	Target	Neutral	True
471.506	0.3	Control	0.66	0.001	Yes	2.873	-0.001	2.0	GoodResponse	0	0.23	n/a	7	49	ButtonPress	Neutral	True
471.692	0.29	Control	0.66	n/a	Yes	2.873	n/a	n/a	GoodResponse	0	n/a	n/a	7	49	Blank	Neutral	True
471.976	1.45	Control	0.66	n/a	Yes	2.873	n/a	5.0	GoodResponse	0	0.0	470.976	7	49	Feedback	Neutral	True
473.425	2.873	Control	0.66	n/a	Yes	2.873	n/a	n/a	GoodResponse	0	0.0	n/a	7	49	ISIslide	Neutral	True
476.324	0.25	Control	0.6667000000000001	0.0	Yes	2.776	0.024	n/a	GoodResponse	0	n/a	n/a	7	50	Cue	Neutral	True
476.574	4.0	Control	0.6667000000000001	0.0	Yes	2.776	0.0	n/a	GoodResponse	0	n/a	n/a	7	50	Fixation	Neutral	True
480.573	0.41	Control	0.6667000000000001	0.001	Yes	2.776	-0.001	2.0	GoodResponse	0	0.196	479.769	7	50	Target	Neutral	True
480.769	0.3	Control	0.6667000000000001	0.001	Yes	2.776	-0.001	2.0	GoodResponse	0	0.196	n/a	7	50	ButtonPress	Neutral	True
480.989	0.29	Control	0.6667000000000001	n/a	Yes	2.776	n/a	n/a	GoodResponse	0	n/a	n/a	7	50	Blank	Neutral	True
481.272	1.45	Control	0.6667000000000001	n/a	Yes	2.776	n/a	5.0	GoodResponse	0	0.021	480.293	7	50	Feedback	Neutral	True
482.722	2.776	Control	0.6667000000000001	n/a	Yes	2.776	n/a	n/a	GoodResponse	0	0.0	n/a	7	50	ISIslide	Neutral	True
485.521	0.25	Control	0.6731	0.0	Yes	2.729	0.021	n/a	GoodResponse	0	n/a	n/a	7	51	Cue	Neutral	True
485.771	3.95	Control	0.6731	0.0	Yes	2.729	0.0	n/a	GoodResponse	0	n/a	n/a	7	51	Fixation	Neutral	True
489.72	0.4	Control	0.6731	0.001	Yes	2.729	-0.001	2.0	GoodResponse	0	0.218	488.938	7	51	Target	Neutral	True
489.938	0.3	Control	0.6731	0.001	Yes	2.729	-0.001	2.0	GoodResponse	0	0.218	n/a	7	51	ButtonPress	Neutral	True
490.119	0.3	Control	0.6731	n/a	Yes	2.729	n/a	n/a	GoodResponse	0	n/a	n/a	7	51	Blank	Neutral	True
490.419	1.45	Control	0.6731	n/a	Yes	2.729	n/a	5.0	GoodResponse	0	0.045	489.464	7	51	Feedback	Neutral	True
491.869	2.729	Control	0.6731	n/a	Yes	2.729	n/a	n/a	GoodResponse	0	0.0	n/a	7	51	ISIslide	Neutral	True
494.618	0.25	Control	0.6792	0.0	Yes	2.632	0.018	n/a	GoodResponse	0	n/a	n/a	7	52	Cue	Neutral	True
494.868	4.05	Control	0.6792	0.0	Yes	2.632	0.0	n/a	GoodResponse	0	n/a	n/a	7	52	Fixation	Neutral	True
498.916	0.39	Control	0.6792	0.002	Yes	2.632	-0.002	2.0	GoodResponse	0	0.203	498.119	7	52	Target	Neutral	True
499.119	0.3	Control	0.6792	0.002	Yes	2.632	-0.002	2.0	GoodResponse	0	0.203	n/a	7	52	ButtonPress	Neutral	True
499.316	0.31	Control	0.6792	n/a	Yes	2.632	n/a	n/a	GoodResponse	0	n/a	n/a	7	52	Blank	Neutral	True
499.616	1.45	Control	0.6792	n/a	Yes	2.632	n/a	5.0	GoodResponse	0	0.018	498.634	7	52	Feedback	Neutral	True
501.066	2.632	Control	0.6792	n/a	Yes	2.632	n/a	n/a	GoodResponse	0	0.0	n/a	7	52	ISIslide	Neutral	True
503.715	0.25	Win2	0.6851999999999999	0.0	Yes	2.935	0.015	n/a	GoodResponse	1	n/a	n/a	8	53	Cue	Win	True
503.965	4.05	Win2	0.6851999999999999	0.0	Yes	2.935	0.0	n/a	GoodResponse	1	n/a	n/a	8	53	Fixation	Win	True
508.013	0.38	Win2	0.6851999999999999	0.002	Yes	2.935	-0.002	2.0	GoodResponse	1	0.326	507.339	8	53	Target	Win	True
508.339	0.3	Win2	0.6851999999999999	0.002	Yes	2.935	-0.002	2.0	GoodResponse	1	0.326	n/a	8	53	ButtonPress	Win	True
508.396	0.32	Win2	0.6851999999999999	n/a	Yes	2.935	n/a	n/a	GoodResponse	1	n/a	n/a	8	53	Blank	Win	True
508.713	1.45	Win2	0.6851999999999999	n/a	Yes	2.935	n/a	5.0	GoodResponse	1	0.042	507.755	8	53	Feedback	Win	True
510.162	2.935	Win2	0.6851999999999999	n/a	Yes	2.935	n/a	n/a	GoodResponse	1	0.0	n/a	8	53	ISIslide	Win	True
513.128	0.25	Win2	0.6909000000000001	0.0	Yes	2.722	0.028	n/a	GoodResponse	1	n/a	n/a	9	54	Cue	Win	True
513.378	3.95	Win2	0.6909000000000001	0.0	Yes	2.722	0.0	n/a	GoodResponse	1	n/a	n/a	9	54	Fixation	Win	True
517.327	0.37	Win2	0.6909000000000001	0.001	Yes	2.722	-0.001	2.0	GoodResponse	1	0.217	516.544	9	54	Target	Win	True
517.544	0.3	Win2	0.6909000000000001	0.001	Yes	2.722	-0.001	2.0	GoodResponse	1	0.217	n/a	9	54	ButtonPress	Win	True
517.71	0.33	Win2	0.6909000000000001	n/a	Yes	2.722	n/a	n/a	GoodResponse	1	n/a	n/a	9	54	Blank	Win	True
518.026	1.45	Win2	0.6909000000000001	n/a	Yes	2.722	n/a	5.0	GoodResponse	1	0.047	517.073	9	54	Feedback	Win	True
519.476	2.722	Win2	0.6909000000000001	n/a	Yes	2.722	n/a	n/a	GoodResponse	1	0.0	n/a	9	54	ISIslide	Win	True
522.225	0.25	Control	0.6964	0.0	Yes	3.025	0.025	n/a	GoodResponse	0	n/a	n/a	9	55	Cue	Neutral	True
522.475	3.95	Control	0.6964	0.0	Yes	3.025	0.0	n/a	GoodResponse	0	n/a	n/a	9	55	Fixation	Neutral	True
526.423	0.36	Control	0.6964	0.002	Yes	3.025	-0.002	2.0	GoodResponse	0	0.216	525.639	9	55	Target	Neutral	True
526.639	0.3	Control	0.6964	0.002	Yes	3.025	-0.002	2.0	GoodResponse	0	0.216	n/a	9	55	ButtonPress	Neutral	True
526.79	0.34	Control	0.6964	n/a	Yes	3.025	n/a	n/a	GoodResponse	0	n/a	n/a	9	55	Blank	Neutral	True
527.123	1.45	Control	0.6964	n/a	Yes	3.025	n/a	5.0	GoodResponse	0	0.023	526.146	9	55	Feedback	Neutral	True
528.573	3.025	Control	0.6964	n/a	Yes	3.025	n/a	n/a	GoodResponse	0	0.0	n/a	9	55	ISIslide	Neutral	True
531.622	0.25	Control	0.7018000000000001	0.0	Yes	2.828	0.022	n/a	GoodResponse	0	n/a	n/a	9	56	Cue	Neutral	True
531.872	3.95	Control	0.7018000000000001	0.0	Yes	2.828	0.0	n/a	GoodResponse	0	n/a	n/a	9	56	Fixation	Neutral	True
535.82	0.35	Control	0.7018000000000001	0.002	Yes	2.828	-0.002	2.0	GoodResponse	0	0.208	535.028	9	56	Target	Neutral	True
536.028	0.3	Control	0.7018000000000001	0.002	Yes	2.828	-0.002	2.0	GoodResponse	0	0.208	n/a	9	56	ButtonPress	Neutral	True
536.17	0.35	Control	0.7018000000000001	n/a	Yes	2.828	n/a	n/a	GoodResponse	0	n/a	n/a	9	56	Blank	Neutral	True
536.52	1.45	Control	0.7018000000000001	n/a	Yes	2.828	n/a	5.0	GoodResponse	0	0.041	535.561	9	56	Feedback	Neutral	True
537.969	2.828	Control	0.7018000000000001	n/a	Yes	2.828	n/a	n/a	GoodResponse	0	0.0	n/a	9	56	ISIslide	Neutral	True
540.818	0.25	Control	0.7069	0.001	Yes	3.482	0.018	n/a	GoodResponse	0	n/a	n/a	9	57	Cue	Neutral	True
541.068	4.0	Control	0.7069	0.0	Yes	3.482	0.0	n/a	GoodResponse	0	n/a	n/a	9	57	Fixation	Neutral	True
545.067	0.34	Control	0.7069	0.001	Yes	3.482	-0.001	2.0	GoodResponse	0	0.232	544.299	9	57	Target	Neutral	True
545.299	0.3	Control	0.7069	0.001	Yes	3.482	-0.001	2.0	GoodResponse	0	0.232	n/a	9	57	ButtonPress	Neutral	True
545.417	0.36	Control	0.7069	n/a	Yes	3.482	n/a	n/a	GoodResponse	0	n/a	n/a	9	57	Blank	Neutral	True
545.767	1.45	Control	0.7069	n/a	Yes	3.482	n/a	5.0	GoodResponse	0	0.013	544.78	9	57	Feedback	Neutral	True
547.216	3.482	Control	0.7069	n/a	Yes	3.482	n/a	n/a	GoodResponse	0	0.0	n/a	9	57	ISIslide	Neutral	True
550.715	0.25	Win2	0.7119	0.0	Yes	2.735	0.015	n/a	GoodResponse	1	n/a	n/a	10	58	Cue	Win	True
550.965	4.05	Win2	0.7119	0.0	Yes	2.735	0.0	n/a	GoodResponse	1	n/a	n/a	10	58	Fixation	Win	True
555.014	0.33	Win2	0.7119	0.001	Yes	2.735	-0.001	2.0	GoodResponse	1	0.232	554.246	10	58	Target	Win	True
555.246	0.3	Win2	0.7119	0.001	Yes	2.735	-0.001	2.0	GoodResponse	1	0.232	n/a	10	58	ButtonPress	Win	True
555.347	0.37	Win2	0.7119	n/a	Yes	2.735	n/a	n/a	GoodResponse	1	n/a	n/a	10	58	Blank	Win	True
555.713	1.45	Win2	0.7119	n/a	Yes	2.735	n/a	5.0	GoodResponse	1	0.019	554.732	10	58	Feedback	Win	True
557.163	2.735	Win2	0.7119	n/a	Yes	2.735	n/a	2.0	GoodResponse	1	2.217	n/a	10	58	ISIslide	Win	True
559.912	0.25	Lose2	0.7167	0.0	Yes	2.688	0.012	n/a	GoodResponse	0	n/a	n/a	10	59	Cue	AvoidedLoss	True
560.162	4.0	Lose2	0.7167	0.0	Yes	2.688	0.0	n/a	GoodResponse	0	n/a	n/a	10	59	Fixation	AvoidedLoss	True
564.16	0.32	Lose2	0.7167	0.002	Yes	2.688	-0.002	2.0	GoodResponse	0	0.232	563.392	10	59	Target	AvoidedLoss	True
564.392	0.3	Lose2	0.7167	0.002	Yes	2.688	-0.002	2.0	GoodResponse	0	0.232	n/a	10	59	ButtonPress	AvoidedLoss	True
564.494	0.38	Lose2	0.7167	n/a	Yes	2.688	n/a	n/a	GoodResponse	0	n/a	n/a	10	59	Blank	AvoidedLoss	True
564.86	1.45	Lose2	0.7167	n/a	Yes	2.688	n/a	5.0	GoodResponse	0	0.043	563.903	10	59	Feedback	AvoidedLoss	True
566.31	2.688	Lose2	0.7167	n/a	Yes	2.688	n/a	n/a	GoodResponse	0	0.0	n/a	10	59	ISIslide	AvoidedLoss	True
569.025	0.25	Control	0.7212999999999999	0.001	Yes	2.675	0.025	n/a	GoodResponse	0	n/a	n/a	10	60	Cue	Neutral	True
569.275	4.0	Control	0.7212999999999999	0.0	Yes	2.675	0.0	n/a	GoodResponse	0	n/a	n/a	10	60	Fixation	Neutral	True
573.274	0.31	Control	0.7212999999999999	0.001	Yes	2.675	-0.001	2.0	GoodResponse	0	0.208	572.482	10	60	Target	Neutral	True
573.482	0.3	Control	0.7212999999999999	0.001	Yes	2.675	-0.001	2.0	GoodResponse	0	0.208	n/a	10	60	ButtonPress	Neutral	True
573.591	0.39	Control	0.7212999999999999	n/a	Yes	2.675	n/a	n/a	GoodResponse	0	n/a	n/a	10	60	Blank	Neutral	True
573.974	1.45	Control	0.7212999999999999	n/a	Yes	2.675	n/a	5.0	GoodResponse	0	0.003	572.977	10	60	Feedback	Neutral	True
575.423	2.675	Control	0.7212999999999999	n/a	Yes	2.675	n/a	n/a	GoodResponse	0	0.0	n/a	10	60	ISIslide	Neutral	True
578.122	0.25	Lose2	0.7097	0.0	No	2.978	0.022	n/a	NoResponse	-1	n/a	n/a	9	61	Cue	Loss	True
578.372	4.0	Lose2	0.7097	0.0	No	2.978	0.0	n/a	NoResponse	-1	n/a	n/a	9	61	Fixation	Loss	True
582.371	0.3	Lose2	0.7097	0.001	No	2.978	-0.001	2.0	NoResponse	-1	0.366	581.737	9	61	Target	Loss	True
582.671	0.4	Lose2	0.7097	n/a	No	2.978	n/a	n/a	NoResponse	-1	n/a	n/a	9	61	Blank	Loss	True
582.737	0.3	Lose2	0.7097	0.001	No	2.978	-0.001	2.0	NoResponse	-1	0.366	n/a	9	61	ButtonPress	Loss	True
583.071	1.45	Lose2	0.7097	n/a	No	2.978	n/a	5.0	NoResponse	-1	0.026	582.097	9	61	Feedback	Loss	True
584.52	2.978	Lose2	0.7097	n/a	No	2.978	n/a	n/a	NoResponse	-1	0.0	n/a	9	61	ISIslide	Loss	True
587.519	0.25	Lose2	0.7143	0.0	Yes	2.881	0.019	n/a	GoodResponse	0	n/a	n/a	9	62	Cue	AvoidedLoss	True
587.769	3.9	Lose2	0.7143	0.0	Yes	2.881	0.0	n/a	GoodResponse	0	n/a	n/a	9	62	Fixation	AvoidedLoss	True
591.668	0.29	Lose2	0.7143	0.001	Yes	2.881	-0.001	2.0	GoodResponse	0	0.198	590.866	9	62	Target	AvoidedLoss	True
591.866	0.3	Lose2	0.7143	0.001	Yes	2.881	-0.001	2.0	GoodResponse	0	0.198	n/a	9	62	ButtonPress	AvoidedLoss	True
591.967	0.41	Lose2	0.7143	n/a	Yes	2.881	n/a	n/a	GoodResponse	0	n/a	n/a	9	62	Blank	AvoidedLoss	True
592.367	1.45	Lose2	0.7143	n/a	Yes	2.881	n/a	5.0	GoodResponse	0	0.047	591.414	9	62	Feedback	AvoidedLoss	True
593.817	2.881	Lose2	0.7143	n/a	Yes	2.881	n/a	n/a	GoodResponse	0	0.0	n/a	9	62	ISIslide	AvoidedLoss	True
596.716	0.25	Lose2	0.7031000000000001	0.0	No	2.634	0.016	n/a	NoResponse	-1	n/a	n/a	8	63	Cue	Loss	True
596.966	4.05	Lose2	0.7031000000000001	0.0	No	2.634	0.0	n/a	NoResponse	-1	n/a	n/a	8	63	Fixation	Loss	True
601.014	0.28	Lose2	0.7031000000000001	0.002	No	2.634	-0.002	2.0	NoResponse	-1	0.289	600.303	8	63	Target	Loss	True
601.298	0.42	Lose2	0.7031000000000001	n/a	No	2.634	n/a	n/a	NoResponse	-1	n/a	n/a	8	63	Blank	Loss	True
601.303	0.3	Lose2	0.7031000000000001	0.002	No	2.634	-0.002	2.0	NoResponse	-1	0.289	n/a	8	63	ButtonPress	Loss	True
601.714	1.45	Lose2	0.7031000000000001	n/a	No	2.634	n/a	5.0	NoResponse	-1	0.017	600.731	8	63	Feedback	Loss	True
603.164	2.634	Lose2	0.7031000000000001	n/a	No	2.634	n/a	n/a	NoResponse	-1	0.0	n/a	8	63	ISIslide	Loss	True
605.813	0.25	Win2	0.7077	0.0	Yes	3.137	0.013	n/a	GoodResponse	1	n/a	n/a	9	64	Cue	Win	True
606.063	4.15	Win2	0.7077	0.0	Yes	3.137	0.0	n/a	GoodResponse	1	n/a	n/a	9	64	Fixation	Win	True
610.211	0.27	Win2	0.7077	0.002	Yes	3.137	-0.002	2.0	GoodResponse	1	0.203	609.414	9	64	Target	Win	True
610.414	0.3	Win2	0.7077	0.002	Yes	3.137	-0.002	2.0	GoodResponse	1	0.203	n/a	9	64	ButtonPress	Win	True
610.494	0.43	Win2	0.7077	n/a	Yes	3.137	n/a	n/a	GoodResponse	1	n/a	n/a	9	64	Blank	Win	True
610.911	1.45	Win2	0.7077	n/a	Yes	3.137	n/a	5.0	GoodResponse	1	0.04	609.951	9	64	Feedback	Win	True
612.36	3.137	Win2	0.7077	n/a	Yes	3.137	n/a	n/a	GoodResponse	1	0.0	n/a	9	64	ISIslide	Win	True
615.509	0.25	Control	0.7121	0.0	Yes	2.791	0.009	n/a	GoodResponse	0	n/a	n/a	9	65	Cue	Neutral	True
615.759	4.0	Control	0.7121	0.0	Yes	2.791	0.0	n/a	GoodResponse	0	n/a	n/a	9	65	Fixation	Neutral	True
619.758	0.26	Control	0.7121	0.001	Yes	2.791	-0.001	2.0	GoodResponse	0	0.226	618.984	9	65	Target	Neutral	True
619.984	0.3	Control	0.7121	0.001	Yes	2.791	-0.001	2.0	GoodResponse	0	0.226	n/a	9	65	ButtonPress	Neutral	True
620.024	0.44	Control	0.7121	n/a	Yes	2.791	n/a	n/a	GoodResponse	0	n/a	n/a	9	65	Blank	Neutral	True
620.458	1.45	Control	0.7121	n/a	Yes	2.791	n/a	5.0	GoodResponse	0	0.005	619.463	9	65	Feedback	Neutral	True
621.907	2.791	Control	0.7121	n/a	Yes	2.791	n/a	n/a	GoodResponse	0	0.0	n/a	9	65	ISIslide	Neutral	True
624.723	0.25	Win2	0.7164	0.0	Yes	2.777	0.023	n/a	GoodResponse	1	n/a	n/a	10	66	Cue	Win	True
624.973	3.9	Win2	0.7164	0.0	Yes	2.777	0.0	n/a	GoodResponse	1	n/a	n/a	10	66	Fixation	Win	True
628.871	0.25	Win2	0.7164	0.002	Yes	2.777	-0.002	2.0	GoodResponse	1	0.211	628.082	10	66	Target	Win	True
629.082	0.3	Win2	0.7164	0.002	Yes	2.777	-0.002	2.0	GoodResponse	1	0.211	n/a	10	66	ButtonPress	Win	True
629.121	0.45	Win2	0.7164	n/a	Yes	2.777	n/a	n/a	GoodResponse	1	n/a	n/a	10	66	Blank	Win	True
629.571	1.45	Win2	0.7164	n/a	Yes	2.777	n/a	5.0	GoodResponse	1	0.013	628.584	10	66	Feedback	Win	True
631.021	2.777	Win2	0.7164	n/a	Yes	2.777	n/a	n/a	GoodResponse	1	0.0	n/a	10	66	ISIslide	Win	True
633.82	0.25	Control	0.7206	0.0	Yes	2.73	0.02	n/a	GoodResponse	0	n/a	n/a	10	67	Cue	Neutral	True
634.07	3.95	Control	0.7206	0.0	Yes	2.73	0.0	n/a	GoodResponse	0	n/a	n/a	10	67	Fixation	Neutral	True
638.018	0.24	Control	0.7206	0.002	Yes	2.73	-0.002	2.0	GoodResponse	0	0.199	637.217	10	67	Target	Neutral	True
638.217	0.3	Control	0.7206	0.002	Yes	2.73	-0.002	2.0	GoodResponse	0	0.199	n/a	10	67	ButtonPress	Neutral	True
638.268	0.46	Control	0.7206	n/a	Yes	2.73	n/a	n/a	GoodResponse	0	n/a	n/a	10	67	Blank	Neutral	True
638.718	1.45	Control	0.7206	n/a	Yes	2.73	n/a	5.0	GoodResponse	0	0.037	637.755	10	67	Feedback	Neutral	True
640.167	2.73	Control	0.7206	n/a	Yes	2.73	n/a	n/a	GoodResponse	0	0.0	n/a	10	67	ISIslide	Neutral	True
642.917	0.25	Win2	0.7245999999999999	0.0	Yes	3.083	0.017	n/a	GoodResponse	1	n/a	n/a	11	68	Cue	Win	True
643.166	4.0	Win2	0.7245999999999999	0.001	Yes	3.083	-0.001	n/a	GoodResponse	1	n/a	n/a	11	68	Fixation	Win	True
647.165	0.23	Win2	0.7245999999999999	0.002	Yes	3.083	-0.002	2.0	GoodResponse	1	0.21	646.375	11	68	Target	Win	True
647.375	0.3	Win2	0.7245999999999999	0.002	Yes	3.083	-0.002	2.0	GoodResponse	1	0.21	n/a	11	68	ButtonPress	Win	True
647.398	0.47	Win2	0.7245999999999999	n/a	Yes	3.083	n/a	n/a	GoodResponse	1	n/a	n/a	11	68	Blank	Win	True
647.865	1.45	Win2	0.7245999999999999	n/a	Yes	3.083	n/a	5.0	GoodResponse	1	0.012	646.877	11	68	Feedback	Win	True
649.314	3.083	Win2	0.7245999999999999	n/a	Yes	3.083	n/a	n/a	GoodResponse	1	0.0	n/a	11	68	ISIslide	Win	True
652.413	0.25	Win2	0.7143	0.0	No	3.237	0.013	n/a	NoResponse	0	n/a	n/a	11	69	Cue	MissedWin	False
652.663	3.95	Win2	0.7143	0.0	No	3.237	0.0	n/a	NoResponse	0	n/a	n/a	11	69	Fixation	MissedWin	False
656.612	0.22	Win2	0.7143	0.001	No	3.237	-0.001	n/a	NoResponse	0	n/a	n/a	11	69	Target	MissedWin	False
656.828	0.48	Win2	0.7143	n/a	No	3.237	n/a	n/a	NoResponse	0	n/a	n/a	11	69	Blank	MissedWin	False
657.312	1.45	Win2	0.7143	n/a	No	3.237	n/a	5.0	NoResponse	0	0.029	656.341	11	69	Feedback	MissedWin	False
658.761	3.237	Win2	0.7143	n/a	No	3.237	n/a	n/a	NoResponse	0	0.0	n/a	11	69	ISIslide	MissedWin	False
662.027	0.25	Lose2	0.7182999999999999	0.0	Yes	3.023	0.027	n/a	GoodResponse	0	n/a	n/a	11	70	Cue	AvoidedLoss	True
662.277	4.05	Lose2	0.7182999999999999	0.0	Yes	3.023	0.0	n/a	GoodResponse	0	n/a	n/a	11	70	Fixation	AvoidedLoss	True
666.325	0.21	Lose2	0.7182999999999999	0.002	Yes	3.023	-0.002	2.0	GoodResponse	0	0.206	665.531	11	70	Target	AvoidedLoss	True
666.531	0.3	Lose2	0.7182999999999999	0.002	Yes	3.023	-0.002	2.0	GoodResponse	0	0.206	n/a	11	70	ButtonPress	AvoidedLoss	True
666.542	0.49	Lose2	0.7182999999999999	n/a	Yes	3.023	n/a	n/a	GoodResponse	0	n/a	n/a	11	70	Blank	AvoidedLoss	True
667.025	1.45	Lose2	0.7182999999999999	n/a	Yes	3.023	n/a	5.0	GoodResponse	0	0.023	666.048	11	70	Feedback	AvoidedLoss	True
668.474	3.023	Lose2	0.7182999999999999	n/a	Yes	3.023	n/a	n/a	GoodResponse	0	0.0	n/a	11	70	ISIslide	AvoidedLoss	True
671.523	0.25	Win2	0.7082999999999999	0.0	No	2.727	0.023	n/a	PrematurePress	0	n/a	n/a	11	71	Cue	MissedWin	True
671.773	4.05	Win2	0.7082999999999999	0.0	No	2.727	0.0	n/a	PrematurePress	0	n/a	n/a	11	71	Fixation	MissedWin	True
675.822	0.2	Win2	0.7082999999999999	0.001	No	2.727	-0.001	2.0	PrematurePress	0	0.022	674.844	11	71	Target	MissedWin	True
675.844	0.3	Win2	0.7082999999999999	0.001	No	2.727	-0.001	2.0	PrematurePress	0	0.022	n/a	11	71	ButtonPress	MissedWin	True
676.022	0.5	Win2	0.7082999999999999	n/a	No	2.727	n/a	n/a	PrematurePress	0	n/a	n/a	11	71	Blank	MissedWin	True
676.522	1.45	Win2	0.7082999999999999	n/a	No	2.727	n/a	5.0	PrematurePress	0	0.038	675.56	11	71	Feedback	MissedWin	True
677.971	2.727	Win2	0.7082999999999999	n/a	No	2.727	n/a	n/a	PrematurePress	0	0.0	n/a	11	71	ISIslide	MissedWin	True
680.72	0.25	Win2	0.6986	0.0	No	2.78	0.02	n/a	NoResponse	0	n/a	n/a	11	72	Cue	MissedWin	True
680.97	4.1	Win2	0.6986	0.0	No	2.78	0.0	n/a	NoResponse	0	n/a	n/a	11	72	Fixation	MissedWin	True
685.069	0.19	Win2	0.6986	0.001	No	2.78	-0.001	2.0	NoResponse	0	0.216	684.285	11	72	Target	MissedWin	True
685.269	0.51	Win2	0.6986	n/a	No	2.78	n/a	n/a	NoResponse	0	n/a	n/a	11	72	Blank	MissedWin	True
685.285	0.3	Win2	0.6986	0.001	No	2.78	-0.001	2.0	NoResponse	0	0.216	n/a	11	72	ButtonPress	MissedWin	True
685.768	1.45	Win2	0.6986	n/a	No	2.78	n/a	5.0	NoResponse	0	0.012	684.78	11	72	Feedback	MissedWin	True
687.218	2.78	Win2	0.6986	n/a	No	2.78	n/a	n/a	NoResponse	0	0.0	n/a	11	72	ISIslide	MissedWin	True
690.017	0.25	Win2	0.6892	0.0	No	2.683	0.017	n/a	NoResponse	0	n/a	n/a	11	73	Cue	MissedWin	True
690.267	4.0	Win2	0.6892	0.0	No	2.683	0.0	n/a	NoResponse	0	n/a	n/a	11	73	Fixation	MissedWin	True
694.265	0.18	Win2	0.6892	0.002	No	2.683	-0.002	2.0	NoResponse	0	0.223	693.488	11	73	Target	MissedWin	True
694.449	0.52	Win2	0.6892	n/a	No	2.683	n/a	n/a	NoResponse	0	n/a	n/a	11	73	Blank	MissedWin	True
694.488	0.3	Win2	0.6892	0.002	No	2.683	-0.002	2.0	NoResponse	0	0.223	n/a	11	73	ButtonPress	MissedWin	True
694.965	1.45	Win2	0.6892	n/a	No	2.683	n/a	5.0	NoResponse	0	0.034	693.999	11	73	Feedback	MissedWin	True
696.415	2.683	Win2	0.6892	n/a	No	2.683	n/a	n/a	NoResponse	0	0.0	n/a	11	73	ISIslide	MissedWin	True
699.114	0.25	Lose2	0.68	0.0	No	2.636	0.014	n/a	NoResponse	-1	n/a	n/a	10	74	Cue	Loss	True
699.364	4.05	Lose2	0.68	0.0	No	2.636	0.0	n/a	NoResponse	-1	n/a	n/a	10	74	Fixation	Loss	True
703.412	0.17	Lose2	0.68	0.002	No	2.636	-0.002	2.0	NoResponse	-1	0.235	702.647	10	74	Target	Loss	True
703.596	0.53	Lose2	0.68	n/a	No	2.636	n/a	n/a	NoResponse	-1	n/a	n/a	10	74	Blank	Loss	True
703.647	0.3	Lose2	0.68	0.002	No	2.636	-0.002	2.0	NoResponse	-1	0.235	n/a	10	74	ButtonPress	Loss	True
704.112	1.45	Lose2	0.68	n/a	No	2.636	n/a	5.0	NoResponse	-1	0.009	703.121	10	74	Feedback	Loss	True
705.562	2.636	Lose2	0.68	n/a	No	2.636	n/a	n/a	NoResponse	-1	0.0	n/a	10	74	ISIslide	Loss	True
708.227	0.25	Lose2	0.6711	0.0	No	2.923	0.027	n/a	NoResponse	-1	n/a	n/a	9	75	Cue	Loss	True
708.477	3.95	Lose2	0.6711	0.0	No	2.923	0.0	n/a	NoResponse	-1	n/a	n/a	9	75	Fixation	Loss	True
712.426	0.16	Lose2	0.6711	0.001	No	2.923	-0.001	2.0	NoResponse	-1	0.204	711.63	9	75	Target	Loss	True
712.592	0.54	Lose2	0.6711	n/a	No	2.923	n/a	n/a	NoResponse	-1	n/a	n/a	9	75	Blank	Loss	True
712.63	0.3	Lose2	0.6711	0.001	No	2.923	-0.001	2.0	NoResponse	-1	0.204	n/a	9	75	ButtonPress	Loss	True
713.126	1.45	Lose2	0.6711	n/a	No	2.923	n/a	5.0	NoResponse	-1	0.019	712.145	9	75	Feedback	Loss	True
714.575	2.923	Lose2	0.6711	n/a	No	2.923	n/a	n/a	NoResponse	-1	0.0	n/a	9	75	ISIslide	Loss	True
717.524	0.25	Control	0.6623	0.0	No	3.226	0.024	n/a	NoResponse	0	n/a	n/a	9	76	Cue	Neutral	True
717.774	4.05	Control	0.6623	0.0	No	3.226	0.0	n/a	NoResponse	0	n/a	n/a	9	76	Fixation	Neutral	True
721.823	0.15	Control	0.6623	0.001	No	3.226	-0.001	2.0	NoResponse	0	0.208	721.031	9	76	Target	Neutral	True
721.973	0.55	Control	0.6623	n/a	No	3.226	n/a	n/a	NoResponse	0	n/a	n/a	9	76	Blank	Neutral	True
722.031	0.3	Control	0.6623	0.001	No	3.226	-0.001	2.0	NoResponse	0	0.208	n/a	9	76	ButtonPress	Neutral	True
722.522	1.45	Control	0.6623	n/a	No	3.226	n/a	5.0	NoResponse	0	0.038	721.56	9	76	Feedback	Neutral	True
723.972	3.226	Control	0.6623	n/a	No	3.226	n/a	n/a	NoResponse	0	0.0	n/a	9	76	ISIslide	Neutral	True
727.221	0.25	Lose2	0.6537999999999999	0.0	No	2.579	0.021	n/a	NoResponse	-1	n/a	n/a	8	77	Cue	Loss	True
727.471	3.95	Lose2	0.6537999999999999	0.0	No	2.579	0.0	n/a	NoResponse	-1	n/a	n/a	8	77	Fixation	Loss	True
731.419	0.15	Lose2	0.6537999999999999	0.002	No	2.579	-0.002	2.0	NoResponse	-1	0.202	730.621	8	77	Target	Loss	True
731.569	0.55	Lose2	0.6537999999999999	n/a	No	2.579	n/a	n/a	NoResponse	-1	n/a	n/a	8	77	Blank	Loss	True
731.621	0.3	Lose2	0.6537999999999999	0.002	No	2.579	-0.002	2.0	NoResponse	-1	0.202	n/a	8	77	ButtonPress	Loss	True
732.119	1.45	Lose2	0.6537999999999999	n/a	No	2.579	n/a	5.0	NoResponse	-1	0.002	731.121	8	77	Feedback	Loss	True
733.569	2.579	Lose2	0.6537999999999999	n/a	No	2.579	n/a	n/a	NoResponse	-1	0.0	n/a	8	77	ISIslide	Loss	True
