onset	duration	cue_type	current_mean_accuracy	duration_error	is_hit	isi_adjusted	onset_delay	response	response_type	reward	rt	rt_time	total_reward	trial_number	trial_phase	trial_type	one_press
11.099	0.25	Control	1.0	0.0	Yes	2.951	-0.001	n/a	GoodResponse	0	n/a	n/a	0	0	Cue	Neutral	True
11.349	3.85	Control	1.0	0.0	Yes	2.951	0.0	n/a	GoodResponse	0	n/a	n/a	0	0	Fixation	Neutral	True
15.198	0.4	Control	1.0	0.001	Yes	2.951	-0.001	2.0	GoodResponse	0	0.22	14.418	0	0	Target	Neutral	True
15.418	0.3	Control	1.0	0.001	Yes	2.951	-0.001	2.0	GoodResponse	0	0.22	n/a	0	0	ButtonPress	Neutral	True
15.598	0.3	Control	1.0	n/a	Yes	2.951	n/a	n/a	GoodResponse	0	n/a	n/a	0	0	Blank	Neutral	True
15.898	1.45	Control	1.0	n/a	Yes	2.951	n/a	5.0	GoodResponse	0	0.032	14.93	0	0	Feedback	Neutral	True
17.347	2.951	Control	1.0	n/a	Yes	2.951	n/a	n/a	GoodResponse	0	0.0	n/a	0	0	ISIslide	Neutral	True
20.313	0.25	Lose2	1.0	0.0	Yes	2.787	0.013	n/a	GoodResponse	0	n/a	n/a	0	1	Cue	AvoidedLoss	True
20.563	4.0	Lose2	1.0	0.0	Yes	2.787	0.0	n/a	GoodResponse	0	n/a	n/a	0	1	Fixation	AvoidedLoss	True
24.561	0.39	Lose2	1.0	0.002	Yes	2.787	-0.002	2.0	GoodResponse	0	0.213	23.774	0	1	Target	AvoidedLoss	True
24.774	0.3	Lose2	1.0	0.002	Yes	2.787	-0.002	2.0	GoodResponse	0	0.213	n/a	0	1	ButtonPress	AvoidedLoss	True
24.961	0.31	Lose2	1.0	n/a	Yes	2.787	n/a	n/a	GoodResponse	0	n/a	n/a	0	1	Blank	AvoidedLoss	True
25.261	1.45	Lose2	1.0	n/a	Yes	2.787	n/a	5.0	GoodResponse	0	0.034	24.295	0	1	Feedback	AvoidedLoss	True
26.711	2.787	Lose2	1.0	n/a	Yes	2.787	n/a	n/a	GoodResponse	0	0.0	n/a	0	1	ISIslide	AvoidedLoss	True
29.526	0.25	Control	1.0	0.0	Yes	2.574	0.026	n/a	GoodResponse	0	n/a	n/a	0	2	Cue	Neutral	True
29.776	4.1	Control	1.0	0.0	Yes	2.574	0.0	n/a	GoodResponse	0	n/a	n/a	0	2	Fixation	Neutral	True
33.875	0.38	Control	1.0	0.001	Yes	2.574	-0.001	2.0	GoodResponse	0	0.253	33.128	0	2	Target	Neutral	True
34.128	0.3	Control	1.0	0.001	Yes	2.574	-0.001	2.0	GoodResponse	0	0.253	n/a	0	2	ButtonPress	Neutral	True
34.258	0.32	Control	1.0	n/a	Yes	2.574	n/a	n/a	GoodResponse	0	n/a	n/a	0	2	Blank	Neutral	True
34.574	1.45	Control	1.0	n/a	Yes	2.574	n/a	5.0	GoodResponse	0	0.038	33.612	0	2	Feedback	Neutral	True
36.024	2.574	Control	1.0	n/a	Yes	2.574	n/a	n/a	GoodResponse	0	0.0	n/a	0	2	ISIslide	Neutral	True
38.623	0.25	Win2	1.0	0.0	Yes	2.827	0.023	n/a	GoodResponse	1	n/a	n/a	1	3	Cue	Win	True
38.873	3.95	Win2	1.0	0.0	Yes	2.827	0.0	n/a	GoodResponse	1	n/a	n/a	1	3	Fixation	Win	True
42.822	0.37	Win2	1.0	0.001	Yes	2.827	-0.001	2.0	GoodResponse	1	0.242	42.064	1	3	Target	Win	True
43.064	0.3	Win2	1.0	0.001	Yes	2.827	-0.001	2.0	GoodResponse	1	0.242	n/a	1	3	ButtonPress	Win	True
43.205	0.33	Win2	1.0	n/a	Yes	2.827	n/a	n/a	GoodResponse	1	n/a	n/a	1	3	Blank	Win	True
43.521	1.45	Win2	1.0	n/a	Yes	2.827	n/a	5.0	GoodResponse	1	0.018	42.539	1	3	Feedback	Win	True
44.971	2.827	Win2	1.0	n/a	Yes	2.827	n/a	n/a	GoodResponse	1	0.0	n/a	1	3	ISIslide	Win	True
47.82	0.25	Win2	1.0	0.0	Yes	3.28	0.02	n/a	GoodResponse	1	n/a	n/a	2	4	Cue	Win	True
48.07	4.0	Win2	1.0	0.0	Yes	3.28	0.0	n/a	GoodResponse	1	n/a	n/a	2	4	Fixation	Win	True
52.068	0.36	Win2	1.0	0.002	Yes	3.28	-0.002	2.0	GoodResponse	1	0.232	51.3	2	4	Target	Win	True
52.3	0.3	Win2	1.0	0.002	Yes	3.28	-0.002	2.0	GoodResponse	1	0.232	n/a	2	4	ButtonPress	Win	True
52.435	0.34	Win2	1.0	n/a	Yes	3.28	n/a	n/a	GoodResponse	1	n/a	n/a	2	4	Blank	Win	True
52.768	1.45	Win2	1.0	n/a	Yes	3.28	n/a	5.0	GoodResponse	1	0.039	51.807	2	4	Feedback	Win	True
54.218	3.28	Win2	1.0	n/a	Yes	3.28	n/a	n/a	GoodResponse	1	0.0	n/a	2	4	ISIslide	Win	True
57.517	0.25	Win2	1.0	0.0	Yes	2.783	0.017	n/a	GoodResponse	1	n/a	n/a	3	5	Cue	Win	True
57.766	4.0	Win2	1.0	0.001	Yes	2.783	-0.001	n/a	GoodResponse	1	n/a	n/a	3	5	Fixation	Win	True
61.765	0.35	Win2	1.0	0.002	Yes	2.783	-0.002	2.0	GoodResponse	1	0.229	60.994	3	5	Target	Win	True
61.994	0.3	Win2	1.0	0.002	Yes	2.783	-0.002	2.0	GoodResponse	1	0.229	n/a	3	5	ButtonPress	Win	True
62.115	0.35	Win2	1.0	n/a	Yes	2.783	n/a	n/a	GoodResponse	1	n/a	n/a	3	5	Blank	Win	True
62.465	1.45	Win2	1.0	n/a	Yes	2.783	n/a	5.0	GoodResponse	1	0.001	61.466	3	5	Feedback	Win	True
63.914	2.783	Win2	1.0	n/a	Yes	2.783	n/a	n/a	GoodResponse	1	0.0	n/a	3	5	ISIslide	Win	True
66.73	0.25	Lose2	1.0	0.0	Yes	2.72	0.03	n/a	GoodResponse	0	n/a	n/a	3	6	Cue	AvoidedLoss	True
66.98	3.95	Lose2	1.0	0.0	Yes	2.72	0.0	n/a	GoodResponse	0	n/a	n/a	3	6	Fixation	AvoidedLoss	True
70.929	0.34	Lose2	1.0	0.001	Yes	2.72	-0.001	2.0	GoodResponse	0	0.218	70.147	3	6	Target	AvoidedLoss	True
71.147	0.3	Lose2	1.0	0.001	Yes	2.72	-0.001	2.0	GoodResponse	0	0.218	n/a	3	6	ButtonPress	AvoidedLoss	True
71.278	0.36	Lose2	1.0	n/a	Yes	2.72	n/a	n/a	GoodResponse	0	n/a	n/a	3	6	Blank	AvoidedLoss	True
71.628	1.45	Lose2	1.0	n/a	Yes	2.72	n/a	5.0	GoodResponse	0	0.009	70.637	3	6	Feedback	AvoidedLoss	True
73.078	2.72	Lose2	1.0	n/a	Yes	2.72	n/a	n/a	GoodResponse	0	0.0	n/a	3	6	ISIslide	AvoidedLoss	True
75.827	0.25	Lose2	1.0	0.0	Yes	4.023	0.027	n/a	GoodResponse	0	n/a	n/a	3	7	Cue	AvoidedLoss	True
76.077	4.05	Lose2	1.0	0.0	Yes	4.023	0.0	n/a	GoodResponse	0	n/a	n/a	3	7	Fixation	AvoidedLoss	True
80.125	0.33	Lose2	1.0	0.002	Yes	4.023	-0.002	2.0	GoodResponse	0	0.246	79.371	3	7	Target	AvoidedLoss	True
80.371	0.3	Lose2	1.0	0.002	Yes	4.023	-0.002	2.0	GoodResponse	0	0.246	n/a	3	7	ButtonPress	AvoidedLoss	True
80.459	0.37	Lose2	1.0	n/a	Yes	4.023	n/a	n/a	GoodResponse	0	n/a	n/a	3	7	Blank	AvoidedLoss	True
80.825	1.45	Lose2	1.0	n/a	Yes	4.023	n/a	5.0	GoodResponse	0	0.031	79.856	3	7	Feedback	AvoidedLoss	True
82.275	4.023	Lose2	1.0	n/a	Yes	4.023	n/a	n/a	GoodResponse	0	0.0	n/a	3	7	ISIslide	AvoidedLoss	True
86.323	0.25	Lose2	1.0	0.0	Yes	3.027	0.023	n/a	GoodResponse	0	n/a	n/a	3	8	Cue	AvoidedLoss	True
86.573	3.95	Lose2	1.0	0.0	Yes	3.027	0.0	n/a	GoodResponse	0	n/a	n/a	3	8	Fixation	AvoidedLoss	True
90.522	0.32	Lose2	1.0	0.001	Yes	3.027	-0.001	2.0	GoodResponse	0	0.24	89.762	3	8	Target	AvoidedLoss	True
90.762	0.3	Lose2	1.0	0.001	Yes	3.027	-0.001	2.0	GoodResponse	0	0.24	n/a	3	8	ButtonPress	AvoidedLoss	True
90.838	0.38	Lose2	1.0	n/a	Yes	3.027	n/a	n/a	GoodResponse	0	n/a	n/a	3	8	Blank	AvoidedLoss	True
91.222	1.45	Lose2	1.0	n/a	Yes	3.027	n/a	5.0	GoodResponse	0	0.024	90.246	3	8	Feedback	AvoidedLoss	True
92.671	3.027	Lose2	1.0	n/a	Yes	3.027	n/a	n/a	GoodResponse	0	0.0	n/a	3	8	ISIslide	AvoidedLoss	True
95.72	0.25	Lose2	1.0	0.0	Yes	3.13	0.02	n/a	GoodResponse	0	n/a	n/a	3	9	Cue	AvoidedLoss	True
95.97	3.95	Lose2	1.0	0.0	Yes	3.13	0.0	n/a	GoodResponse	0	n/a	n/a	3	9	Fixation	AvoidedLoss	True
99.919	0.31	Lose2	1.0	0.001	Yes	3.13	-0.001	2.0	GoodResponse	0	0.23	99.149	3	9	Target	AvoidedLoss	True
100.149	0.3	Lose2	1.0	0.001	Yes	3.13	-0.001	2.0	GoodResponse	0	0.23	n/a	3	9	ButtonPress	AvoidedLoss	True
100.235	0.39	Lose2	1.0	n/a	Yes	3.13	n/a	n/a	GoodResponse	0	n/a	n/a	3	9	Blank	AvoidedLoss	True
100.618	1.45	Lose2	1.0	n/a	Yes	3.13	n/a	5.0	GoodResponse	0	0.043	99.661	3	9	Feedback	AvoidedLoss	True
102.068	3.13	Lose2	1.0	n/a	Yes	3.13	n/a	n/a	GoodResponse	0	0.0	n/a	3	9	ISIslide	AvoidedLoss	True
105.217	0.25	Control	1.0	0.0	Yes	3.283	0.017	n/a	GoodResponse	0	n/a	n/a	3	10	Cue	Neutral	True
105.467	4.0	Control	1.0	0.0	Yes	3.283	0.0	n/a	GoodResponse	0	n/a	n/a	3	10	Fixation	Neutral	True
109.465	0.3	Control	1.0	0.002	Yes	3.283	-0.002	2.0	GoodResponse	0	0.229	108.694	3	10	Target	Neutral	True
109.694	0.3	Control	1.0	0.002	Yes	3.283	-0.002	2.0	GoodResponse	0	0.229	n/a	3	10	ButtonPress	Neutral	True
109.765	0.4	Control	1.0	n/a	Yes	3.283	n/a	n/a	GoodResponse	0	n/a	n/a	3	10	Blank	Neutral	True
110.165	1.45	Control	1.0	n/a	Yes	3.283	n/a	5.0	GoodResponse	0	0.008	109.173	3	10	Feedback	Neutral	True
111.615	3.283	Control	1.0	n/a	Yes	3.283	n/a	n/a	GoodResponse	0	0.0	n/a	3	10	ISIslide	Neutral	True
114.913	0.25	Lose2	0.9167000000000001	0.0	No	2.737	0.013	n/a	NoResponse	-1	n/a	n/a	2	11	Cue	Loss	False
115.163	4.05	Lose2	0.9167000000000001	0.0	No	2.737	0.0	n/a	NoResponse	-1	n/a	n/a	2	11	Fixation	Loss	False
119.212	0.29	Lose2	0.9167000000000001	0.001	No	2.737	-0.001	n/a	NoResponse	-1	n/a	n/a	2	11	Target	Loss	False
119.512	0.41	Lose2	0.9167000000000001	n/a	No	2.737	n/a	n/a	NoResponse	-1	n/a	n/a	2	11	Blank	Loss	False
119.912	1.45	Lose2	0.9167000000000001	n/a	No	2.737	n/a	5.0	NoResponse	-1	0.017	118.929	2	11	Feedback	Loss	False
121.361	2.737	Lose2	0.9167000000000001	n/a	No	2.737	n/a	n/a	NoResponse	-1	0.0	n/a	2	11	ISIslide	Loss	False
124.127	0.25	Control	0.8462000000000001	0.0	No	2.973	0.027	n/a	NoResponse	0	n/a	n/a	2	12	Cue	Neutral	True
124.377	3.9	Control	0.8462000000000001	0.0	No	2.973	0.0	n/a	NoResponse	0	n/a	n/a	2	12	Fixation	Neutral	True
128.275	0.28	Control	0.8462000000000001	0.002	No	2.973	-0.002	2.0	NoResponse	0	0.471	127.746	2	12	Target	Neutral	True
128.559	0.42	Control	0.8462000000000001	n/a	No	2.973	n/a	n/a	NoResponse	0	n/a	n/a	2	12	Blank	Neutral	True
128.746	0.3	Control	0.8462000000000001	0.002	No	2.973	-0.002	2.0	NoResponse	0	0.471	n/a	2	12	ButtonPress	Neutral	True
128.975	1.45	Control	0.8462000000000001	n/a	No	2.973	n/a	5.0	NoResponse	0	0.027	128.002	2	12	Feedback	Neutral	True
130.425	2.973	Control	0.8462000000000001	n/a	No	2.973	n/a	n/a	NoResponse	0	0.0	n/a	2	12	ISIslide	Neutral	True
133.424	0.25	Control	0.8571	0.0	Yes	2.776	0.024	n/a	GoodResponse	0	n/a	n/a	2	13	Cue	Neutral	True
133.674	4.0	Control	0.8571	0.0	Yes	2.776	0.0	n/a	GoodResponse	0	n/a	n/a	2	13	Fixation	Neutral	True
137.672	0.27	Control	0.8571	0.002	Yes	2.776	-0.002	2.0	GoodResponse	0	0.24	136.912	2	13	Target	Neutral	True
137.912	0.3	Control	0.8571	0.002	Yes	2.776	-0.002	2.0	GoodResponse	0	0.24	n/a	2	13	ButtonPress	Neutral	True
137.955	0.43	Control	0.8571	n/a	Yes	2.776	n/a	n/a	GoodResponse	0	n/a	n/a	2	13	Blank	Neutral	True
138.372	1.45	Control	0.8571	n/a	Yes	2.776	n/a	5.0	GoodResponse	0	0.045	137.417	2	13	Feedback	Neutral	True
139.821	2.776	Control	0.8571	n/a	Yes	2.776	n/a	n/a	GoodResponse	0	0.0	n/a	2	13	ISIslide	Neutral	True
142.62	0.25	Win2	0.8667	0.001	Yes	2.68	0.02	n/a	GoodResponse	1	n/a	n/a	3	14	Cue	Win	False
142.87	4.1	Win2	0.8667	0.0	Yes	2.68	0.0	2.0	GoodResponse	1	3.559	145.429	3	14	Fixation	Win	False
146.429	0.3	Win2	0.8667	0.0	Yes	2.68	0.0	2.0	GoodResponse	1	3.559	n/a	3	14	ButtonPress	Win	False
146.969	0.26	Win2	0.8667	0.001	Yes	2.68	-0.001	2.0	GoodResponse	1	0.21	146.179	3	14	Target	Win	False
147.179	0.3	Win2	0.8667	0.001	Yes	2.68	-0.001	2.0	GoodResponse	1	0.21	n/a	3	14	ButtonPress	Win	False
147.236	0.44	Win2	0.8667	n/a	Yes	2.68	n/a	n/a	GoodResponse	1	n/a	n/a	3	14	Blank	Win	False
147.669	1.45	Win2	0.8667	n/a	Yes	2.68	n/a	5.0	GoodResponse	1	0.015	146.684	3	14	Feedback	Win	False
149.118	2.68	Win2	0.8667	n/a	Yes	2.68	n/a	n/a	GoodResponse	1	0.0	n/a	3	14	ISIslide	Win	False
151.817	0.25	Control	0.875	0.0	Yes	2.983	0.017	n/a	GoodResponse	0	n/a	n/a	3	15	Cue	Neutral	True
152.067	4.0	Control	0.875	0.0	Yes	2.983	0.0	n/a	GoodResponse	0	n/a	n/a	3	15	Fixation	Neutral	True
156.066	0.25	Control	0.875	0.001	Yes	2.983	-0.001	2.0	GoodResponse	0	0.207	155.273	3	15	Target	Neutral	True
156.273	0.3	Control	0.875	0.001	Yes	2.983	-0.001	2.0	GoodResponse	0	0.207	n/a	3	15	ButtonPress	Neutral	True
156.316	0.45	Control	0.875	n/a	Yes	2.983	n/a	n/a	GoodResponse	0	n/a	n/a	3	15	Blank	Neutral	True
156.766	1.45	Control	0.875	n/a	Yes	2.983	n/a	5.0	GoodResponse	0	0.041	155.807	3	15	Feedback	Neutral	True
158.215	2.983	Control	0.875	n/a	Yes	2.983	n/a	n/a	GoodResponse	0	0.0	n/a	3	15	ISIslide	Neutral	True
161.214	0.25	Win2	0.8824	0.0	Yes	2.886	0.014	n/a	GoodResponse	1	n/a	n/a	4	16	Cue	Win	True
161.464	4.0	Win2	0.8824	0.0	Yes	2.886	0.0	n/a	GoodResponse	1	n/a	n/a	4	16	Fixation	Win	True
165.463	0.24	Win2	0.8824	0.001	Yes	2.886	-0.001	2.0	GoodResponse	1	0.21	164.673	4	16	Target	Win	True
165.673	0.3	Win2	0.8824	0.001	Yes	2.886	-0.001	2.0	GoodResponse	1	0.21	n/a	4	16	ButtonPress	Win	True
165.712	0.46	Win2	0.8824	n/a	Yes	2.886	n/a	n/a	GoodResponse	1	n/a	n/a	4	16	Blank	Win	True
166.162	1.45	Win2	0.8824	n/a	Yes	2.886	n/a	5.0	GoodResponse	1	0.011	165.173	4	16	Feedback	Win	True
167.612	2.886	Win2	0.8824	n/a	Yes	2.886	n/a	n/a	GoodResponse	1	0.0	n/a	4	16	ISIslide	Win	True
170.527	0.25	Lose2	0.8332999999999999	0.001	No	2.723	0.027	n/a	NoResponse	-1	n/a	n/a	3	17	Cue	Loss	True
170.777	3.95	Lose2	0.8332999999999999	0.0	No	2.723	0.0	n/a	NoResponse	-1	n/a	n/a	3	17	Fixation	Loss	True
174.726	0.23	Lose2	0.8332999999999999	0.001	No	2.723	-0.001	2.0	NoResponse	-1	0.275	174.001	3	17	Target	Loss	True
174.959	0.47	Lose2	0.8332999999999999	n/a	No	2.723	n/a	n/a	NoResponse	-1	n/a	n/a	3	17	Blank	Loss	True
175.001	0.3	Lose2	0.8332999999999999	0.001	No	2.723	-0.001	2.0	NoResponse	-1	0.275	n/a	3	17	ButtonPress	Loss	True
175.426	1.45	Lose2	0.8332999999999999	n/a	No	2.723	n/a	5.0	NoResponse	-1	0.015	174.441	3	17	Feedback	Loss	True
176.875	2.723	Lose2	0.8332999999999999	n/a	No	2.723	n/a	n/a	NoResponse	-1	0.0	n/a	3	17	ISIslide	Loss	True
179.624	0.25	Lose2	0.8421	0.0	Yes	2.726	0.024	n/a	GoodResponse	0	n/a	n/a	3	18	Cue	AvoidedLoss	True
179.874	4.05	Lose2	0.8421	0.0	Yes	2.726	0.0	n/a	GoodResponse	0	n/a	n/a	3	18	Fixation	AvoidedLoss	True
183.923	0.22	Lose2	0.8421	0.001	Yes	2.726	-0.001	2.0	GoodResponse	0	0.213	183.136	3	18	Target	AvoidedLoss	True
184.136	0.3	Lose2	0.8421	0.001	Yes	2.726	-0.001	2.0	GoodResponse	0	0.213	n/a	3	18	ButtonPress	AvoidedLoss	True
184.139	0.48	Lose2	0.8421	n/a	Yes	2.726	n/a	n/a	GoodResponse	0	n/a	n/a	3	18	Blank	AvoidedLoss	True
184.623	1.45	Lose2	0.8421	n/a	Yes	2.726	n/a	5.0	GoodResponse	0	0.038	183.661	3	18	Feedback	AvoidedLoss	True
186.072	2.726	Lose2	0.8421	n/a	Yes	2.726	n/a	n/a	GoodResponse	0	0.0	n/a	3	18	ISIslide	AvoidedLoss	True
188.821	0.25	Control	0.85	0.0	Yes	2.929	0.021	n/a	GoodResponse	0	n/a	n/a	3	19	Cue	Neutral	True
189.071	3.95	Control	0.85	0.0	Yes	2.929	0.0	n/a	GoodResponse	0	n/a	n/a	3	19	Fixation	Neutral	True
193.02	0.21	Control	0.85	0.001	Yes	2.929	-0.001	2.0	GoodResponse	0	0.205	192.225	3	19	Target	Neutral	True
193.225	0.3	Control	0.85	0.001	Yes	2.929	-0.001	2.0	GoodResponse	0	0.205	n/a	3	19	ButtonPress	Neutral	True
193.236	0.49	Control	0.85	n/a	Yes	2.929	n/a	n/a	GoodResponse	0	n/a	n/a	3	19	Blank	Neutral	True
193.719	1.45	Control	0.85	n/a	Yes	2.929	n/a	5.0	GoodResponse	0	0.015	192.734	3	19	Feedback	Neutral	True
195.169	2.929	Control	0.85	n/a	Yes	2.929	n/a	n/a	GoodResponse	0	0.0	n/a	3	19	ISIslide	Neutral	True
198.118	0.25	Control	0.8095	0.0	No	2.632	0.018	n/a	NoResponse	0	n/a	n/a	3	20	Cue	Neutral	True
198.368	4.05	Control	0.8095	0.0	No	2.632	0.0	n/a	NoResponse	0	n/a	n/a	3	20	Fixation	Neutral	True
202.416	0.2	Control	0.8095	0.002	No	2.632	-0.002	2.0	NoResponse	0	0.237	201.653	3	20	Target	Neutral	True
202.616	0.5	Control	0.8095	n/a	No	2.632	n/a	n/a	NoResponse	0	n/a	n/a	3	20	Blank	Neutral	True
202.653	0.3	Control	0.8095	0.002	No	2.632	-0.002	2.0	NoResponse	0	0.237	n/a	3	20	ButtonPress	Neutral	True
203.116	1.45	Control	0.8095	n/a	No	2.632	n/a	5.0	NoResponse	0	0.032	202.148	3	20	Feedback	Neutral	True
204.566	2.632	Control	0.8095	n/a	No	2.632	n/a	n/a	NoResponse	0	0.0	n/a	3	20	ISIslide	Neutral	True
207.215	0.25	Control	0.7726999999999999	0.0	No	2.785	0.015	n/a	NoResponse	0	n/a	n/a	3	21	Cue	Neutral	True
207.465	4.1	Control	0.7726999999999999	0.0	No	2.785	0.0	n/a	NoResponse	0	n/a	n/a	3	21	Fixation	Neutral	True
211.563	0.19	Control	0.7726999999999999	0.002	No	2.785	-0.002	2.0	NoResponse	0	0.239	210.802	3	21	Target	Neutral	True
211.763	0.51	Control	0.7726999999999999	n/a	No	2.785	n/a	n/a	NoResponse	0	n/a	n/a	3	21	Blank	Neutral	True
211.802	0.3	Control	0.7726999999999999	0.002	No	2.785	-0.002	2.0	NoResponse	0	0.239	n/a	3	21	ButtonPress	Neutral	True
212.263	1.45	Control	0.7726999999999999	n/a	No	2.785	n/a	5.0	NoResponse	0	0.007	211.27	3	21	Feedback	Neutral	True
213.713	2.785	Control	0.7726999999999999	n/a	No	2.785	n/a	n/a	NoResponse	0	0.0	n/a	3	21	ISIslide	Neutral	True
216.528	0.25	Control	0.7391	0.0	No	2.772	0.028	n/a	NoResponse	0	n/a	n/a	3	22	Cue	Neutral	True
216.778	4.0	Control	0.7391	0.0	No	2.772	0.0	n/a	NoResponse	0	n/a	n/a	3	22	Fixation	Neutral	True
220.777	0.18	Control	0.7391	0.001	No	2.772	-0.001	2.0	NoResponse	0	0.193	219.97	3	22	Target	Neutral	True
220.96	0.52	Control	0.7391	n/a	No	2.772	n/a	n/a	NoResponse	0	n/a	n/a	3	22	Blank	Neutral	True
220.97	0.3	Control	0.7391	0.001	No	2.772	-0.001	2.0	NoResponse	0	0.193	n/a	3	22	ButtonPress	Neutral	True
221.477	1.45	Control	0.7391	n/a	No	2.772	n/a	5.0	NoResponse	0	0.012	220.489	3	22	Feedback	Neutral	True
222.926	2.772	Control	0.7391	n/a	No	2.772	n/a	n/a	NoResponse	0	0.0	n/a	3	22	ISIslide	Neutral	True
225.725	0.25	Control	0.7082999999999999	0.0	No	2.775	0.025	n/a	NoResponse	0	n/a	n/a	3	23	Cue	Neutral	True
225.975	3.9	Control	0.7082999999999999	0.0	No	2.775	0.0	n/a	NoResponse	0	n/a	n/a	3	23	Fixation	Neutral	True
229.874	0.17	Control	0.7082999999999999	0.001	No	2.775	-0.001	2.0	NoResponse	0	0.202	229.076	3	23	Target	Neutral	True
230.057	0.53	Control	0.7082999999999999	n/a	No	2.775	n/a	n/a	NoResponse	0	n/a	n/a	3	23	Blank	Neutral	True
230.076	0.3	Control	0.7082999999999999	0.001	No	2.775	-0.001	2.0	NoResponse	0	0.202	n/a	3	23	ButtonPress	Neutral	True
230.573	1.45	Control	0.7082999999999999	n/a	No	2.775	n/a	5.0	NoResponse	0	0.038	229.611	3	23	Feedback	Neutral	True
232.023	2.775	Control	0.7082999999999999	n/a	No	2.775	n/a	n/a	NoResponse	0	0.0	n/a	3	23	ISIslide	Neutral	True
234.822	0.25	Win2	0.68	0.0	No	3.128	0.022	n/a	NoResponse	0	n/a	n/a	3	24	Cue	MissedWin	True
235.072	3.95	Win2	0.68	0.0	No	3.128	0.0	n/a	NoResponse	0	n/a	n/a	3	24	Fixation	MissedWin	True
239.02	0.16	Win2	0.68	0.002	No	3.128	-0.002	2.0	NoResponse	0	0.209	238.229	3	24	Target	MissedWin	True
239.187	0.54	Win2	0.68	n/a	No	3.128	n/a	n/a	NoResponse	0	n/a	n/a	3	24	Blank	MissedWin	True
239.229	0.3	Win2	0.68	0.002	No	3.128	-0.002	2.0	NoResponse	0	0.209	n/a	3	24	ButtonPress	MissedWin	True
239.72	1.45	Win2	0.68	n/a	No	3.128	n/a	5.0	NoResponse	0	0.013	238.733	3	24	Feedback	MissedWin	True
241.17	3.128	Win2	0.68	n/a	No	3.128	n/a	n/a	NoResponse	0	0.0	n/a	3	24	ISIslide	MissedWin	True
244.319	0.25	Win2	0.6537999999999999	0.0	No	3.081	0.019	n/a	NoResponse	0	n/a	n/a	3	25	Cue	MissedWin	True
244.569	4.0	Win2	0.6537999999999999	0.0	No	3.081	0.0	n/a	NoResponse	0	n/a	n/a	3	25	Fixation	MissedWin	True
248.567	0.15	Win2	0.6537999999999999	0.002	No	3.081	-0.002	2.0	NoResponse	0	0.218	247.785	3	25	Target	MissedWin	True
248.717	0.55	Win2	0.6537999999999999	n/a	No	3.081	n/a	n/a	NoResponse	0	n/a	n/a	3	25	Blank	MissedWin	True
248.785	0.3	Win2	0.6537999999999999	0.002	No	3.081	-0.002	2.0	NoResponse	0	0.218	n/a	3	25	ButtonPress	MissedWin	True
249.267	1.45	Win2	0.6537999999999999	n/a	No	3.081	n/a	5.0	NoResponse	0	0.028	248.295	3	25	Feedback	MissedWin	True
250.716	3.081	Win2	0.6537999999999999	n/a	No	3.081	n/a	n/a	NoResponse	0	0.0	n/a	3	25	ISIslide	MissedWin	True
253.815	0.25	Win2	0.6296	0.0	No	2.935	0.015	n/a	NoResponse	0	n/a	n/a	3	26	Cue	MissedWin	True
254.065	3.95	Win2	0.6296	0.0	No	2.935	0.0	n/a	NoResponse	0	n/a	n/a	3	26	Fixation	MissedWin	True
258.014	0.16	Win2	0.6296	0.001	No	2.935	-0.001	2.0	NoResponse	0	0.195	257.209	3	26	Target	MissedWin	True
258.181	0.54	Win2	0.6296	n/a	No	2.935	n/a	n/a	NoResponse	0	n/a	n/a	3	26	Blank	MissedWin	True
258.209	0.3	Win2	0.6296	0.001	No	2.935	-0.001	2.0	NoResponse	0	0.195	n/a	3	26	ButtonPress	MissedWin	True
258.714	1.45	Win2	0.6296	n/a	No	2.935	n/a	5.0	NoResponse	0	0.044	257.758	3	26	Feedback	MissedWin	True
260.163	2.935	Win2	0.6296	n/a	No	2.935	n/a	n/a	NoResponse	0	0.0	n/a	3	26	ISIslide	MissedWin	True
263.129	0.25	Lose2	0.6071	0.0	No	2.821	0.029	n/a	NoResponse	-1	n/a	n/a	2	27	Cue	Loss	True
263.379	4.05	Lose2	0.6071	0.0	No	2.821	0.0	n/a	NoResponse	-1	n/a	n/a	2	27	Fixation	Loss	True
267.427	0.17	Lose2	0.6071	0.002	No	2.821	-0.002	2.0	NoResponse	-1	0.232	266.659	2	27	Target	Loss	True
267.611	0.53	Lose2	0.6071	n/a	No	2.821	n/a	n/a	NoResponse	-1	n/a	n/a	2	27	Blank	Loss	True
267.659	0.3	Lose2	0.6071	0.002	No	2.821	-0.002	2.0	NoResponse	-1	0.232	n/a	2	27	ButtonPress	Loss	True
268.127	1.45	Lose2	0.6071	n/a	No	2.821	n/a	5.0	NoResponse	-1	0.045	267.172	2	27	Feedback	Loss	True
269.577	2.821	Lose2	0.6071	n/a	No	2.821	n/a	n/a	NoResponse	-1	0.0	n/a	2	27	ISIslide	Loss	True
272.426	0.25	Control	0.5861999999999999	0.0	No	2.824	0.026	n/a	NoResponse	0	n/a	n/a	2	28	Cue	Neutral	False
272.675	4.05	Control	0.5861999999999999	0.001	No	2.824	-0.001	2.0	NoResponse	0	2.528	274.203	2	28	Fixation	Neutral	False
275.203	0.3	Control	0.5861999999999999	0.001	No	2.824	-0.001	2.0	NoResponse	0	2.528	n/a	2	28	ButtonPress	Neutral	False
276.724	0.18	Control	0.5861999999999999	0.002	No	2.824	-0.002	2.0	NoResponse	0	0.205	275.929	2	28	Target	Neutral	False
276.907	0.52	Control	0.5861999999999999	n/a	No	2.824	n/a	n/a	NoResponse	0	n/a	n/a	2	28	Blank	Neutral	False
276.929	0.3	Control	0.5861999999999999	0.002	No	2.824	-0.002	2.0	NoResponse	0	0.205	n/a	2	28	ButtonPress	Neutral	False
277.424	1.45	Control	0.5861999999999999	n/a	No	2.824	n/a	5.0	NoResponse	0	0.016	276.44	2	28	Feedback	Neutral	False
278.873	2.824	Control	0.5861999999999999	n/a	No	2.824	n/a	n/a	NoResponse	0	0.0	n/a	2	28	ISIslide	Neutral	False
281.722	0.25	Lose2	0.5667	0.0	No	2.828	0.022	n/a	NoResponse	-1	n/a	n/a	1	29	Cue	Loss	True
281.972	3.95	Lose2	0.5667	0.0	No	2.828	0.0	n/a	NoResponse	-1	n/a	n/a	1	29	Fixation	Loss	True
285.921	0.19	Lose2	0.5667	0.001	No	2.828	-0.001	2.0	NoResponse	-1	0.224	285.145	1	29	Target	Loss	True
286.121	0.51	Lose2	0.5667	n/a	No	2.828	n/a	n/a	NoResponse	-1	n/a	n/a	1	29	Blank	Loss	True
286.145	0.3	Lose2	0.5667	0.001	No	2.828	-0.001	2.0	NoResponse	-1	0.224	n/a	1	29	ButtonPress	Loss	True
286.621	1.45	Lose2	0.5667	n/a	No	2.828	n/a	5.0	NoResponse	-1	0.039	285.66	1	29	Feedback	Loss	True
288.07	2.828	Lose2	0.5667	n/a	No	2.828	n/a	n/a	NoResponse	-1	0.0	n/a	1	29	ISIslide	Loss	True
290.919	0.25	Win2	0.5484	0.0	No	2.781	0.019	2.0	NoResponse	0	0.044	289.963	1	30	Cue	MissedWin	False
290.963	0.3	Win2	0.5484	0.0	No	2.781	0.019	2.0	NoResponse	0	0.044	n/a	1	30	ButtonPress	MissedWin	False
291.169	3.9	Win2	0.5484	0.0	No	2.781	0.0	n/a	NoResponse	0	n/a	n/a	1	30	Fixation	MissedWin	False
295.068	0.2	Win2	0.5484	0.001	No	2.781	-0.001	2.0	NoResponse	0	0.248	294.316	1	30	Target	MissedWin	False
295.268	0.5	Win2	0.5484	n/a	No	2.781	n/a	n/a	NoResponse	0	n/a	n/a	1	30	Blank	MissedWin	False
295.316	0.3	Win2	0.5484	0.001	No	2.781	-0.001	2.0	NoResponse	0	0.248	n/a	1	30	ButtonPress	MissedWin	False
295.767	1.45	Win2	0.5484	n/a	No	2.781	n/a	5.0	NoResponse	0	0.015	294.782	1	30	Feedback	MissedWin	False
297.217	2.781	Win2	0.5484	n/a	No	2.781	n/a	n/a	NoResponse	0	0.0	n/a	1	30	ISIslide	MissedWin	False
300.016	0.25	Lose2	0.5312	0.0	No	2.834	0.016	n/a	NoResponse	-1	n/a	n/a	0	31	Cue	Loss	True
300.266	4.05	Lose2	0.5312	0.0	No	2.834	0.0	n/a	NoResponse	-1	n/a	n/a	0	31	Fixation	Loss	True
304.315	0.21	Lose2	0.5312	0.001	No	2.834	-0.001	2.0	NoResponse	-1	0.225	303.54	0	31	Target	Loss	True
304.531	0.49	Lose2	0.5312	n/a	No	2.834	n/a	n/a	NoResponse	-1	n/a	n/a	0	31	Blank	Loss	True
304.54	0.3	Lose2	0.5312	0.001	No	2.834	-0.001	2.0	NoResponse	-1	0.225	n/a	0	31	ButtonPress	Loss	True
305.014	1.45	Lose2	0.5312	n/a	No	2.834	n/a	5.0	NoResponse	-1	0.036	304.05	0	31	Feedback	Loss	True
306.464	2.834	Lose2	0.5312	n/a	No	2.834	n/a	n/a	NoResponse	-1	0.0	n/a	0	31	ISIslide	Loss	True
309.329	0.25	Lose2	0.5455	0.001	Yes	2.621	0.029	n/a	GoodResponse	0	n/a	n/a	0	32	Cue	AvoidedLoss	True
309.579	4.15	Lose2	0.5455	0.0	Yes	2.621	0.0	n/a	GoodResponse	0	n/a	n/a	0	32	Fixation	AvoidedLoss	True
313.728	0.22	Lose2	0.5455	0.001	Yes	2.621	-0.001	2.0	GoodResponse	0	0.205	312.933	0	32	Target	AvoidedLoss	True
313.933	0.3	Lose2	0.5455	0.001	Yes	2.621	-0.001	2.0	GoodResponse	0	0.205	n/a	0	32	ButtonPress	AvoidedLoss	True
313.945	0.48	Lose2	0.5455	n/a	Yes	2.621	n/a	n/a	GoodResponse	0	n/a	n/a	0	32	Blank	AvoidedLoss	True
314.428	1.45	Lose2	0.5455	n/a	Yes	2.621	n/a	5.0	GoodResponse	0	0.037	313.465	0	32	Feedback	AvoidedLoss	True
315.877	2.621	Lose2	0.5455	n/a	Yes	2.621	n/a	n/a	GoodResponse	0	0.0	n/a	0	32	ISIslide	AvoidedLoss	True
318.526	0.25	Win2	0.5588000000000001	0.0	Yes	2.674	0.026	n/a	GoodResponse	1	n/a	n/a	1	33	Cue	Win	True
318.776	4.0	Win2	0.5588000000000001	0.0	Yes	2.674	0.0	n/a	GoodResponse	1	n/a	n/a	1	33	Fixation	Win	True
322.775	0.23	Win2	0.5588000000000001	0.001	Yes	2.674	-0.001	2.0	GoodResponse	1	0.202	321.977	1	33	Target	Win	True
322.977	0.3	Win2	0.5588000000000001	0.001	Yes	2.674	-0.001	2.0	GoodResponse	1	0.202	n/a	1	33	ButtonPress	Win	True
323.008	0.47	Win2	0.5588000000000001	n/a	Yes	2.674	n/a	n/a	GoodResponse	1	n/a	n/a	1	33	Blank	Win	True
323.475	1.45	Win2	0.5588000000000001	n/a	Yes	2.674	n/a	5.0	GoodResponse	1	0.014	322.489	1	33	Feedback	Win	True
324.924	2.674	Win2	0.5588000000000001	n/a	Yes	2.674	n/a	n/a	GoodResponse	1	0.0	n/a	1	33	ISIslide	Win	True
327.623	0.25	Lose2	0.5428999999999999	0.0	No	2.627	0.023	n/a	NoResponse	-1	n/a	n/a	0	34	Cue	Loss	True
327.873	4.05	Lose2	0.5428999999999999	0.0	No	2.627	0.0	2.0	NoResponse	-1	3.999	330.872	0	34	Fixation	Loss	True
331.872	0.3	Lose2	0.5428999999999999	0.0	No	2.627	0.0	2.0	NoResponse	-1	3.999	n/a	0	34	ButtonPress	Loss	True
331.922	0.24	Lose2	0.5428999999999999	0.001	No	2.627	-0.001	n/a	NoResponse	-1	n/a	n/a	0	34	Target	Loss	True
332.172	0.46	Lose2	0.5428999999999999	n/a	No	2.627	n/a	n/a	NoResponse	-1	n/a	n/a	0	34	Blank	Loss	True
332.621	1.45	Lose2	0.5428999999999999	n/a	No	2.627	n/a	5.0	NoResponse	-1	0.038	331.659	0	34	Feedback	Loss	True
334.071	2.627	Lose2	0.5428999999999999	n/a	No	2.627	n/a	n/a	NoResponse	-1	0.0	n/a	0	34	ISIslide	Loss	True
336.72	0.25	Lose2	0.5556	0.0	Yes	2.68	0.02	n/a	GoodResponse	0	n/a	n/a	0	35	Cue	AvoidedLoss	True
336.97	4.0	Lose2	0.5556	0.0	Yes	2.68	0.0	n/a	GoodResponse	0	n/a	n/a	0	35	Fixation	AvoidedLoss	True
340.969	0.25	Lose2	0.5556	0.001	Yes	2.68	-0.001	2.0	GoodResponse	0	0.199	340.168	0	35	Target	AvoidedLoss	True
341.168	0.3	Lose2	0.5556	0.001	Yes	2.68	-0.001	2.0	GoodResponse	0	0.199	n/a	0	35	ButtonPress	AvoidedLoss	True
341.218	0.45	Lose2	0.5556	n/a	Yes	2.68	n/a	n/a	GoodResponse	0	n/a	n/a	0	35	Blank	AvoidedLoss	True
341.668	1.45	Lose2	0.5556	n/a	Yes	2.68	n/a	5.0	GoodResponse	0	0.016	340.684	0	35	Feedback	AvoidedLoss	True
343.118	2.68	Lose2	0.5556	n/a	Yes	2.68	n/a	n/a	GoodResponse	0	0.0	n/a	0	35	ISIslide	AvoidedLoss	True
345.817	0.25	Control	0.5676	0.0	Yes	2.683	0.017	n/a	GoodResponse	0	n/a	n/a	0	36	Cue	Neutral	True
346.067	4.0	Control	0.5676	0.0	Yes	2.683	0.0	n/a	GoodResponse	0	n/a	n/a	0	36	Fixation	Neutral	True
350.065	0.26	Control	0.5676	0.002	Yes	2.683	-0.002	2.0	GoodResponse	0	0.126	349.191	0	36	Target	Neutral	True
350.191	0.3	Control	0.5676	0.002	Yes	2.683	-0.002	2.0	GoodResponse	0	0.126	n/a	0	36	ButtonPress	Neutral	True
350.332	0.44	Control	0.5676	n/a	Yes	2.683	n/a	n/a	GoodResponse	0	n/a	n/a	0	36	Blank	Neutral	True
350.765	1.45	Control	0.5676	n/a	Yes	2.683	n/a	5.0	GoodResponse	0	0.041	349.806	0	36	Feedback	Neutral	True
352.215	2.683	Control	0.5676	n/a	Yes	2.683	n/a	n/a	GoodResponse	0	0.0	n/a	0	36	ISIslide	Neutral	True
354.93	0.25	Win2	0.5526	0.0	No	2.87	0.03	n/a	NoResponse	0	n/a	n/a	0	37	Cue	MissedWin	True
355.18	4.0	Win2	0.5526	0.0	No	2.87	0.0	2.0	NoResponse	0	3.904	358.084	0	37	Fixation	MissedWin	True
359.084	0.3	Win2	0.5526	0.0	No	2.87	0.0	2.0	NoResponse	0	3.904	n/a	0	37	ButtonPress	MissedWin	True
359.179	0.27	Win2	0.5526	0.001	No	2.87	-0.001	n/a	NoResponse	0	n/a	n/a	0	37	Target	MissedWin	True
359.445	0.43	Win2	0.5526	n/a	No	2.87	n/a	n/a	NoResponse	0	n/a	n/a	0	37	Blank	MissedWin	True
359.879	1.45	Win2	0.5526	n/a	No	2.87	n/a	5.0	NoResponse	0	0.0	358.879	0	37	Feedback	MissedWin	True
361.328	2.87	Win2	0.5526	n/a	No	2.87	n/a	n/a	NoResponse	0	0.0	n/a	0	37	ISIslide	MissedWin	True
364.227	0.25	Lose2	0.5640999999999999	0.0	Yes	2.823	0.027	n/a	GoodResponse	0	n/a	n/a	0	38	Cue	AvoidedLoss	True
364.477	3.95	Lose2	0.5640999999999999	0.0	Yes	2.823	0.0	n/a	GoodResponse	0	n/a	n/a	0	38	Fixation	AvoidedLoss	True
368.426	0.28	Lose2	0.5640999999999999	0.001	Yes	2.823	-0.001	2.0	GoodResponse	0	0.206	367.632	0	38	Target	AvoidedLoss	True
368.632	0.3	Lose2	0.5640999999999999	0.001	Yes	2.823	-0.001	2.0	GoodResponse	0	0.206	n/a	0	38	ButtonPress	AvoidedLoss	True
368.709	0.42	Lose2	0.5640999999999999	n/a	Yes	2.823	n/a	n/a	GoodResponse	0	n/a	n/a	0	38	Blank	AvoidedLoss	True
369.125	1.45	Lose2	0.5640999999999999	n/a	Yes	2.823	n/a	5.0	GoodResponse	0	0.023	368.148	0	38	Feedback	AvoidedLoss	True
370.575	2.823	Lose2	0.5640999999999999	n/a	Yes	2.823	n/a	n/a	GoodResponse	0	0.0	n/a	0	38	ISIslide	AvoidedLoss	True
373.424	0.25	Win2	0.575	0.0	Yes	2.976	0.024	n/a	GoodResponse	1	n/a	n/a	1	39	Cue	Win	True
373.674	4.1	Win2	0.575	0.0	Yes	2.976	0.0	n/a	GoodResponse	1	n/a	n/a	1	39	Fixation	Win	True
377.772	0.29	Win2	0.575	0.002	Yes	2.976	-0.002	2.0	GoodResponse	1	0.235	377.007	1	39	Target	Win	True
378.007	0.3	Win2	0.575	0.002	Yes	2.976	-0.002	2.0	GoodResponse	1	0.235	n/a	1	39	ButtonPress	Win	True
378.072	0.41	Win2	0.575	n/a	Yes	2.976	n/a	n/a	GoodResponse	1	n/a	n/a	1	39	Blank	Win	True
378.472	1.45	Win2	0.575	n/a	Yes	2.976	n/a	5.0	GoodResponse	1	0.042	377.514	1	39	Feedback	Win	True
379.922	2.976	Win2	0.575	n/a	Yes	2.976	n/a	n/a	GoodResponse	1	0.0	n/a	1	39	ISIslide	Win	True
382.921	0.25	Win2	0.5854	0.0	Yes	2.729	0.021	n/a	GoodResponse	1	n/a	n/a	2	40	Cue	Win	False
383.171	3.95	Win2	0.5854	0.0	Yes	2.729	0.0	2.0	GoodResponse	1	2.789	384.96	2	40	Fixation	Win	False
385.96	0.3	Win2	0.5854	0.0	Yes	2.729	0.0	2.0	GoodResponse	1	2.789	n/a	2	40	ButtonPress	Win	False
387.119	0.3	Win2	0.5854	0.002	Yes	2.729	-0.002	2.0	GoodResponse	1	0.226	386.345	2	40	Target	Win	False
387.345	0.3	Win2	0.5854	0.002	Yes	2.729	-0.002	2.0	GoodResponse	1	0.226	n/a	2	40	ButtonPress	Win	False
387.419	0.4	Win2	0.5854	n/a	Yes	2.729	n/a	n/a	GoodResponse	1	n/a	n/a	2	40	Blank	Win	False
387.819	1.45	Win2	0.5854	n/a	Yes	2.729	n/a	5.0	GoodResponse	1	0.011	386.83	2	40	Feedback	Win	False
389.269	2.729	Win2	0.5854	n/a	Yes	2.729	n/a	n/a	GoodResponse	1	0.0	n/a	2	40	ISIslide	Win	False
392.018	0.25	Win2	0.5952000000000001	0.0	Yes	2.782	0.018	n/a	GoodResponse	1	n/a	n/a	3	41	Cue	Win	True
392.267	3.9	Win2	0.5952000000000001	0.001	Yes	2.782	-0.001	n/a	GoodResponse	1	n/a	n/a	3	41	Fixation	Win	True
396.166	0.31	Win2	0.5952000000000001	0.002	Yes	2.782	-0.002	2.0	GoodResponse	1	0.296	395.462	3	41	Target	Win	True
396.462	0.3	Win2	0.5952000000000001	0.002	Yes	2.782	-0.002	2.0	GoodResponse	1	0.296	n/a	3	41	ButtonPress	Win	True
396.483	0.39	Win2	0.5952000000000001	n/a	Yes	2.782	n/a	n/a	GoodResponse	1	n/a	n/a	3	41	Blank	Win	True
396.866	1.45	Win2	0.5952000000000001	n/a	Yes	2.782	n/a	5.0	GoodResponse	1	0.037	395.903	3	41	Feedback	Win	True
398.315	2.782	Win2	0.5952000000000001	n/a	Yes	2.782	n/a	n/a	GoodResponse	1	0.0	n/a	3	41	ISIslide	Win	True
401.114	0.25	Control	0.6047	0.001	Yes	2.936	0.014	n/a	GoodResponse	0	n/a	n/a	3	42	Cue	Neutral	True
401.364	3.85	Control	0.6047	0.0	Yes	2.936	0.0	n/a	GoodResponse	0	n/a	n/a	3	42	Fixation	Neutral	True
405.213	0.32	Control	0.6047	0.001	Yes	2.936	-0.001	2.0	GoodResponse	0	0.224	404.437	3	42	Target	Neutral	True
405.437	0.3	Control	0.6047	0.001	Yes	2.936	-0.001	2.0	GoodResponse	0	0.224	n/a	3	42	ButtonPress	Neutral	True
405.53	0.38	Control	0.6047	n/a	Yes	2.936	n/a	n/a	GoodResponse	0	n/a	n/a	3	42	Blank	Neutral	True
405.913	1.45	Control	0.6047	n/a	Yes	2.936	n/a	5.0	GoodResponse	0	0.015	404.928	3	42	Feedback	Neutral	True
407.362	2.936	Control	0.6047	n/a	Yes	2.936	n/a	n/a	GoodResponse	0	0.0	n/a	3	42	ISIslide	Neutral	True
410.328	0.25	Win2	0.6136	0.0	Yes	3.172	0.028	n/a	GoodResponse	1	n/a	n/a	4	43	Cue	Win	True
410.578	4.0	Win2	0.6136	0.0	Yes	3.172	0.0	n/a	GoodResponse	1	n/a	n/a	4	43	Fixation	Win	True
414.576	0.33	Win2	0.6136	0.002	Yes	3.172	-0.002	2.0	GoodResponse	1	0.202	413.778	4	43	Target	Win	True
414.778	0.3	Win2	0.6136	0.002	Yes	3.172	-0.002	2.0	GoodResponse	1	0.202	n/a	4	43	ButtonPress	Win	True
414.91	0.37	Win2	0.6136	n/a	Yes	3.172	n/a	n/a	GoodResponse	1	n/a	n/a	4	43	Blank	Win	True
415.276	1.45	Win2	0.6136	n/a	Yes	3.172	n/a	5.0	GoodResponse	1	0.018	414.294	4	43	Feedback	Win	True
416.726	3.172	Win2	0.6136	n/a	Yes	3.172	n/a	n/a	GoodResponse	1	0.0	n/a	4	43	ISIslide	Win	True
419.925	0.25	Win2	0.6222	0.0	Yes	2.975	0.025	n/a	GoodResponse	1	n/a	n/a	5	44	Cue	Win	True
420.174	4.0	Win2	0.6222	0.001	Yes	2.975	-0.001	n/a	GoodResponse	1	n/a	n/a	5	44	Fixation	Win	True
424.173	0.34	Win2	0.6222	0.002	Yes	2.975	-0.002	2.0	GoodResponse	1	0.224	423.397	5	44	Target	Win	True
424.397	0.3	Win2	0.6222	0.002	Yes	2.975	-0.002	2.0	GoodResponse	1	0.224	n/a	5	44	ButtonPress	Win	True
424.523	0.36	Win2	0.6222	n/a	Yes	2.975	n/a	n/a	GoodResponse	1	n/a	n/a	5	44	Blank	Win	True
424.873	1.45	Win2	0.6222	n/a	Yes	2.975	n/a	5.0	GoodResponse	1	0.03	423.903	5	44	Feedback	Win	True
426.322	2.975	Win2	0.6222	n/a	Yes	2.975	n/a	n/a	GoodResponse	1	0.0	n/a	5	44	ISIslide	Win	True
429.321	0.25	Control	0.6304	0.0	Yes	2.879	0.021	n/a	GoodResponse	0	n/a	n/a	5	45	Cue	Neutral	True
429.571	4.1	Control	0.6304	0.0	Yes	2.879	0.0	n/a	GoodResponse	0	n/a	n/a	5	45	Fixation	Neutral	True
433.67	0.35	Control	0.6304	0.001	Yes	2.879	-0.001	2.0	GoodResponse	0	0.228	432.898	5	45	Target	Neutral	True
433.898	0.3	Control	0.6304	0.001	Yes	2.879	-0.001	2.0	GoodResponse	0	0.228	n/a	5	45	ButtonPress	Neutral	True
434.02	0.35	Control	0.6304	n/a	Yes	2.879	n/a	n/a	GoodResponse	0	n/a	n/a	5	45	Blank	Neutral	True
434.37	1.45	Control	0.6304	n/a	Yes	2.879	n/a	5.0	GoodResponse	0	0.046	433.416	5	45	Feedback	Neutral	True
435.819	2.879	Control	0.6304	n/a	Yes	2.879	n/a	n/a	GoodResponse	0	0.0	n/a	5	45	ISIslide	Neutral	True
438.718	0.25	Lose2	0.6383	0.0	Yes	3.382	0.018	n/a	GoodResponse	0	n/a	n/a	5	46	Cue	AvoidedLoss	True
438.968	4.0	Lose2	0.6383	0.0	Yes	3.382	0.0	n/a	GoodResponse	0	n/a	n/a	5	46	Fixation	AvoidedLoss	True
442.967	0.36	Lose2	0.6383	0.001	Yes	3.382	-0.001	2.0	GoodResponse	0	0.212	442.179	5	46	Target	AvoidedLoss	True
443.179	0.3	Lose2	0.6383	0.001	Yes	3.382	-0.001	2.0	GoodResponse	0	0.212	n/a	5	46	ButtonPress	AvoidedLoss	True
443.333	0.34	Lose2	0.6383	n/a	Yes	3.382	n/a	n/a	GoodResponse	0	n/a	n/a	5	46	Blank	AvoidedLoss	True
443.666	1.45	Lose2	0.6383	n/a	Yes	3.382	n/a	5.0	GoodResponse	0	0.017	442.683	5	46	Feedback	AvoidedLoss	True
445.116	3.382	Lose2	0.6383	n/a	Yes	3.382	n/a	n/a	GoodResponse	0	0.0	n/a	5	46	ISIslide	AvoidedLoss	True
448.515	0.25	Lose2	0.6457999999999999	0.0	Yes	2.685	0.015	n/a	GoodResponse	0	n/a	n/a	5	47	Cue	AvoidedLoss	True
448.765	4.0	Lose2	0.6457999999999999	0.0	Yes	2.685	0.0	n/a	GoodResponse	0	n/a	n/a	5	47	Fixation	AvoidedLoss	True
452.763	0.37	Lose2	0.6457999999999999	0.002	Yes	2.685	-0.002	2.0	GoodResponse	0	0.277	452.04	5	47	Target	AvoidedLoss	True
453.04	0.3	Lose2	0.6457999999999999	0.002	Yes	2.685	-0.002	2.0	GoodResponse	0	0.277	n/a	5	47	ButtonPress	AvoidedLoss	True
453.146	0.33	Lose2	0.6457999999999999	n/a	Yes	2.685	n/a	n/a	GoodResponse	0	n/a	n/a	5	47	Blank	AvoidedLoss	True
453.463	1.45	Lose2	0.6457999999999999	n/a	Yes	2.685	n/a	5.0	GoodResponse	0	0.025	452.488	5	47	Feedback	AvoidedLoss	True
454.912	2.685	Lose2	0.6457999999999999	n/a	Yes	2.685	n/a	n/a	GoodResponse	0	0.0	n/a	5	47	ISIslide	AvoidedLoss	True
457.612	0.25	Lose2	0.6531	0.0	Yes	3.038	0.012	n/a	GoodResponse	0	n/a	n/a	5	48	Cue	AvoidedLoss	True
457.861	3.95	Lose2	0.6531	0.001	Yes	3.038	-0.001	n/a	GoodResponse	0	n/a	n/a	5	48	Fixation	AvoidedLoss	True
461.81	0.38	Lose2	0.6531	0.002	Yes	3.038	-0.002	2.0	GoodResponse	0	0.297	461.107	5	48	Target	AvoidedLoss	True
462.107	0.3	Lose2	0.6531	0.002	Yes	3.038	-0.002	2.0	GoodResponse	0	0.297	n/a	5	48	ButtonPress	AvoidedLoss	True
462.193	0.32	Lose2	0.6531	n/a	Yes	3.038	n/a	n/a	GoodResponse	0	n/a	n/a	5	48	Blank	AvoidedLoss	True
462.51	1.45	Lose2	0.6531	n/a	Yes	3.038	n/a	5.0	GoodResponse	0	0.004	461.514	5	48	Feedback	AvoidedLoss	True
463.959	3.038	Lose2	0.6531	n/a	Yes	3.038	n/a	n/a	GoodResponse	0	0.0	n/a	5	48	ISIslide	AvoidedLoss	True
467.025	0.25	Control	0.66	0.0	Yes	2.875	0.025	n/a	GoodResponse	0	n/a	n/a	5	49	Cue	Neutral	True
467.275	4.0	Control	0.66	0.0	Yes	2.875	0.0	n/a	GoodResponse	0	n/a	n/a	5	49	Fixation	Neutral	True
471.273	0.39	Control	0.66	0.002	Yes	2.875	-0.002	2.0	GoodResponse	0	0.196	470.469	5	49	Target	Neutral	True
471.469	0.3	Control	0.66	0.002	Yes	2.875	-0.002	2.0	GoodResponse	0	0.196	n/a	5	49	ButtonPress	Neutral	True
471.673	0.31	Control	0.66	n/a	Yes	2.875	n/a	n/a	GoodResponse	0	n/a	n/a	5	49	Blank	Neutral	True
471.973	1.45	Control	0.66	n/a	Yes	2.875	n/a	5.0	GoodResponse	0	0.004	470.977	5	49	Feedback	Neutral	True
473.423	2.875	Control	0.66	n/a	Yes	2.875	n/a	n/a	GoodResponse	0	0.0	n/a	5	49	ISIslide	Neutral	True
476.322	0.25	Control	0.6667000000000001	0.0	Yes	2.778	0.022	n/a	GoodResponse	0	n/a	n/a	5	50	Cue	Neutral	True
476.572	4.0	Control	0.6667000000000001	0.0	Yes	2.778	0.0	n/a	GoodResponse	0	n/a	n/a	5	50	Fixation	Neutral	True
480.57	0.39	Control	0.6667000000000001	0.002	Yes	2.778	-0.002	2.0	GoodResponse	0	0.243	479.813	5	50	Target	Neutral	True
480.813	0.3	Control	0.6667000000000001	0.002	Yes	2.778	-0.002	2.0	GoodResponse	0	0.243	n/a	5	50	ButtonPress	Neutral	True
480.97	0.31	Control	0.6667000000000001	n/a	Yes	2.778	n/a	n/a	GoodResponse	0	n/a	n/a	5	50	Blank	Neutral	True
481.27	1.45	Control	0.6667000000000001	n/a	Yes	2.778	n/a	5.0	GoodResponse	0	0.023	480.293	5	50	Feedback	Neutral	True
482.72	2.778	Control	0.6667000000000001	n/a	Yes	2.778	n/a	n/a	GoodResponse	0	0.0	n/a	5	50	ISIslide	Neutral	True
485.519	0.25	Control	0.6731	0.0	Yes	2.731	0.019	n/a	GoodResponse	0	n/a	n/a	5	51	Cue	Neutral	True
485.768	3.95	Control	0.6731	0.001	Yes	2.731	-0.001	n/a	GoodResponse	0	n/a	n/a	5	51	Fixation	Neutral	True
489.717	0.38	Control	0.6731	0.002	Yes	2.731	-0.002	2.0	GoodResponse	0	0.252	488.969	5	51	Target	Neutral	True
489.969	0.3	Control	0.6731	0.002	Yes	2.731	-0.002	2.0	GoodResponse	0	0.252	n/a	5	51	ButtonPress	Neutral	True
490.1	0.32	Control	0.6731	n/a	Yes	2.731	n/a	n/a	GoodResponse	0	n/a	n/a	5	51	Blank	Neutral	True
490.417	1.45	Control	0.6731	n/a	Yes	2.731	n/a	5.0	GoodResponse	0	0.047	489.464	5	51	Feedback	Neutral	True
491.866	2.731	Control	0.6731	n/a	Yes	2.731	n/a	n/a	GoodResponse	0	0.0	n/a	5	51	ISIslide	Neutral	True
494.615	0.25	Control	0.6792	0.001	Yes	2.635	0.015	n/a	GoodResponse	0	n/a	n/a	5	52	Cue	Neutral	True
494.865	4.05	Control	0.6792	0.0	Yes	2.635	0.0	n/a	GoodResponse	0	n/a	n/a	5	52	Fixation	Neutral	True
498.914	0.37	Control	0.6792	0.001	Yes	2.635	-0.001	2.0	GoodResponse	0	0.243	498.157	5	52	Target	Neutral	True
499.157	0.3	Control	0.6792	0.001	Yes	2.635	-0.001	2.0	GoodResponse	0	0.243	n/a	5	52	ButtonPress	Neutral	True
499.28	0.33	Control	0.6792	n/a	Yes	2.635	n/a	n/a	GoodResponse	0	n/a	n/a	5	52	Blank	Neutral	True
499.614	1.45	Control	0.6792	n/a	Yes	2.635	n/a	5.0	GoodResponse	0	0.02	498.634	5	52	Feedback	Neutral	True
501.063	2.635	Control	0.6792	n/a	Yes	2.635	n/a	n/a	GoodResponse	0	0.0	n/a	5	52	ISIslide	Neutral	True
503.712	0.25	Win2	0.6851999999999999	0.0	Yes	2.938	0.012	n/a	GoodResponse	1	n/a	n/a	6	53	Cue	Win	True
503.962	4.05	Win2	0.6851999999999999	0.0	Yes	2.938	0.0	n/a	GoodResponse	1	n/a	n/a	6	53	Fixation	Win	True
508.011	0.36	Win2	0.6851999999999999	0.001	Yes	2.938	-0.001	2.0	GoodResponse	1	0.226	507.237	6	53	Target	Win	True
508.237	0.3	Win2	0.6851999999999999	0.001	Yes	2.938	-0.001	2.0	GoodResponse	1	0.226	n/a	6	53	ButtonPress	Win	True
508.377	0.34	Win2	0.6851999999999999	n/a	Yes	2.938	n/a	n/a	GoodResponse	1	n/a	n/a	6	53	Blank	Win	True
508.711	1.45	Win2	0.6851999999999999	n/a	Yes	2.938	n/a	5.0	GoodResponse	1	0.045	507.756	6	53	Feedback	Win	True
510.16	2.938	Win2	0.6851999999999999	n/a	Yes	2.938	n/a	n/a	GoodResponse	1	0.0	n/a	6	53	ISIslide	Win	True
513.126	0.25	Win2	0.6909000000000001	0.0	Yes	2.724	0.026	n/a	GoodResponse	1	n/a	n/a	7	54	Cue	Win	True
513.376	3.95	Win2	0.6909000000000001	0.0	Yes	2.724	0.0	n/a	GoodResponse	1	n/a	n/a	7	54	Fixation	Win	True
517.324	0.35	Win2	0.6909000000000001	0.002	Yes	2.724	-0.002	2.0	GoodResponse	1	0.24	516.564	7	54	Target	Win	True
517.564	0.3	Win2	0.6909000000000001	0.002	Yes	2.724	-0.002	2.0	GoodResponse	1	0.24	n/a	7	54	ButtonPress	Win	True
517.674	0.35	Win2	0.6909000000000001	n/a	Yes	2.724	n/a	n/a	GoodResponse	1	n/a	n/a	7	54	Blank	Win	True
518.024	1.45	Win2	0.6909000000000001	n/a	Yes	2.724	n/a	5.0	GoodResponse	1	0.001	517.025	7	54	Feedback	Win	True
519.473	2.724	Win2	0.6909000000000001	n/a	Yes	2.724	n/a	n/a	GoodResponse	1	0.0	n/a	7	54	ISIslide	Win	True
522.223	0.25	Control	0.6964	0.0	Yes	3.027	0.023	n/a	GoodResponse	0	n/a	n/a	7	55	Cue	Neutral	True
522.472	3.95	Control	0.6964	0.001	Yes	3.027	-0.001	n/a	GoodResponse	0	n/a	n/a	7	55	Fixation	Neutral	True
526.421	0.34	Control	0.6964	0.002	Yes	3.027	-0.002	2.0	GoodResponse	0	0.209	525.63	7	55	Target	Neutral	True
526.63	0.3	Control	0.6964	0.002	Yes	3.027	-0.002	2.0	GoodResponse	0	0.209	n/a	7	55	ButtonPress	Neutral	True
526.771	0.36	Control	0.6964	n/a	Yes	3.027	n/a	n/a	GoodResponse	0	n/a	n/a	7	55	Blank	Neutral	True
527.121	1.45	Control	0.6964	n/a	Yes	3.027	n/a	5.0	GoodResponse	0	0.026	526.147	7	55	Feedback	Neutral	True
528.57	3.027	Control	0.6964	n/a	Yes	3.027	n/a	n/a	GoodResponse	0	0.0	n/a	7	55	ISIslide	Neutral	True
531.619	0.25	Control	0.7018000000000001	0.0	Yes	2.831	0.019	n/a	GoodResponse	0	n/a	n/a	7	56	Cue	Neutral	True
531.869	3.95	Control	0.7018000000000001	0.0	Yes	2.831	0.0	n/a	GoodResponse	0	n/a	n/a	7	56	Fixation	Neutral	True
535.818	0.33	Control	0.7018000000000001	0.001	Yes	2.831	-0.001	2.0	GoodResponse	0	0.23	535.048	7	56	Target	Neutral	True
536.048	0.3	Control	0.7018000000000001	0.001	Yes	2.831	-0.001	2.0	GoodResponse	0	0.23	n/a	7	56	ButtonPress	Neutral	True
536.151	0.37	Control	0.7018000000000001	n/a	Yes	2.831	n/a	n/a	GoodResponse	0	n/a	n/a	7	56	Blank	Neutral	True
536.518	1.45	Control	0.7018000000000001	n/a	Yes	2.831	n/a	5.0	GoodResponse	0	0.043	535.561	7	56	Feedback	Neutral	True
537.967	2.831	Control	0.7018000000000001	n/a	Yes	2.831	n/a	n/a	GoodResponse	0	0.0	n/a	7	56	ISIslide	Neutral	True
540.816	0.25	Control	0.7069	0.0	Yes	3.484	0.016	n/a	GoodResponse	0	n/a	n/a	7	57	Cue	Neutral	True
541.066	4.0	Control	0.7069	0.0	Yes	3.484	0.0	n/a	GoodResponse	0	n/a	n/a	7	57	Fixation	Neutral	True
545.065	0.32	Control	0.7069	0.001	Yes	3.484	-0.001	2.0	GoodResponse	0	0.226	544.291	7	57	Target	Neutral	True
545.291	0.3	Control	0.7069	0.001	Yes	3.484	-0.001	2.0	GoodResponse	0	0.226	n/a	7	57	ButtonPress	Neutral	True
545.398	0.38	Control	0.7069	n/a	Yes	3.484	n/a	n/a	GoodResponse	0	n/a	n/a	7	57	Blank	Neutral	True
545.764	1.45	Control	0.7069	n/a	Yes	3.484	n/a	5.0	GoodResponse	0	0.017	544.781	7	57	Feedback	Neutral	True
547.214	3.484	Control	0.7069	n/a	Yes	3.484	n/a	n/a	GoodResponse	0	0.0	n/a	7	57	ISIslide	Neutral	True
550.713	0.25	Win2	0.7119	0.0	Yes	2.737	0.013	n/a	GoodResponse	1	n/a	n/a	8	58	Cue	Win	True
550.963	4.05	Win2	0.7119	0.0	Yes	2.737	0.0	n/a	GoodResponse	1	n/a	n/a	8	58	Fixation	Win	True
555.011	0.31	Win2	0.7119	0.002	Yes	2.737	-0.002	2.0	GoodResponse	1	0.267	554.278	8	58	Target	Win	True
555.278	0.3	Win2	0.7119	0.002	Yes	2.737	-0.002	2.0	GoodResponse	1	0.267	n/a	8	58	ButtonPress	Win	True
555.328	0.39	Win2	0.7119	n/a	Yes	2.737	n/a	n/a	GoodResponse	1	n/a	n/a	8	58	Blank	Win	True
555.711	1.45	Win2	0.7119	n/a	Yes	2.737	n/a	5.0	GoodResponse	1	0.021	554.732	8	58	Feedback	Win	True
557.16	2.737	Win2	0.7119	n/a	Yes	2.737	n/a	n/a	GoodResponse	1	0.0	n/a	8	58	ISIslide	Win	True
559.926	0.25	Lose2	0.7167	0.0	Yes	2.674	0.026	n/a	GoodResponse	0	n/a	n/a	8	59	Cue	AvoidedLoss	True
560.176	4.0	Lose2	0.7167	0.0	Yes	2.674	0.0	n/a	GoodResponse	0	n/a	n/a	8	59	Fixation	AvoidedLoss	True
564.175	0.3	Lose2	0.7167	0.001	Yes	2.674	-0.001	2.0	GoodResponse	0	0.21	563.385	8	59	Target	AvoidedLoss	True
564.385	0.3	Lose2	0.7167	0.001	Yes	2.674	-0.001	2.0	GoodResponse	0	0.21	n/a	8	59	ButtonPress	AvoidedLoss	True
564.475	0.4	Lose2	0.7167	n/a	Yes	2.674	n/a	n/a	GoodResponse	0	n/a	n/a	8	59	Blank	AvoidedLoss	True
564.874	1.45	Lose2	0.7167	n/a	Yes	2.674	n/a	5.0	GoodResponse	0	0.028	563.902	8	59	Feedback	AvoidedLoss	True
566.324	2.674	Lose2	0.7167	n/a	Yes	2.674	n/a	n/a	GoodResponse	0	0.0	n/a	8	59	ISIslide	AvoidedLoss	True
569.023	0.25	Control	0.7212999999999999	0.0	Yes	2.677	0.023	n/a	GoodResponse	0	n/a	n/a	8	60	Cue	Neutral	True
569.273	4.0	Control	0.7212999999999999	0.0	Yes	2.677	0.0	n/a	GoodResponse	0	n/a	n/a	8	60	Fixation	Neutral	True
573.272	0.29	Control	0.7212999999999999	0.001	Yes	2.677	-0.001	2.0	GoodResponse	0	0.224	572.496	8	60	Target	Neutral	True
573.496	0.3	Control	0.7212999999999999	0.001	Yes	2.677	-0.001	2.0	GoodResponse	0	0.224	n/a	8	60	ButtonPress	Neutral	True
573.571	0.41	Control	0.7212999999999999	n/a	Yes	2.677	n/a	n/a	GoodResponse	0	n/a	n/a	8	60	Blank	Neutral	True
573.971	1.45	Control	0.7212999999999999	n/a	Yes	2.677	n/a	5.0	GoodResponse	0	0.005	572.976	8	60	Feedback	Neutral	True
575.421	2.677	Control	0.7212999999999999	n/a	Yes	2.677	n/a	n/a	GoodResponse	0	0.0	n/a	8	60	ISIslide	Neutral	True
578.12	0.25	Lose2	0.7258	0.0	Yes	2.98	0.02	n/a	GoodResponse	0	n/a	n/a	8	61	Cue	AvoidedLoss	True
578.37	4.0	Lose2	0.7258	0.0	Yes	2.98	0.0	n/a	GoodResponse	0	n/a	n/a	8	61	Fixation	AvoidedLoss	True
582.368	0.28	Lose2	0.7258	0.002	Yes	2.98	-0.002	2.0	GoodResponse	0	0.25	581.618	8	61	Target	AvoidedLoss	True
582.618	0.3	Lose2	0.7258	0.002	Yes	2.98	-0.002	2.0	GoodResponse	0	0.25	n/a	8	61	ButtonPress	AvoidedLoss	True
582.652	0.42	Lose2	0.7258	n/a	Yes	2.98	n/a	n/a	GoodResponse	0	n/a	n/a	8	61	Blank	AvoidedLoss	True
583.068	1.45	Lose2	0.7258	n/a	Yes	2.98	n/a	5.0	GoodResponse	0	0.03	582.098	8	61	Feedback	AvoidedLoss	True
584.518	2.98	Lose2	0.7258	n/a	Yes	2.98	n/a	n/a	GoodResponse	0	0.0	n/a	8	61	ISIslide	AvoidedLoss	True
587.517	0.25	Lose2	0.7143	0.0	No	2.883	0.017	n/a	LatePress	-1	n/a	n/a	7	62	Cue	Loss	True
587.767	3.9	Lose2	0.7143	0.0	No	2.883	0.0	n/a	LatePress	-1	n/a	n/a	7	62	Fixation	Loss	True
591.665	0.27	Lose2	0.7143	0.002	No	2.883	-0.002	2.0	LatePress	-1	0.271	590.936	7	62	Target	Loss	True
591.936	0.3	Lose2	0.7143	0.002	No	2.883	-0.002	2.0	LatePress	-1	0.271	n/a	7	62	ButtonPress	Loss	True
591.948	0.43	Lose2	0.7143	n/a	No	2.883	n/a	n/a	LatePress	-1	n/a	n/a	7	62	Blank	Loss	True
592.365	1.45	Lose2	0.7143	n/a	No	2.883	n/a	5.0	LatePress	-1	0.001	591.366	7	62	Feedback	Loss	True
593.814	2.883	Lose2	0.7143	n/a	No	2.883	n/a	n/a	LatePress	-1	0.0	n/a	7	62	ISIslide	Loss	True
596.713	0.25	Lose2	0.7188	0.001	Yes	2.637	0.013	n/a	GoodResponse	0	n/a	n/a	7	63	Cue	AvoidedLoss	True
596.963	4.05	Lose2	0.7188	0.0	Yes	2.637	0.0	n/a	GoodResponse	0	n/a	n/a	7	63	Fixation	AvoidedLoss	True
601.012	0.26	Lose2	0.7188	0.001	Yes	2.637	-0.001	2.0	GoodResponse	0	0.214	600.226	7	63	Target	AvoidedLoss	True
601.226	0.3	Lose2	0.7188	0.001	Yes	2.637	-0.001	2.0	GoodResponse	0	0.214	n/a	7	63	ButtonPress	AvoidedLoss	True
601.279	0.44	Lose2	0.7188	n/a	Yes	2.637	n/a	n/a	GoodResponse	0	n/a	n/a	7	63	Blank	AvoidedLoss	True
601.712	1.45	Lose2	0.7188	n/a	Yes	2.637	n/a	5.0	GoodResponse	0	0.02	600.732	7	63	Feedback	AvoidedLoss	True
603.161	2.637	Lose2	0.7188	n/a	Yes	2.637	n/a	n/a	GoodResponse	0	0.0	n/a	7	63	ISIslide	AvoidedLoss	True
605.827	0.25	Win2	0.7231000000000001	0.0	Yes	3.123	0.027	n/a	GoodResponse	1	n/a	n/a	8	64	Cue	Win	True
606.077	4.15	Win2	0.7231000000000001	0.0	Yes	3.123	0.0	n/a	GoodResponse	1	n/a	n/a	8	64	Fixation	Win	True
610.225	0.25	Win2	0.7231000000000001	0.002	Yes	3.123	-0.002	2.0	GoodResponse	1	0.249	609.474	8	64	Target	Win	True
610.474	0.3	Win2	0.7231000000000001	0.002	Yes	3.123	-0.002	2.0	GoodResponse	1	0.249	n/a	8	64	ButtonPress	Win	True
610.475	0.45	Win2	0.7231000000000001	n/a	Yes	3.123	n/a	n/a	GoodResponse	1	n/a	n/a	8	64	Blank	Win	True
610.925	1.45	Win2	0.7231000000000001	n/a	Yes	3.123	n/a	5.0	GoodResponse	1	0.027	609.952	8	64	Feedback	Win	True
612.375	3.123	Win2	0.7231000000000001	n/a	Yes	3.123	n/a	n/a	GoodResponse	1	0.0	n/a	8	64	ISIslide	Win	True
615.524	0.25	Control	0.7121	0.0	No	2.776	0.024	n/a	NoResponse	0	n/a	n/a	8	65	Cue	Neutral	True
615.774	4.0	Control	0.7121	0.0	No	2.776	0.0	n/a	NoResponse	0	n/a	n/a	8	65	Fixation	Neutral	True
619.772	0.24	Control	0.7121	0.002	No	2.776	-0.002	2.0	NoResponse	0	0.296	619.068	8	65	Target	Neutral	True
620.022	0.46	Control	0.7121	n/a	No	2.776	n/a	n/a	NoResponse	0	n/a	n/a	8	65	Blank	Neutral	True
620.068	0.3	Control	0.7121	0.002	No	2.776	-0.002	2.0	NoResponse	0	0.296	n/a	8	65	ButtonPress	Neutral	True
620.472	1.45	Control	0.7121	n/a	No	2.776	n/a	5.0	NoResponse	0	0.04	619.512	8	65	Feedback	Neutral	True
621.921	2.776	Control	0.7121	n/a	No	2.776	n/a	n/a	NoResponse	0	0.0	n/a	8	65	ISIslide	Neutral	True
624.72	0.25	Win2	0.7164	0.0	Yes	2.78	0.02	n/a	GoodResponse	1	n/a	n/a	9	66	Cue	Win	True
624.97	3.9	Win2	0.7164	0.0	Yes	2.78	0.0	n/a	GoodResponse	1	n/a	n/a	9	66	Fixation	Win	True
628.869	0.23	Win2	0.7164	0.001	Yes	2.78	-0.001	2.0	GoodResponse	1	0.219	628.088	9	66	Target	Win	True
629.088	0.3	Win2	0.7164	0.001	Yes	2.78	-0.001	2.0	GoodResponse	1	0.219	n/a	9	66	ButtonPress	Win	True
629.102	0.47	Win2	0.7164	n/a	Yes	2.78	n/a	n/a	GoodResponse	1	n/a	n/a	9	66	Blank	Win	True
629.569	1.45	Win2	0.7164	n/a	Yes	2.78	n/a	5.0	GoodResponse	1	0.016	628.585	9	66	Feedback	Win	True
631.018	2.78	Win2	0.7164	n/a	Yes	2.78	n/a	n/a	GoodResponse	1	0.0	n/a	9	66	ISIslide	Win	True
633.817	0.25	Control	0.7206	0.0	Yes	2.733	0.017	n/a	GoodResponse	0	n/a	n/a	9	67	Cue	Neutral	True
634.067	3.95	Control	0.7206	0.0	Yes	2.733	0.0	n/a	GoodResponse	0	n/a	n/a	9	67	Fixation	Neutral	True
638.016	0.22	Control	0.7206	0.001	Yes	2.733	-0.001	2.0	GoodResponse	0	0.202	637.218	9	67	Target	Neutral	True
638.218	0.3	Control	0.7206	0.001	Yes	2.733	-0.001	2.0	GoodResponse	0	0.202	n/a	9	67	ButtonPress	Neutral	True
638.232	0.48	Control	0.7206	n/a	Yes	2.733	n/a	n/a	GoodResponse	0	n/a	n/a	9	67	Blank	Neutral	True
638.716	1.45	Control	0.7206	n/a	Yes	2.733	n/a	5.0	GoodResponse	0	0.04	637.756	9	67	Feedback	Neutral	True
640.165	2.733	Control	0.7206	n/a	Yes	2.733	n/a	n/a	GoodResponse	0	0.0	n/a	9	67	ISIslide	Neutral	True
642.914	0.25	Win2	0.7101000000000001	0.0	No	3.086	0.014	n/a	NoResponse	0	n/a	n/a	9	68	Cue	MissedWin	True
643.164	4.0	Win2	0.7101000000000001	0.0	No	3.086	0.0	n/a	NoResponse	0	n/a	n/a	9	68	Fixation	MissedWin	True
647.163	0.21	Win2	0.7101000000000001	0.001	No	3.086	-0.001	2.0	NoResponse	0	0.222	646.385	9	68	Target	MissedWin	True
647.379	0.49	Win2	0.7101000000000001	n/a	No	3.086	n/a	n/a	NoResponse	0	n/a	n/a	9	68	Blank	MissedWin	True
647.385	0.3	Win2	0.7101000000000001	0.001	No	3.086	-0.001	2.0	NoResponse	0	0.222	n/a	9	68	ButtonPress	MissedWin	True
647.862	1.45	Win2	0.7101000000000001	n/a	No	3.086	n/a	5.0	NoResponse	0	0.016	646.878	9	68	Feedback	MissedWin	True
649.312	3.086	Win2	0.7101000000000001	n/a	No	3.086	n/a	n/a	NoResponse	0	0.0	n/a	9	68	ISIslide	MissedWin	True
652.411	0.25	Win2	0.7	0.0	No	3.239	0.011	n/a	NoResponse	0	n/a	n/a	9	69	Cue	MissedWin	True
652.661	3.95	Win2	0.7	0.0	No	3.239	0.0	n/a	NoResponse	0	n/a	n/a	9	69	Fixation	MissedWin	True
656.609	0.2	Win2	0.7	0.002	No	3.239	-0.002	2.0	NoResponse	0	0.21	655.819	9	69	Target	MissedWin	True
656.809	0.5	Win2	0.7	n/a	No	3.239	n/a	n/a	NoResponse	0	n/a	n/a	9	69	Blank	MissedWin	True
656.819	0.3	Win2	0.7	0.002	No	3.239	-0.002	2.0	NoResponse	0	0.21	n/a	9	69	ButtonPress	MissedWin	True
657.309	1.45	Win2	0.7	n/a	No	3.239	n/a	5.0	NoResponse	0	0.032	656.341	9	69	Feedback	MissedWin	True
658.759	3.239	Win2	0.7	n/a	No	3.239	n/a	n/a	NoResponse	0	0.0	n/a	9	69	ISIslide	MissedWin	True
662.024	0.25	Lose2	0.6901	0.0	No	3.026	0.024	n/a	NoResponse	-1	n/a	n/a	8	70	Cue	Loss	True
662.274	4.05	Lose2	0.6901	0.0	No	3.026	0.0	n/a	NoResponse	-1	n/a	n/a	8	70	Fixation	Loss	True
666.323	0.19	Lose2	0.6901	0.001	No	3.026	-0.001	2.0	NoResponse	-1	0.205	665.528	8	70	Target	Loss	True
666.523	0.51	Lose2	0.6901	n/a	No	3.026	n/a	n/a	NoResponse	-1	n/a	n/a	8	70	Blank	Loss	True
666.528	0.3	Lose2	0.6901	0.001	No	3.026	-0.001	2.0	NoResponse	-1	0.205	n/a	8	70	ButtonPress	Loss	True
667.022	1.45	Lose2	0.6901	n/a	No	3.026	n/a	5.0	NoResponse	-1	0.027	666.049	8	70	Feedback	Loss	True
668.472	3.026	Lose2	0.6901	n/a	No	3.026	n/a	n/a	NoResponse	-1	0.0	n/a	8	70	ISIslide	Loss	True
671.521	0.25	Win2	0.6806	0.0	No	2.729	0.021	n/a	NoResponse	0	n/a	n/a	8	71	Cue	MissedWin	True
671.771	4.05	Win2	0.6806	0.0	No	2.729	0.0	n/a	NoResponse	0	n/a	n/a	8	71	Fixation	MissedWin	True
675.819	0.18	Win2	0.6806	0.002	No	2.729	-0.002	2.0	NoResponse	0	0.229	675.048	8	71	Target	MissedWin	True
676.003	0.52	Win2	0.6806	n/a	No	2.729	n/a	n/a	NoResponse	0	n/a	n/a	8	71	Blank	MissedWin	True
676.048	0.3	Win2	0.6806	0.002	No	2.729	-0.002	2.0	NoResponse	0	0.229	n/a	8	71	ButtonPress	MissedWin	True
676.519	1.45	Win2	0.6806	n/a	No	2.729	n/a	5.0	NoResponse	0	0.042	675.561	8	71	Feedback	MissedWin	True
677.969	2.729	Win2	0.6806	n/a	No	2.729	n/a	n/a	NoResponse	0	0.0	n/a	8	71	ISIslide	MissedWin	True
680.718	0.25	Win2	0.6712	0.0	No	2.782	0.018	n/a	NoResponse	0	n/a	n/a	8	72	Cue	MissedWin	True
680.968	4.1	Win2	0.6712	0.0	No	2.782	0.0	n/a	NoResponse	0	n/a	n/a	8	72	Fixation	MissedWin	True
685.066	0.17	Win2	0.6712	0.002	No	2.782	-0.002	2.0	NoResponse	0	0.207	684.273	8	72	Target	MissedWin	True
685.249	0.53	Win2	0.6712	n/a	No	2.782	n/a	n/a	NoResponse	0	n/a	n/a	8	72	Blank	MissedWin	True
685.273	0.3	Win2	0.6712	0.002	No	2.782	-0.002	2.0	NoResponse	0	0.207	n/a	8	72	ButtonPress	MissedWin	True
685.766	1.45	Win2	0.6712	n/a	No	2.782	n/a	5.0	NoResponse	0	0.014	684.78	8	72	Feedback	MissedWin	True
687.215	2.782	Win2	0.6712	n/a	No	2.782	n/a	n/a	NoResponse	0	0.0	n/a	8	72	ISIslide	MissedWin	True
690.015	0.25	Win2	0.6622	0.0	No	2.685	0.015	n/a	NoResponse	0	n/a	n/a	8	73	Cue	MissedWin	True
690.264	4.0	Win2	0.6622	0.001	No	2.685	-0.001	n/a	NoResponse	0	n/a	n/a	8	73	Fixation	MissedWin	True
694.263	0.16	Win2	0.6622	0.002	No	2.685	-0.002	2.0	NoResponse	0	0.255	693.518	8	73	Target	MissedWin	True
694.43	0.54	Win2	0.6622	n/a	No	2.685	n/a	n/a	NoResponse	0	n/a	n/a	8	73	Blank	MissedWin	True
694.518	0.3	Win2	0.6622	0.002	No	2.685	-0.002	2.0	NoResponse	0	0.255	n/a	8	73	ButtonPress	MissedWin	True
694.963	1.45	Win2	0.6622	n/a	No	2.685	n/a	5.0	NoResponse	0	0.036	693.999	8	73	Feedback	MissedWin	True
696.412	2.685	Win2	0.6622	n/a	No	2.685	n/a	n/a	NoResponse	0	0.0	n/a	8	73	ISIslide	MissedWin	True
699.111	0.25	Lose2	0.6533	0.0	No	2.639	0.011	n/a	NoResponse	-1	n/a	n/a	7	74	Cue	Loss	True
699.361	4.05	Lose2	0.6533	0.0	No	2.639	0.0	2.0	NoResponse	-1	3.02	701.381	7	74	Fixation	Loss	True
702.381	0.3	Lose2	0.6533	0.0	No	2.639	0.0	2.0	NoResponse	-1	3.02	n/a	7	74	ButtonPress	Loss	True
703.41	0.16	Lose2	0.6533	0.001	No	2.639	-0.001	n/a	NoResponse	-1	n/a	n/a	7	74	Target	Loss	True
703.576	0.54	Lose2	0.6533	n/a	No	2.639	n/a	n/a	NoResponse	-1	n/a	n/a	7	74	Blank	Loss	True
704.11	1.45	Lose2	0.6533	n/a	No	2.639	n/a	5.0	NoResponse	-1	0.011	703.121	7	74	Feedback	Loss	True
705.559	2.639	Lose2	0.6533	n/a	No	2.639	n/a	n/a	NoResponse	-1	0.0	n/a	7	74	ISIslide	Loss	True
708.225	0.25	Lose2	0.6446999999999999	0.0	No	2.925	0.025	n/a	NoResponse	-1	n/a	n/a	6	75	Cue	Loss	True
708.475	3.95	Lose2	0.6446999999999999	0.0	No	2.925	0.0	n/a	NoResponse	-1	n/a	n/a	6	75	Fixation	Loss	True
712.423	0.17	Lose2	0.6446999999999999	0.002	No	2.925	-0.002	2.0	NoResponse	-1	0.215	711.638	6	75	Target	Loss	True
712.607	0.53	Lose2	0.6446999999999999	n/a	No	2.925	n/a	n/a	NoResponse	-1	n/a	n/a	6	75	Blank	Loss	True
712.638	0.3	Lose2	0.6446999999999999	0.002	No	2.925	-0.002	2.0	NoResponse	-1	0.215	n/a	6	75	ButtonPress	Loss	True
713.123	1.45	Lose2	0.6446999999999999	n/a	No	2.925	n/a	5.0	NoResponse	-1	0.023	712.146	6	75	Feedback	Loss	True
714.573	2.925	Lose2	0.6446999999999999	n/a	No	2.925	n/a	n/a	NoResponse	-1	0.0	n/a	6	75	ISIslide	Loss	True
717.522	0.25	Control	0.6364	0.0	No	3.228	0.022	n/a	NoResponse	0	n/a	n/a	6	76	Cue	Neutral	False
717.772	4.05	Control	0.6364	0.0	No	3.228	0.0	n/a	NoResponse	0	n/a	n/a	6	76	Fixation	Neutral	False
721.82	0.18	Control	0.6364	0.002	No	3.228	-0.002	n/a	NoResponse	0	n/a	n/a	6	76	Target	Neutral	False
722.003	0.52	Control	0.6364	n/a	No	3.228	n/a	n/a	NoResponse	0	n/a	n/a	6	76	Blank	Neutral	False
722.52	1.45	Control	0.6364	n/a	No	3.228	n/a	5.0	NoResponse	0	0.041	721.561	6	76	Feedback	Neutral	False
723.969	3.228	Control	0.6364	n/a	No	3.228	n/a	n/a	NoResponse	0	0.0	n/a	6	76	ISIslide	Neutral	False
727.218	0.25	Lose2	0.6282	0.0	No	2.582	0.018	n/a	NoResponse	-1	n/a	n/a	5	77	Cue	Loss	True
727.468	3.95	Lose2	0.6282	0.0	No	2.582	0.0	n/a	NoResponse	-1	n/a	n/a	5	77	Fixation	Loss	True
731.417	0.19	Lose2	0.6282	0.001	No	2.582	-0.001	2.0	NoResponse	-1	0.216	730.633	5	77	Target	Loss	True
731.617	0.51	Lose2	0.6282	n/a	No	2.582	n/a	n/a	NoResponse	-1	n/a	n/a	5	77	Blank	Loss	True
731.633	0.3	Lose2	0.6282	0.001	No	2.582	-0.001	2.0	NoResponse	-1	0.216	n/a	5	77	ButtonPress	Loss	True
732.117	1.45	Lose2	0.6282	n/a	No	2.582	n/a	5.0	NoResponse	-1	0.005	731.122	5	77	Feedback	Loss	True
733.566	2.582	Lose2	0.6282	n/a	No	2.582	n/a	n/a	NoResponse	-1	0.0	n/a	5	77	ISIslide	Loss	True
