onset	duration	cue_type	current_mean_accuracy	duration_error	is_hit	isi_adjusted	onset_delay	response	response_type	reward	rt	rt_time	total_reward	trial_number	trial_phase	trial_type	one_press
11.111	0.25	Control	1.0	0.0	Yes	2.939	0.011	n/a	GoodResponse	0	n/a	n/a	0	0	Cue	Neutral	True
11.361	3.85	Control	1.0	0.0	Yes	2.939	0.0	n/a	GoodResponse	0	n/a	n/a	0	0	Fixation	Neutral	True
15.209	0.4	Control	1.0	0.002	Yes	2.939	-0.002	3.0	GoodResponse	0	0.277	14.486	0	0	Target	Neutral	True
15.486	0.3	Control	1.0	0.002	Yes	2.939	-0.002	3.0	GoodResponse	0	0.277	n/a	0	0	ButtonPress	Neutral	True
15.609	0.3	Control	1.0	n/a	Yes	2.939	n/a	n/a	GoodResponse	0	n/a	n/a	0	0	Blank	Neutral	True
15.909	1.45	Control	1.0	n/a	Yes	2.939	n/a	5.0	GoodResponse	0	0.021	14.93	0	0	Feedback	Neutral	True
17.359	2.939	Control	1.0	n/a	Yes	2.939	n/a	2.0	GoodResponse	0	1.749	n/a	0	0	ISIslide	Neutral	True
20.308	0.25	Lose2	1.0	0.0	Yes	2.792	0.008	n/a	GoodResponse	0	n/a	n/a	0	1	Cue	AvoidedLoss	True
20.558	4.0	Lose2	1.0	0.0	Yes	2.792	0.0	n/a	GoodResponse	0	n/a	n/a	0	1	Fixation	AvoidedLoss	True
24.556	0.39	Lose2	1.0	0.002	Yes	2.792	-0.002	3.0	GoodResponse	0	0.238	23.794	0	1	Target	AvoidedLoss	True
24.794	0.3	Lose2	1.0	0.002	Yes	2.792	-0.002	3.0	GoodResponse	0	0.238	n/a	0	1	ButtonPress	AvoidedLoss	True
24.956	0.31	Lose2	1.0	n/a	Yes	2.792	n/a	n/a	GoodResponse	0	n/a	n/a	0	1	Blank	AvoidedLoss	True
25.256	1.45	Lose2	1.0	n/a	Yes	2.792	n/a	5.0	GoodResponse	0	0.04	24.296	0	1	Feedback	AvoidedLoss	True
26.705	2.792	Lose2	1.0	n/a	Yes	2.792	n/a	n/a	GoodResponse	0	0.0	n/a	0	1	ISIslide	AvoidedLoss	True
29.521	0.25	Control	1.0	0.0	Yes	2.579	0.021	n/a	GoodResponse	0	n/a	n/a	0	2	Cue	Neutral	True
29.771	4.1	Control	1.0	0.0	Yes	2.579	0.0	n/a	GoodResponse	0	n/a	n/a	0	2	Fixation	Neutral	True
33.87	0.38	Control	1.0	0.001	Yes	2.579	-0.001	3.0	GoodResponse	0	0.262	33.132	0	2	Target	Neutral	True
34.132	0.3	Control	1.0	0.001	Yes	2.579	-0.001	3.0	GoodResponse	0	0.262	n/a	0	2	ButtonPress	Neutral	True
34.253	0.32	Control	1.0	n/a	Yes	2.579	n/a	n/a	GoodResponse	0	n/a	n/a	0	2	Blank	Neutral	True
34.569	1.45	Control	1.0	n/a	Yes	2.579	n/a	5.0	GoodResponse	0	0.044	33.613	0	2	Feedback	Neutral	True
36.019	2.579	Control	1.0	n/a	Yes	2.579	n/a	n/a	GoodResponse	0	0.0	n/a	0	2	ISIslide	Neutral	True
38.618	0.25	Win2	1.0	0.0	Yes	2.832	0.018	n/a	GoodResponse	1	n/a	n/a	1	3	Cue	Win	True
38.868	3.95	Win2	1.0	0.0	Yes	2.832	0.0	n/a	GoodResponse	1	n/a	n/a	1	3	Fixation	Win	True
42.817	0.37	Win2	1.0	0.001	Yes	2.832	-0.001	3.0	GoodResponse	1	0.217	42.034	1	3	Target	Win	True
43.034	0.3	Win2	1.0	0.001	Yes	2.832	-0.001	3.0	GoodResponse	1	0.217	n/a	1	3	ButtonPress	Win	True
43.2	0.33	Win2	1.0	n/a	Yes	2.832	n/a	n/a	GoodResponse	1	n/a	n/a	1	3	Blank	Win	True
43.516	1.45	Win2	1.0	n/a	Yes	2.832	n/a	5.0	GoodResponse	1	0.023	42.539	1	3	Feedback	Win	True
44.966	2.832	Win2	1.0	n/a	Yes	2.832	n/a	n/a	GoodResponse	1	0.0	n/a	1	3	ISIslide	Win	True
47.815	0.25	Win2	1.0	0.0	Yes	3.285	0.015	n/a	GoodResponse	1	n/a	n/a	2	4	Cue	Win	True
48.065	4.0	Win2	1.0	0.0	Yes	3.285	0.0	n/a	GoodResponse	1	n/a	n/a	2	4	Fixation	Win	True
52.063	0.36	Win2	1.0	0.002	Yes	3.285	-0.002	3.0	GoodResponse	1	0.205	51.268	2	4	Target	Win	True
52.268	0.3	Win2	1.0	0.002	Yes	3.285	-0.002	3.0	GoodResponse	1	0.205	n/a	2	4	ButtonPress	Win	True
52.43	0.34	Win2	1.0	n/a	Yes	3.285	n/a	n/a	GoodResponse	1	n/a	n/a	2	4	Blank	Win	True
52.763	1.45	Win2	1.0	n/a	Yes	3.285	n/a	5.0	GoodResponse	1	0.044	51.807	2	4	Feedback	Win	True
54.213	3.285	Win2	1.0	n/a	Yes	3.285	n/a	n/a	GoodResponse	1	0.0	n/a	2	4	ISIslide	Win	True
57.528	0.25	Win2	1.0	0.0	Yes	2.772	0.028	n/a	GoodResponse	1	n/a	n/a	3	5	Cue	Win	True
57.778	4.0	Win2	1.0	0.0	Yes	2.772	0.0	n/a	GoodResponse	1	n/a	n/a	3	5	Fixation	Win	True
61.777	0.35	Win2	1.0	0.001	Yes	2.772	-0.001	3.0	GoodResponse	1	0.251	61.028	3	5	Target	Win	True
62.028	0.3	Win2	1.0	0.001	Yes	2.772	-0.001	3.0	GoodResponse	1	0.251	n/a	3	5	ButtonPress	Win	True
62.127	0.35	Win2	1.0	n/a	Yes	2.772	n/a	n/a	GoodResponse	1	n/a	n/a	3	5	Blank	Win	True
62.476	1.45	Win2	1.0	n/a	Yes	2.772	n/a	5.0	GoodResponse	1	0.039	61.515	3	5	Feedback	Win	True
63.926	2.772	Win2	1.0	n/a	Yes	2.772	n/a	n/a	GoodResponse	1	0.0	n/a	3	5	ISIslide	Win	True
66.725	0.25	Lose2	1.0	0.0	Yes	2.725	0.025	n/a	GoodResponse	0	n/a	n/a	3	6	Cue	AvoidedLoss	True
66.975	3.95	Lose2	1.0	0.0	Yes	2.725	0.0	n/a	GoodResponse	0	n/a	n/a	3	6	Fixation	AvoidedLoss	True
70.924	0.34	Lose2	1.0	0.001	Yes	2.725	-0.001	3.0	GoodResponse	0	0.203	70.127	3	6	Target	AvoidedLoss	True
71.127	0.3	Lose2	1.0	0.001	Yes	2.725	-0.001	3.0	GoodResponse	0	0.203	n/a	3	6	ButtonPress	AvoidedLoss	True
71.273	0.36	Lose2	1.0	n/a	Yes	2.725	n/a	n/a	GoodResponse	0	n/a	n/a	3	6	Blank	AvoidedLoss	True
71.623	1.45	Lose2	1.0	n/a	Yes	2.725	n/a	5.0	GoodResponse	0	0.014	70.637	3	6	Feedback	AvoidedLoss	True
73.073	2.725	Lose2	1.0	n/a	Yes	2.725	n/a	n/a	GoodResponse	0	0.0	n/a	3	6	ISIslide	AvoidedLoss	True
75.822	0.25	Lose2	1.0	0.0	Yes	4.028	0.022	n/a	GoodResponse	0	n/a	n/a	3	7	Cue	AvoidedLoss	True
76.072	4.05	Lose2	1.0	0.0	Yes	4.028	0.0	n/a	GoodResponse	0	n/a	n/a	3	7	Fixation	AvoidedLoss	True
80.12	0.33	Lose2	1.0	0.002	Yes	4.028	-0.002	3.0	GoodResponse	0	0.208	79.328	3	7	Target	AvoidedLoss	True
80.328	0.3	Lose2	1.0	0.002	Yes	4.028	-0.002	3.0	GoodResponse	0	0.208	n/a	3	7	ButtonPress	AvoidedLoss	True
80.454	0.37	Lose2	1.0	n/a	Yes	4.028	n/a	n/a	GoodResponse	0	n/a	n/a	3	7	Blank	AvoidedLoss	True
80.82	1.45	Lose2	1.0	n/a	Yes	4.028	n/a	5.0	GoodResponse	0	0.037	79.857	3	7	Feedback	AvoidedLoss	True
82.27	4.028	Lose2	1.0	n/a	Yes	4.028	n/a	n/a	GoodResponse	0	0.0	n/a	3	7	ISIslide	AvoidedLoss	True
86.318	0.25	Lose2	1.0	0.0	Yes	3.032	0.018	n/a	GoodResponse	0	n/a	n/a	3	8	Cue	AvoidedLoss	True
86.568	3.95	Lose2	1.0	0.0	Yes	3.032	0.0	n/a	GoodResponse	0	n/a	n/a	3	8	Fixation	AvoidedLoss	True
90.517	0.32	Lose2	1.0	0.001	Yes	3.032	-0.001	3.0	GoodResponse	0	0.222	89.739	3	8	Target	AvoidedLoss	True
90.739	0.3	Lose2	1.0	0.001	Yes	3.032	-0.001	3.0	GoodResponse	0	0.222	n/a	3	8	ButtonPress	AvoidedLoss	True
90.85	0.38	Lose2	1.0	n/a	Yes	3.032	n/a	n/a	GoodResponse	0	n/a	n/a	3	8	Blank	AvoidedLoss	True
91.217	1.45	Lose2	1.0	n/a	Yes	3.032	n/a	5.0	GoodResponse	0	0.03	90.247	3	8	Feedback	AvoidedLoss	True
92.666	3.032	Lose2	1.0	n/a	Yes	3.032	n/a	n/a	GoodResponse	0	0.0	n/a	3	8	ISIslide	AvoidedLoss	True
95.715	0.25	Lose2	1.0	0.0	Yes	3.135	0.015	n/a	GoodResponse	0	n/a	n/a	3	9	Cue	AvoidedLoss	True
95.965	3.95	Lose2	1.0	0.0	Yes	3.135	0.0	n/a	GoodResponse	0	n/a	n/a	3	9	Fixation	AvoidedLoss	True
99.914	0.31	Lose2	1.0	0.001	Yes	3.135	-0.001	3.0	GoodResponse	0	0.254	99.168	3	9	Target	AvoidedLoss	True
100.168	0.3	Lose2	1.0	0.001	Yes	3.135	-0.001	3.0	GoodResponse	0	0.254	n/a	3	9	ButtonPress	AvoidedLoss	True
100.23	0.39	Lose2	1.0	n/a	Yes	3.135	n/a	n/a	GoodResponse	0	n/a	n/a	3	9	Blank	AvoidedLoss	True
100.613	1.45	Lose2	1.0	n/a	Yes	3.135	n/a	5.0	GoodResponse	0	0.048	99.661	3	9	Feedback	AvoidedLoss	True
102.063	3.135	Lose2	1.0	n/a	Yes	3.135	n/a	n/a	GoodResponse	0	0.0	n/a	3	9	ISIslide	AvoidedLoss	True
105.228	0.25	Control	1.0	0.0	Yes	3.272	0.028	n/a	GoodResponse	0	n/a	n/a	3	10	Cue	Neutral	True
105.478	4.0	Control	1.0	0.0	Yes	3.272	0.0	n/a	GoodResponse	0	n/a	n/a	3	10	Fixation	Neutral	True
109.477	0.3	Control	1.0	0.001	Yes	3.272	-0.001	3.0	GoodResponse	0	0.2	108.677	3	10	Target	Neutral	True
109.677	0.3	Control	1.0	0.001	Yes	3.272	-0.001	3.0	GoodResponse	0	0.2	n/a	3	10	ButtonPress	Neutral	True
109.777	0.4	Control	1.0	n/a	Yes	3.272	n/a	n/a	GoodResponse	0	n/a	n/a	3	10	Blank	Neutral	True
110.177	1.45	Control	1.0	n/a	Yes	3.272	n/a	5.0	GoodResponse	0	0.045	109.222	3	10	Feedback	Neutral	True
111.626	3.272	Control	1.0	n/a	Yes	3.272	n/a	n/a	GoodResponse	0	0.0	n/a	3	10	ISIslide	Neutral	True
114.925	0.25	Lose2	1.0	0.0	Yes	2.725	0.025	n/a	GoodResponse	0	n/a	n/a	3	11	Cue	AvoidedLoss	True
115.175	4.05	Lose2	1.0	0.0	Yes	2.725	0.0	n/a	GoodResponse	0	n/a	n/a	3	11	Fixation	AvoidedLoss	True
119.224	0.29	Lose2	1.0	0.001	Yes	2.725	-0.001	3.0	GoodResponse	0	0.189	118.413	3	11	Target	AvoidedLoss	True
119.413	0.3	Lose2	1.0	0.001	Yes	2.725	-0.001	3.0	GoodResponse	0	0.189	n/a	3	11	ButtonPress	AvoidedLoss	True
119.523	0.41	Lose2	1.0	n/a	Yes	2.725	n/a	n/a	GoodResponse	0	n/a	n/a	3	11	Blank	AvoidedLoss	True
119.923	1.45	Lose2	1.0	n/a	Yes	2.725	n/a	5.0	GoodResponse	0	0.007	118.93	3	11	Feedback	AvoidedLoss	True
121.373	2.725	Lose2	1.0	n/a	Yes	2.725	n/a	n/a	GoodResponse	0	0.0	n/a	3	11	ISIslide	AvoidedLoss	True
124.122	0.25	Control	1.0	0.0	Yes	2.978	0.022	n/a	GoodResponse	0	n/a	n/a	3	12	Cue	Neutral	True
124.372	3.9	Control	1.0	0.0	Yes	2.978	0.0	n/a	GoodResponse	0	n/a	n/a	3	12	Fixation	Neutral	True
128.27	0.28	Control	1.0	0.002	Yes	2.978	-0.002	3.0	GoodResponse	0	0.202	127.472	3	12	Target	Neutral	True
128.472	0.3	Control	1.0	0.002	Yes	2.978	-0.002	3.0	GoodResponse	0	0.202	n/a	3	12	ButtonPress	Neutral	True
128.554	0.42	Control	1.0	n/a	Yes	2.978	n/a	n/a	GoodResponse	0	n/a	n/a	3	12	Blank	Neutral	True
128.97	1.45	Control	1.0	n/a	Yes	2.978	n/a	5.0	GoodResponse	0	0.032	128.002	3	12	Feedback	Neutral	True
130.42	2.978	Control	1.0	n/a	Yes	2.978	n/a	n/a	GoodResponse	0	0.0	n/a	3	12	ISIslide	Neutral	True
133.419	0.25	Control	1.0	0.0	Yes	2.781	0.019	n/a	GoodResponse	0	n/a	n/a	3	13	Cue	Neutral	True
133.669	4.0	Control	1.0	0.0	Yes	2.781	0.0	n/a	GoodResponse	0	n/a	n/a	3	13	Fixation	Neutral	True
137.667	0.27	Control	1.0	0.002	Yes	2.781	-0.002	3.0	GoodResponse	0	0.217	136.884	3	13	Target	Neutral	True
137.884	0.3	Control	1.0	0.002	Yes	2.781	-0.002	3.0	GoodResponse	0	0.217	n/a	3	13	ButtonPress	Neutral	True
137.95	0.43	Control	1.0	n/a	Yes	2.781	n/a	n/a	GoodResponse	0	n/a	n/a	3	13	Blank	Neutral	True
138.367	1.45	Control	1.0	n/a	Yes	2.781	n/a	5.0	GoodResponse	0	0.001	137.368	3	13	Feedback	Neutral	True
139.816	2.781	Control	1.0	n/a	Yes	2.781	n/a	n/a	GoodResponse	0	0.0	n/a	3	13	ISIslide	Neutral	True
142.615	0.25	Win2	1.0	0.001	Yes	2.685	0.015	n/a	GoodResponse	1	n/a	n/a	4	14	Cue	Win	True
142.865	4.1	Win2	1.0	0.0	Yes	2.685	0.0	n/a	GoodResponse	1	n/a	n/a	4	14	Fixation	Win	True
146.964	0.26	Win2	1.0	0.001	Yes	2.685	-0.001	3.0	GoodResponse	1	0.23	146.194	4	14	Target	Win	True
147.194	0.3	Win2	1.0	0.001	Yes	2.685	-0.001	3.0	GoodResponse	1	0.23	n/a	4	14	ButtonPress	Win	True
147.23	0.44	Win2	1.0	n/a	Yes	2.685	n/a	n/a	GoodResponse	1	n/a	n/a	4	14	Blank	Win	True
147.664	1.45	Win2	1.0	n/a	Yes	2.685	n/a	5.0	GoodResponse	1	0.022	146.686	4	14	Feedback	Win	True
149.113	2.685	Win2	1.0	n/a	Yes	2.685	n/a	n/a	GoodResponse	1	0.0	n/a	4	14	ISIslide	Win	True
151.829	0.25	Control	1.0	0.0	Yes	2.971	0.029	n/a	GoodResponse	0	n/a	n/a	4	15	Cue	Neutral	True
152.079	4.0	Control	1.0	0.0	Yes	2.971	0.0	n/a	GoodResponse	0	n/a	n/a	4	15	Fixation	Neutral	True
156.077	0.25	Control	1.0	0.002	Yes	2.971	-0.002	3.0	GoodResponse	0	0.209	155.286	4	15	Target	Neutral	True
156.286	0.3	Control	1.0	0.002	Yes	2.971	-0.002	3.0	GoodResponse	0	0.209	n/a	4	15	ButtonPress	Neutral	True
156.327	0.45	Control	1.0	n/a	Yes	2.971	n/a	n/a	GoodResponse	0	n/a	n/a	4	15	Blank	Neutral	True
156.777	1.45	Control	1.0	n/a	Yes	2.971	n/a	5.0	GoodResponse	0	0.031	155.808	4	15	Feedback	Neutral	True
158.227	2.971	Control	1.0	n/a	Yes	2.971	n/a	n/a	GoodResponse	0	0.0	n/a	4	15	ISIslide	Neutral	True
161.226	0.25	Win2	0.9412	0.0	No	2.874	0.026	n/a	LatePress	0	n/a	n/a	4	16	Cue	MissedWin	True
161.476	4.0	Win2	0.9412	0.0	No	2.874	0.0	n/a	LatePress	0	n/a	n/a	4	16	Fixation	MissedWin	True
165.474	0.24	Win2	0.9412	0.002	No	2.874	-0.002	3.0	LatePress	0	0.248	164.722	4	16	Target	MissedWin	True
165.722	0.3	Win2	0.9412	0.002	No	2.874	-0.002	3.0	LatePress	0	0.248	n/a	4	16	ButtonPress	MissedWin	True
165.724	0.46	Win2	0.9412	n/a	No	2.874	n/a	n/a	LatePress	0	n/a	n/a	4	16	Blank	MissedWin	True
166.174	1.45	Win2	0.9412	n/a	No	2.874	n/a	5.0	LatePress	0	0.047	165.221	4	16	Feedback	MissedWin	True
167.623	2.874	Win2	0.9412	n/a	No	2.874	n/a	n/a	LatePress	0	0.0	n/a	4	16	ISIslide	MissedWin	True
170.522	0.25	Lose2	0.9444	0.001	Yes	2.728	0.022	n/a	GoodResponse	0	n/a	n/a	4	17	Cue	AvoidedLoss	True
170.772	3.95	Lose2	0.9444	0.0	Yes	2.728	0.0	n/a	GoodResponse	0	n/a	n/a	4	17	Fixation	AvoidedLoss	True
174.721	0.23	Lose2	0.9444	0.001	Yes	2.728	-0.001	3.0	GoodResponse	0	0.2	173.921	4	17	Target	AvoidedLoss	True
174.921	0.3	Lose2	0.9444	0.001	Yes	2.728	-0.001	3.0	GoodResponse	0	0.2	n/a	4	17	ButtonPress	AvoidedLoss	True
174.954	0.47	Lose2	0.9444	n/a	Yes	2.728	n/a	n/a	GoodResponse	0	n/a	n/a	4	17	Blank	AvoidedLoss	True
175.421	1.45	Lose2	0.9444	n/a	Yes	2.728	n/a	5.0	GoodResponse	0	0.02	174.441	4	17	Feedback	AvoidedLoss	True
176.87	2.728	Lose2	0.9444	n/a	Yes	2.728	n/a	n/a	GoodResponse	0	0.0	n/a	4	17	ISIslide	AvoidedLoss	True
179.619	0.25	Lose2	0.8946999999999999	0.0	No	2.731	0.019	n/a	NoResponse	-1	n/a	n/a	3	18	Cue	Loss	True
179.869	4.05	Lose2	0.8946999999999999	0.0	No	2.731	0.0	n/a	NoResponse	-1	n/a	n/a	3	18	Fixation	Loss	True
183.918	0.22	Lose2	0.8946999999999999	0.001	No	2.731	-0.001	3.0	NoResponse	-1	0.233	183.151	3	18	Target	Loss	True
184.134	0.48	Lose2	0.8946999999999999	n/a	No	2.731	n/a	n/a	NoResponse	-1	n/a	n/a	3	18	Blank	Loss	True
184.151	0.3	Lose2	0.8946999999999999	0.001	No	2.731	-0.001	3.0	NoResponse	-1	0.233	n/a	3	18	ButtonPress	Loss	True
184.618	1.45	Lose2	0.8946999999999999	n/a	No	2.731	n/a	5.0	NoResponse	-1	0.043	183.661	3	18	Feedback	Loss	True
186.067	2.731	Lose2	0.8946999999999999	n/a	No	2.731	n/a	n/a	NoResponse	-1	0.0	n/a	3	18	ISIslide	Loss	True
188.816	0.25	Control	0.85	0.0	No	2.934	0.016	n/a	LatePress	0	n/a	n/a	3	19	Cue	Neutral	True
189.066	3.95	Control	0.85	0.0	No	2.934	0.0	n/a	LatePress	0	n/a	n/a	3	19	Fixation	Neutral	True
193.015	0.21	Control	0.85	0.001	No	2.934	-0.001	3.0	LatePress	0	0.214	192.229	3	19	Target	Neutral	True
193.229	0.3	Control	0.85	0.001	No	2.934	-0.001	3.0	LatePress	0	0.214	n/a	3	19	ButtonPress	Neutral	True
193.231	0.49	Control	0.85	n/a	No	2.934	n/a	n/a	LatePress	0	n/a	n/a	3	19	Blank	Neutral	True
193.714	1.45	Control	0.85	n/a	No	2.934	n/a	5.0	LatePress	0	0.02	192.734	3	19	Feedback	Neutral	True
195.164	2.934	Control	0.85	n/a	No	2.934	n/a	n/a	LatePress	0	0.0	n/a	3	19	ISIslide	Neutral	True
198.13	0.25	Control	0.8571	0.0	Yes	2.62	0.03	n/a	GoodResponse	0	n/a	n/a	3	20	Cue	Neutral	False
198.379	4.05	Control	0.8571	0.001	Yes	2.62	-0.001	3.0	GoodResponse	0	3.54	200.919	3	20	Fixation	Neutral	False
201.919	0.3	Control	0.8571	0.001	Yes	2.62	-0.001	3.0	GoodResponse	0	3.54	n/a	3	20	ButtonPress	Neutral	False
202.428	0.2	Control	0.8571	0.002	Yes	2.62	-0.002	3.0	GoodResponse	0	0.186	201.614	3	20	Target	Neutral	False
202.614	0.3	Control	0.8571	0.002	Yes	2.62	-0.002	3.0	GoodResponse	0	0.186	n/a	3	20	ButtonPress	Neutral	False
202.628	0.5	Control	0.8571	n/a	Yes	2.62	n/a	n/a	GoodResponse	0	n/a	n/a	3	20	Blank	Neutral	False
203.128	1.45	Control	0.8571	n/a	Yes	2.62	n/a	5.0	GoodResponse	0	0.021	202.149	3	20	Feedback	Neutral	False
204.577	2.62	Control	0.8571	n/a	Yes	2.62	n/a	n/a	GoodResponse	0	0.0	n/a	3	20	ISIslide	Neutral	False
207.226	0.25	Control	0.8181999999999999	0.0	No	2.774	0.026	n/a	NoResponse	0	n/a	n/a	3	21	Cue	Neutral	True
207.476	4.1	Control	0.8181999999999999	0.0	No	2.774	0.0	n/a	NoResponse	0	n/a	n/a	3	21	Fixation	Neutral	True
211.575	0.19	Control	0.8181999999999999	0.001	No	2.774	-0.001	3.0	NoResponse	0	0.223	210.798	3	21	Target	Neutral	True
211.775	0.51	Control	0.8181999999999999	n/a	No	2.774	n/a	n/a	NoResponse	0	n/a	n/a	3	21	Blank	Neutral	True
211.798	0.3	Control	0.8181999999999999	0.001	No	2.774	-0.001	3.0	NoResponse	0	0.223	n/a	3	21	ButtonPress	Neutral	True
212.275	1.45	Control	0.8181999999999999	n/a	No	2.774	n/a	5.0	NoResponse	0	0.045	211.32	3	21	Feedback	Neutral	True
213.724	2.774	Control	0.8181999999999999	n/a	No	2.774	n/a	n/a	NoResponse	0	0.0	n/a	3	21	ISIslide	Neutral	True
216.523	0.25	Control	0.7826000000000001	0.0	No	2.777	0.023	n/a	NoResponse	0	n/a	n/a	3	22	Cue	Neutral	True
216.773	4.0	Control	0.7826000000000001	0.0	No	2.777	0.0	n/a	NoResponse	0	n/a	n/a	3	22	Fixation	Neutral	True
220.772	0.18	Control	0.7826000000000001	0.001	No	2.777	-0.001	3.0	NoResponse	0	0.231	220.003	3	22	Target	Neutral	True
220.955	0.52	Control	0.7826000000000001	n/a	No	2.777	n/a	n/a	NoResponse	0	n/a	n/a	3	22	Blank	Neutral	True
221.003	0.3	Control	0.7826000000000001	0.001	No	2.777	-0.001	3.0	NoResponse	0	0.231	n/a	3	22	ButtonPress	Neutral	True
221.471	1.45	Control	0.7826000000000001	n/a	No	2.777	n/a	5.0	NoResponse	0	0.018	220.489	3	22	Feedback	Neutral	True
222.921	2.777	Control	0.7826000000000001	n/a	No	2.777	n/a	n/a	NoResponse	0	0.0	n/a	3	22	ISIslide	Neutral	True
225.72	0.25	Control	0.75	0.0	No	2.78	0.02	n/a	NoResponse	0	n/a	n/a	3	23	Cue	Neutral	True
225.97	3.9	Control	0.75	0.0	No	2.78	0.0	n/a	NoResponse	0	n/a	n/a	3	23	Fixation	Neutral	True
229.869	0.17	Control	0.75	0.001	No	2.78	-0.001	3.0	NoResponse	0	0.206	229.075	3	23	Target	Neutral	True
230.052	0.53	Control	0.75	n/a	No	2.78	n/a	n/a	NoResponse	0	n/a	n/a	3	23	Blank	Neutral	True
230.075	0.3	Control	0.75	0.001	No	2.78	-0.001	3.0	NoResponse	0	0.206	n/a	3	23	ButtonPress	Neutral	True
230.568	1.45	Control	0.75	n/a	No	2.78	n/a	5.0	NoResponse	0	0.043	229.611	3	23	Feedback	Neutral	True
232.018	2.78	Control	0.75	n/a	No	2.78	n/a	n/a	NoResponse	0	0.0	n/a	3	23	ISIslide	Neutral	True
234.817	0.25	Win2	0.72	0.0	No	3.133	0.017	n/a	NoResponse	0	n/a	n/a	3	24	Cue	MissedWin	True
235.067	3.95	Win2	0.72	0.0	No	3.133	0.0	n/a	NoResponse	0	n/a	n/a	3	24	Fixation	MissedWin	True
239.015	0.16	Win2	0.72	0.002	No	3.133	-0.002	3.0	NoResponse	0	0.207	238.222	3	24	Target	MissedWin	True
239.182	0.54	Win2	0.72	n/a	No	3.133	n/a	n/a	NoResponse	0	n/a	n/a	3	24	Blank	MissedWin	True
239.222	0.3	Win2	0.72	0.002	No	3.133	-0.002	3.0	NoResponse	0	0.207	n/a	3	24	ButtonPress	MissedWin	True
239.715	1.45	Win2	0.72	n/a	No	3.133	n/a	5.0	NoResponse	0	0.018	238.733	3	24	Feedback	MissedWin	True
241.165	3.133	Win2	0.72	n/a	No	3.133	n/a	n/a	NoResponse	0	0.0	n/a	3	24	ISIslide	MissedWin	True
244.33	0.25	Win2	0.6923	0.0	No	3.07	0.03	n/a	NoResponse	0	n/a	n/a	3	25	Cue	MissedWin	True
244.58	4.0	Win2	0.6923	0.0	No	3.07	0.0	n/a	NoResponse	0	n/a	n/a	3	25	Fixation	MissedWin	True
248.579	0.15	Win2	0.6923	0.001	No	3.07	-0.001	3.0	NoResponse	0	0.205	247.784	3	25	Target	MissedWin	True
248.729	0.55	Win2	0.6923	n/a	No	3.07	n/a	n/a	NoResponse	0	n/a	n/a	3	25	Blank	MissedWin	True
248.784	0.3	Win2	0.6923	0.001	No	3.07	-0.001	3.0	NoResponse	0	0.205	n/a	3	25	ButtonPress	MissedWin	True
249.279	1.45	Win2	0.6923	n/a	No	3.07	n/a	5.0	NoResponse	0	0.016	248.295	3	25	Feedback	MissedWin	True
250.728	3.07	Win2	0.6923	n/a	No	3.07	n/a	n/a	NoResponse	0	0.0	n/a	3	25	ISIslide	MissedWin	True
253.827	0.25	Win2	0.6667000000000001	0.0	No	2.923	0.027	n/a	NoResponse	0	n/a	n/a	3	26	Cue	MissedWin	True
254.077	3.95	Win2	0.6667000000000001	0.0	No	2.923	0.0	n/a	NoResponse	0	n/a	n/a	3	26	Fixation	MissedWin	True
258.026	0.15	Win2	0.6667000000000001	0.001	No	2.923	-0.001	3.0	NoResponse	0	0.203	257.229	3	26	Target	MissedWin	True
258.175	0.55	Win2	0.6667000000000001	n/a	No	2.923	n/a	n/a	NoResponse	0	n/a	n/a	3	26	Blank	MissedWin	True
258.229	0.3	Win2	0.6667000000000001	0.001	No	2.923	-0.001	3.0	NoResponse	0	0.203	n/a	3	26	ButtonPress	MissedWin	True
258.725	1.45	Win2	0.6667000000000001	n/a	No	2.923	n/a	5.0	NoResponse	0	0.033	257.758	3	26	Feedback	MissedWin	True
260.175	2.923	Win2	0.6667000000000001	n/a	No	2.923	n/a	n/a	NoResponse	0	0.0	n/a	3	26	ISIslide	MissedWin	True
263.124	0.25	Lose2	0.6429	0.0	No	2.826	0.024	n/a	NoResponse	-1	n/a	n/a	2	27	Cue	Loss	True
263.374	4.05	Lose2	0.6429	0.0	No	2.826	0.0	n/a	NoResponse	-1	n/a	n/a	2	27	Fixation	Loss	True
267.422	0.15	Lose2	0.6429	0.002	No	2.826	-0.002	3.0	NoResponse	-1	0.181	266.603	2	27	Target	Loss	True
267.572	0.55	Lose2	0.6429	n/a	No	2.826	n/a	n/a	NoResponse	-1	n/a	n/a	2	27	Blank	Loss	True
267.603	0.3	Lose2	0.6429	0.002	No	2.826	-0.002	3.0	NoResponse	-1	0.181	n/a	2	27	ButtonPress	Loss	True
268.122	1.45	Lose2	0.6429	n/a	No	2.826	n/a	5.0	NoResponse	-1	0.002	267.124	2	27	Feedback	Loss	True
269.572	2.826	Lose2	0.6429	n/a	No	2.826	n/a	n/a	NoResponse	-1	0.0	n/a	2	27	ISIslide	Loss	True
272.421	0.25	Control	0.6207	0.0	No	2.829	0.021	n/a	NoResponse	0	n/a	n/a	2	28	Cue	Neutral	False
272.67	4.05	Control	0.6207	0.001	No	2.829	-0.001	3.0	NoResponse	0	3.896	275.566	2	28	Fixation	Neutral	False
276.566	0.3	Control	0.6207	0.001	No	2.829	-0.001	3.0	NoResponse	0	3.896	n/a	2	28	ButtonPress	Neutral	False
276.719	0.16	Control	0.6207	0.002	No	2.829	-0.002	3.0	NoResponse	0	0.28	275.999	2	28	Target	Neutral	False
276.886	0.54	Control	0.6207	n/a	No	2.829	n/a	n/a	NoResponse	0	n/a	n/a	2	28	Blank	Neutral	False
276.999	0.3	Control	0.6207	0.002	No	2.829	-0.002	3.0	NoResponse	0	0.28	n/a	2	28	ButtonPress	Neutral	False
277.419	1.45	Control	0.6207	n/a	No	2.829	n/a	5.0	NoResponse	0	0.022	276.441	2	28	Feedback	Neutral	False
278.868	2.829	Control	0.6207	n/a	No	2.829	n/a	n/a	NoResponse	0	0.0	n/a	2	28	ISIslide	Neutral	False
281.717	0.25	Lose2	0.6	0.0	No	2.833	0.017	n/a	NoResponse	-1	n/a	n/a	1	29	Cue	Loss	True
281.967	3.95	Lose2	0.6	0.0	No	2.833	0.0	n/a	NoResponse	-1	n/a	n/a	1	29	Fixation	Loss	True
285.916	0.17	Lose2	0.6	0.001	No	2.833	-0.001	3.0	NoResponse	-1	0.226	285.142	1	29	Target	Loss	True
286.082	0.53	Lose2	0.6	n/a	No	2.833	n/a	n/a	NoResponse	-1	n/a	n/a	1	29	Blank	Loss	True
286.142	0.3	Lose2	0.6	0.001	No	2.833	-0.001	3.0	NoResponse	-1	0.226	n/a	1	29	ButtonPress	Loss	True
286.616	1.45	Lose2	0.6	n/a	No	2.833	n/a	5.0	NoResponse	-1	0.044	285.66	1	29	Feedback	Loss	True
288.065	2.833	Lose2	0.6	n/a	No	2.833	n/a	n/a	NoResponse	-1	0.0	n/a	1	29	ISIslide	Loss	True
290.914	0.25	Win2	0.5806	0.0	No	2.786	0.014	n/a	NoResponse	0	n/a	n/a	1	30	Cue	MissedWin	True
291.164	3.9	Win2	0.5806	0.0	No	2.786	0.0	n/a	NoResponse	0	n/a	n/a	1	30	Fixation	MissedWin	True
295.063	0.18	Win2	0.5806	0.001	No	2.786	-0.001	3.0	NoResponse	0	0.199	294.262	1	30	Target	MissedWin	True
295.246	0.52	Win2	0.5806	n/a	No	2.786	n/a	n/a	NoResponse	0	n/a	n/a	1	30	Blank	MissedWin	True
295.262	0.3	Win2	0.5806	0.001	No	2.786	-0.001	3.0	NoResponse	0	0.199	n/a	1	30	ButtonPress	MissedWin	True
295.762	1.45	Win2	0.5806	n/a	No	2.786	n/a	5.0	NoResponse	0	0.02	294.782	1	30	Feedback	MissedWin	True
297.212	2.786	Win2	0.5806	n/a	No	2.786	n/a	n/a	NoResponse	0	0.0	n/a	1	30	ISIslide	MissedWin	True
300.028	0.25	Lose2	0.5625	0.0	No	2.822	0.028	n/a	LatePress	-1	n/a	n/a	0	31	Cue	Loss	True
300.278	4.05	Lose2	0.5625	0.0	No	2.822	0.0	n/a	LatePress	-1	n/a	n/a	0	31	Fixation	Loss	True
304.326	0.19	Lose2	0.5625	0.002	No	2.822	-0.002	3.0	LatePress	-1	0.195	303.521	0	31	Target	Loss	True
304.521	0.3	Lose2	0.5625	0.002	No	2.822	-0.002	3.0	LatePress	-1	0.195	n/a	0	31	ButtonPress	Loss	True
304.526	0.51	Lose2	0.5625	n/a	No	2.822	n/a	n/a	LatePress	-1	n/a	n/a	0	31	Blank	Loss	True
305.026	1.45	Lose2	0.5625	n/a	No	2.822	n/a	5.0	LatePress	-1	0.024	304.05	0	31	Feedback	Loss	True
306.475	2.822	Lose2	0.5625	n/a	No	2.822	n/a	n/a	LatePress	-1	0.0	n/a	0	31	ISIslide	Loss	True
309.324	0.25	Lose2	0.5758	0.001	Yes	2.626	0.024	n/a	GoodResponse	0	n/a	n/a	0	32	Cue	AvoidedLoss	True
309.574	4.15	Lose2	0.5758	0.0	Yes	2.626	0.0	n/a	GoodResponse	0	n/a	n/a	0	32	Fixation	AvoidedLoss	True
313.723	0.2	Lose2	0.5758	0.001	Yes	2.626	-0.001	3.0	GoodResponse	0	0.196	312.919	0	32	Target	AvoidedLoss	True
313.919	0.3	Lose2	0.5758	0.001	Yes	2.626	-0.001	3.0	GoodResponse	0	0.196	n/a	0	32	ButtonPress	AvoidedLoss	True
313.923	0.5	Lose2	0.5758	n/a	Yes	2.626	n/a	n/a	GoodResponse	0	n/a	n/a	0	32	Blank	AvoidedLoss	True
314.423	1.45	Lose2	0.5758	n/a	Yes	2.626	n/a	5.0	GoodResponse	0	0.042	313.465	0	32	Feedback	AvoidedLoss	True
315.872	2.626	Lose2	0.5758	n/a	Yes	2.626	n/a	n/a	GoodResponse	0	0.0	n/a	0	32	ISIslide	AvoidedLoss	True
318.521	0.25	Win2	0.5882000000000001	0.0	Yes	2.679	0.021	n/a	GoodResponse	1	n/a	n/a	1	33	Cue	Win	True
318.771	4.0	Win2	0.5882000000000001	0.0	Yes	2.679	0.0	n/a	GoodResponse	1	n/a	n/a	1	33	Fixation	Win	True
322.77	0.21	Win2	0.5882000000000001	0.001	Yes	2.679	-0.001	3.0	GoodResponse	1	0.204	321.974	1	33	Target	Win	True
322.974	0.3	Win2	0.5882000000000001	0.001	Yes	2.679	-0.001	3.0	GoodResponse	1	0.204	n/a	1	33	ButtonPress	Win	True
322.986	0.49	Win2	0.5882000000000001	n/a	Yes	2.679	n/a	n/a	GoodResponse	1	n/a	n/a	1	33	Blank	Win	True
323.47	1.45	Win2	0.5882000000000001	n/a	Yes	2.679	n/a	5.0	GoodResponse	1	0.02	322.49	1	33	Feedback	Win	True
324.919	2.679	Win2	0.5882000000000001	n/a	Yes	2.679	n/a	n/a	GoodResponse	1	0.0	n/a	1	33	ISIslide	Win	True
327.618	0.25	Lose2	0.6	0.0	Yes	2.632	0.018	n/a	GoodResponse	0	n/a	n/a	1	34	Cue	AvoidedLoss	True
327.868	4.05	Lose2	0.6	0.0	Yes	2.632	0.0	n/a	GoodResponse	0	n/a	n/a	1	34	Fixation	AvoidedLoss	True
331.917	0.22	Lose2	0.6	0.001	Yes	2.632	-0.001	3.0	GoodResponse	0	0.185	331.102	1	34	Target	AvoidedLoss	True
332.102	0.3	Lose2	0.6	0.001	Yes	2.632	-0.001	3.0	GoodResponse	0	0.185	n/a	1	34	ButtonPress	AvoidedLoss	True
332.15	0.48	Lose2	0.6	n/a	Yes	2.632	n/a	n/a	GoodResponse	0	n/a	n/a	1	34	Blank	AvoidedLoss	True
332.616	1.45	Lose2	0.6	n/a	Yes	2.632	n/a	5.0	GoodResponse	0	0.044	331.66	1	34	Feedback	AvoidedLoss	True
334.066	2.632	Lose2	0.6	n/a	Yes	2.632	n/a	n/a	GoodResponse	0	0.0	n/a	1	34	ISIslide	AvoidedLoss	True
336.715	0.25	Lose2	0.6111	0.0	Yes	2.685	0.015	n/a	GoodResponse	0	n/a	n/a	1	35	Cue	AvoidedLoss	True
336.965	4.0	Lose2	0.6111	0.0	Yes	2.685	0.0	n/a	GoodResponse	0	n/a	n/a	1	35	Fixation	AvoidedLoss	True
340.963	0.23	Lose2	0.6111	0.002	Yes	2.685	-0.002	3.0	GoodResponse	0	0.208	340.171	1	35	Target	AvoidedLoss	True
341.171	0.3	Lose2	0.6111	0.002	Yes	2.685	-0.002	3.0	GoodResponse	0	0.208	n/a	1	35	ButtonPress	AvoidedLoss	True
341.197	0.47	Lose2	0.6111	n/a	Yes	2.685	n/a	n/a	GoodResponse	0	n/a	n/a	1	35	Blank	AvoidedLoss	True
341.663	1.45	Lose2	0.6111	n/a	Yes	2.685	n/a	5.0	GoodResponse	0	0.021	340.684	1	35	Feedback	AvoidedLoss	True
343.113	2.685	Lose2	0.6111	n/a	Yes	2.685	n/a	n/a	GoodResponse	0	0.0	n/a	1	35	ISIslide	AvoidedLoss	True
345.828	0.25	Control	0.6215999999999999	0.001	Yes	2.672	0.028	n/a	GoodResponse	0	n/a	n/a	1	36	Cue	Neutral	True
346.078	4.0	Control	0.6215999999999999	0.001	Yes	2.672	0.0	n/a	GoodResponse	0	n/a	n/a	1	36	Fixation	Neutral	True
350.077	0.24	Control	0.6215999999999999	0.001	Yes	2.672	-0.001	3.0	GoodResponse	0	0.209	349.286	1	36	Target	Neutral	True
350.286	0.3	Control	0.6215999999999999	0.001	Yes	2.672	-0.001	3.0	GoodResponse	0	0.209	n/a	1	36	ButtonPress	Neutral	True
350.327	0.46	Control	0.6215999999999999	n/a	Yes	2.672	n/a	n/a	GoodResponse	0	n/a	n/a	1	36	Blank	Neutral	True
350.777	1.45	Control	0.6215999999999999	n/a	Yes	2.672	n/a	5.0	GoodResponse	0	0.029	349.806	1	36	Feedback	Neutral	True
352.226	2.672	Control	0.6215999999999999	n/a	Yes	2.672	n/a	n/a	GoodResponse	0	0.0	n/a	1	36	ISIslide	Neutral	True
354.925	0.25	Win2	0.6315999999999999	0.0	Yes	2.875	0.025	n/a	GoodResponse	1	n/a	n/a	2	37	Cue	Win	True
355.175	4.0	Win2	0.6315999999999999	0.0	Yes	2.875	0.0	n/a	GoodResponse	1	n/a	n/a	2	37	Fixation	Win	True
359.174	0.25	Win2	0.6315999999999999	0.001	Yes	2.875	-0.001	3.0	GoodResponse	1	0.201	358.375	2	37	Target	Win	True
359.375	0.3	Win2	0.6315999999999999	0.001	Yes	2.875	-0.001	3.0	GoodResponse	1	0.201	n/a	2	37	ButtonPress	Win	True
359.424	0.45	Win2	0.6315999999999999	n/a	Yes	2.875	n/a	n/a	GoodResponse	1	n/a	n/a	2	37	Blank	Win	True
359.874	1.45	Win2	0.6315999999999999	n/a	Yes	2.875	n/a	5.0	GoodResponse	1	0.005	358.879	2	37	Feedback	Win	True
361.323	2.875	Win2	0.6315999999999999	n/a	Yes	2.875	n/a	n/a	GoodResponse	1	0.0	n/a	2	37	ISIslide	Win	True
364.222	0.25	Lose2	0.6409999999999999	0.0	Yes	2.828	0.022	n/a	GoodResponse	0	n/a	n/a	2	38	Cue	AvoidedLoss	True
364.472	3.95	Lose2	0.6409999999999999	0.0	Yes	2.828	0.0	n/a	GoodResponse	0	n/a	n/a	2	38	Fixation	AvoidedLoss	True
368.421	0.26	Lose2	0.6409999999999999	0.001	Yes	2.828	-0.001	3.0	GoodResponse	0	0.232	367.653	2	38	Target	AvoidedLoss	True
368.653	0.3	Lose2	0.6409999999999999	0.001	Yes	2.828	-0.001	3.0	GoodResponse	0	0.232	n/a	2	38	ButtonPress	AvoidedLoss	True
368.687	0.44	Lose2	0.6409999999999999	n/a	Yes	2.828	n/a	n/a	GoodResponse	0	n/a	n/a	2	38	Blank	AvoidedLoss	True
369.12	1.45	Lose2	0.6409999999999999	n/a	Yes	2.828	n/a	5.0	GoodResponse	0	0.028	368.148	2	38	Feedback	AvoidedLoss	True
370.57	2.828	Lose2	0.6409999999999999	n/a	Yes	2.828	n/a	n/a	GoodResponse	0	0.0	n/a	2	38	ISIslide	AvoidedLoss	True
373.419	0.25	Win2	0.65	0.0	Yes	2.981	0.019	n/a	GoodResponse	1	n/a	n/a	3	39	Cue	Win	True
373.669	4.1	Win2	0.65	0.0	Yes	2.981	0.0	n/a	GoodResponse	1	n/a	n/a	3	39	Fixation	Win	True
377.767	0.27	Win2	0.65	0.002	Yes	2.981	-0.002	3.0	GoodResponse	1	0.196	376.963	3	39	Target	Win	True
377.963	0.3	Win2	0.65	0.002	Yes	2.981	-0.002	3.0	GoodResponse	1	0.196	n/a	3	39	ButtonPress	Win	True
378.051	0.43	Win2	0.65	n/a	Yes	2.981	n/a	n/a	GoodResponse	1	n/a	n/a	3	39	Blank	Win	True
378.467	1.45	Win2	0.65	n/a	Yes	2.981	n/a	5.0	GoodResponse	1	0.047	377.514	3	39	Feedback	Win	True
379.917	2.981	Win2	0.65	n/a	Yes	2.981	n/a	n/a	GoodResponse	1	0.0	n/a	3	39	ISIslide	Win	True
382.916	0.25	Win2	0.6585	0.0	Yes	2.734	0.016	n/a	GoodResponse	1	n/a	n/a	4	40	Cue	Win	True
383.166	3.95	Win2	0.6585	0.0	Yes	2.734	0.0	n/a	GoodResponse	1	n/a	n/a	4	40	Fixation	Win	True
387.114	0.28	Win2	0.6585	0.002	Yes	2.734	-0.002	3.0	GoodResponse	1	0.206	386.32	4	40	Target	Win	True
387.32	0.3	Win2	0.6585	0.002	Yes	2.734	-0.002	3.0	GoodResponse	1	0.206	n/a	4	40	ButtonPress	Win	True
387.397	0.42	Win2	0.6585	n/a	Yes	2.734	n/a	n/a	GoodResponse	1	n/a	n/a	4	40	Blank	Win	True
387.814	1.45	Win2	0.6585	n/a	Yes	2.734	n/a	5.0	GoodResponse	1	0.017	386.831	4	40	Feedback	Win	True
389.263	2.734	Win2	0.6585	n/a	Yes	2.734	n/a	n/a	GoodResponse	1	0.0	n/a	4	40	ISIslide	Win	True
392.029	0.25	Win2	0.6667000000000001	0.0	Yes	2.771	0.029	n/a	GoodResponse	1	n/a	n/a	5	41	Cue	Win	True
392.279	3.9	Win2	0.6667000000000001	0.0	Yes	2.771	0.0	n/a	GoodResponse	1	n/a	n/a	5	41	Fixation	Win	True
396.178	0.28	Win2	0.6667000000000001	0.001	Yes	2.771	-0.001	3.0	GoodResponse	1	0.211	395.389	5	41	Target	Win	True
396.389	0.3	Win2	0.6667000000000001	0.001	Yes	2.771	-0.001	3.0	GoodResponse	1	0.211	n/a	5	41	ButtonPress	Win	True
396.461	0.42	Win2	0.6667000000000001	n/a	Yes	2.771	n/a	n/a	GoodResponse	1	n/a	n/a	5	41	Blank	Win	True
396.877	1.45	Win2	0.6667000000000001	n/a	Yes	2.771	n/a	5.0	GoodResponse	1	0.027	395.904	5	41	Feedback	Win	True
398.327	2.771	Win2	0.6667000000000001	n/a	Yes	2.771	n/a	n/a	GoodResponse	1	0.0	n/a	5	41	ISIslide	Win	True
401.126	0.25	Control	0.6744	0.0	Yes	2.924	0.026	n/a	GoodResponse	0	n/a	n/a	5	42	Cue	Neutral	True
401.376	3.85	Control	0.6744	0.0	Yes	2.924	0.0	n/a	GoodResponse	0	n/a	n/a	5	42	Fixation	Neutral	True
405.225	0.27	Control	0.6744	0.001	Yes	2.924	-0.001	3.0	GoodResponse	0	0.259	404.484	5	42	Target	Neutral	True
405.484	0.3	Control	0.6744	0.001	Yes	2.924	-0.001	3.0	GoodResponse	0	0.259	n/a	5	42	ButtonPress	Neutral	True
405.508	0.43	Control	0.6744	n/a	Yes	2.924	n/a	n/a	GoodResponse	0	n/a	n/a	5	42	Blank	Neutral	True
405.924	1.45	Control	0.6744	n/a	Yes	2.924	n/a	5.0	GoodResponse	0	0.006	404.93	5	42	Feedback	Neutral	True
407.374	2.924	Control	0.6744	n/a	Yes	2.924	n/a	n/a	GoodResponse	0	0.0	n/a	5	42	ISIslide	Neutral	True
410.323	0.25	Win2	0.6818000000000001	0.0	Yes	3.177	0.023	n/a	GoodResponse	1	n/a	n/a	6	43	Cue	Win	True
410.573	4.0	Win2	0.6818000000000001	0.0	Yes	3.177	0.0	n/a	GoodResponse	1	n/a	n/a	6	43	Fixation	Win	True
414.571	0.26	Win2	0.6818000000000001	0.002	Yes	3.177	-0.002	3.0	GoodResponse	1	0.194	413.765	6	43	Target	Win	True
414.765	0.3	Win2	0.6818000000000001	0.002	Yes	3.177	-0.002	3.0	GoodResponse	1	0.194	n/a	6	43	ButtonPress	Win	True
414.838	0.44	Win2	0.6818000000000001	n/a	Yes	3.177	n/a	n/a	GoodResponse	1	n/a	n/a	6	43	Blank	Win	True
415.271	1.45	Win2	0.6818000000000001	n/a	Yes	3.177	n/a	5.0	GoodResponse	1	0.023	414.294	6	43	Feedback	Win	True
416.721	3.177	Win2	0.6818000000000001	n/a	Yes	3.177	n/a	n/a	GoodResponse	1	0.0	n/a	6	43	ISIslide	Win	True
419.92	0.25	Win2	0.6667000000000001	0.0	No	2.98	0.02	n/a	NoResponse	0	n/a	n/a	6	44	Cue	MissedWin	True
420.169	4.0	Win2	0.6667000000000001	0.001	No	2.98	-0.001	n/a	NoResponse	0	n/a	n/a	6	44	Fixation	MissedWin	True
424.168	0.25	Win2	0.6667000000000001	0.002	No	2.98	-0.002	3.0	NoResponse	0	0.278	423.446	6	44	Target	MissedWin	True
424.418	0.45	Win2	0.6667000000000001	n/a	No	2.98	n/a	n/a	NoResponse	0	n/a	n/a	6	44	Blank	MissedWin	True
424.446	0.3	Win2	0.6667000000000001	0.002	No	2.98	-0.002	3.0	NoResponse	0	0.278	n/a	6	44	ButtonPress	MissedWin	True
424.868	1.45	Win2	0.6667000000000001	n/a	No	2.98	n/a	5.0	NoResponse	0	0.036	423.904	6	44	Feedback	MissedWin	True
426.317	2.98	Win2	0.6667000000000001	n/a	No	2.98	n/a	n/a	NoResponse	0	0.0	n/a	6	44	ISIslide	MissedWin	True
429.316	0.25	Control	0.6522	0.0	No	2.884	0.016	n/a	NoResponse	0	n/a	n/a	6	45	Cue	Neutral	True
429.566	4.1	Control	0.6522	0.0	No	2.884	0.0	n/a	NoResponse	0	n/a	n/a	6	45	Fixation	Neutral	True
433.665	0.24	Control	0.6522	0.001	No	2.884	-0.001	3.0	NoResponse	0	0.27	432.935	6	45	Target	Neutral	True
433.915	0.46	Control	0.6522	n/a	No	2.884	n/a	n/a	NoResponse	0	n/a	n/a	6	45	Blank	Neutral	True
433.935	0.3	Control	0.6522	0.001	No	2.884	-0.001	3.0	NoResponse	0	0.27	n/a	6	45	ButtonPress	Neutral	True
434.365	1.45	Control	0.6522	n/a	No	2.884	n/a	5.0	NoResponse	0	0.005	433.37	6	45	Feedback	Neutral	True
435.814	2.884	Control	0.6522	n/a	No	2.884	n/a	n/a	NoResponse	0	0.0	n/a	6	45	ISIslide	Neutral	True
438.73	0.25	Lose2	0.6596	0.0	Yes	3.37	0.03	n/a	GoodResponse	0	n/a	n/a	6	46	Cue	AvoidedLoss	True
438.98	4.0	Lose2	0.6596	0.0	Yes	3.37	0.0	n/a	GoodResponse	0	n/a	n/a	6	46	Fixation	AvoidedLoss	True
442.978	0.25	Lose2	0.6596	0.002	Yes	3.37	-0.002	3.0	GoodResponse	0	0.217	442.195	6	46	Target	AvoidedLoss	True
443.195	0.3	Lose2	0.6596	0.002	Yes	3.37	-0.002	3.0	GoodResponse	0	0.217	n/a	6	46	ButtonPress	AvoidedLoss	True
443.228	0.45	Lose2	0.6596	n/a	Yes	3.37	n/a	n/a	GoodResponse	0	n/a	n/a	6	46	Blank	AvoidedLoss	True
443.678	1.45	Lose2	0.6596	n/a	Yes	3.37	n/a	5.0	GoodResponse	0	0.006	442.684	6	46	Feedback	AvoidedLoss	True
445.127	3.37	Lose2	0.6596	n/a	Yes	3.37	n/a	n/a	GoodResponse	0	0.0	n/a	6	46	ISIslide	AvoidedLoss	True
448.526	0.25	Lose2	0.6667000000000001	0.0	Yes	2.674	0.026	n/a	GoodResponse	0	n/a	n/a	6	47	Cue	AvoidedLoss	True
448.776	4.0	Lose2	0.6667000000000001	0.0	Yes	2.674	0.0	n/a	GoodResponse	0	n/a	n/a	6	47	Fixation	AvoidedLoss	True
452.775	0.25	Lose2	0.6667000000000001	0.001	Yes	2.674	-0.001	3.0	GoodResponse	0	0.249	452.024	6	47	Target	AvoidedLoss	True
453.024	0.3	Lose2	0.6667000000000001	0.001	Yes	2.674	-0.001	3.0	GoodResponse	0	0.249	n/a	6	47	ButtonPress	AvoidedLoss	True
453.025	0.45	Lose2	0.6667000000000001	n/a	Yes	2.674	n/a	n/a	GoodResponse	0	n/a	n/a	6	47	Blank	AvoidedLoss	True
453.475	1.45	Lose2	0.6667000000000001	n/a	Yes	2.674	n/a	5.0	GoodResponse	0	0.014	452.489	6	47	Feedback	AvoidedLoss	True
454.924	2.674	Lose2	0.6667000000000001	n/a	Yes	2.674	n/a	n/a	GoodResponse	0	0.0	n/a	6	47	ISIslide	AvoidedLoss	True
457.623	0.25	Lose2	0.6735	0.0	Yes	3.027	0.023	n/a	GoodResponse	0	n/a	n/a	6	48	Cue	AvoidedLoss	True
457.873	3.95	Lose2	0.6735	0.0	Yes	3.027	0.0	n/a	GoodResponse	0	n/a	n/a	6	48	Fixation	AvoidedLoss	True
461.822	0.24	Lose2	0.6735	0.001	Yes	3.027	-0.001	3.0	GoodResponse	0	0.21	461.032	6	48	Target	AvoidedLoss	True
462.032	0.3	Lose2	0.6735	0.001	Yes	3.027	-0.001	3.0	GoodResponse	0	0.21	n/a	6	48	ButtonPress	AvoidedLoss	True
462.072	0.46	Lose2	0.6735	n/a	Yes	3.027	n/a	n/a	GoodResponse	0	n/a	n/a	6	48	Blank	AvoidedLoss	True
462.521	1.45	Lose2	0.6735	n/a	Yes	3.027	n/a	5.0	GoodResponse	0	0.041	461.562	6	48	Feedback	AvoidedLoss	True
463.971	3.027	Lose2	0.6735	n/a	Yes	3.027	n/a	n/a	GoodResponse	0	0.0	n/a	6	48	ISIslide	AvoidedLoss	True
467.02	0.25	Control	0.66	0.0	No	2.88	0.02	n/a	NoResponse	0	n/a	n/a	6	49	Cue	Neutral	True
467.27	4.0	Control	0.66	0.0	No	2.88	0.0	n/a	NoResponse	0	n/a	n/a	6	49	Fixation	Neutral	True
471.268	0.23	Control	0.66	0.002	No	2.88	-0.002	3.0	NoResponse	0	0.428	470.696	6	49	Target	Neutral	True
471.502	0.47	Control	0.66	n/a	No	2.88	n/a	n/a	NoResponse	0	n/a	n/a	6	49	Blank	Neutral	True
471.696	0.3	Control	0.66	0.002	No	2.88	-0.002	3.0	NoResponse	0	0.428	n/a	6	49	ButtonPress	Neutral	True
471.968	1.45	Control	0.66	n/a	No	2.88	n/a	5.0	NoResponse	0	0.008	470.976	6	49	Feedback	Neutral	True
473.418	2.88	Control	0.66	n/a	No	2.88	n/a	n/a	NoResponse	0	0.0	n/a	6	49	ISIslide	Neutral	True
476.317	0.25	Control	0.6667000000000001	0.0	Yes	2.783	0.017	n/a	GoodResponse	0	n/a	n/a	6	50	Cue	Neutral	True
476.567	4.0	Control	0.6667000000000001	0.0	Yes	2.783	0.0	n/a	GoodResponse	0	n/a	n/a	6	50	Fixation	Neutral	True
480.565	0.23	Control	0.6667000000000001	0.002	Yes	2.783	-0.002	3.0	GoodResponse	0	0.215	479.78	6	50	Target	Neutral	True
480.78	0.3	Control	0.6667000000000001	0.002	Yes	2.783	-0.002	3.0	GoodResponse	0	0.215	n/a	6	50	ButtonPress	Neutral	True
480.798	0.47	Control	0.6667000000000001	n/a	Yes	2.783	n/a	n/a	GoodResponse	0	n/a	n/a	6	50	Blank	Neutral	True
481.265	1.45	Control	0.6667000000000001	n/a	Yes	2.783	n/a	5.0	GoodResponse	0	0.028	480.293	6	50	Feedback	Neutral	True
482.714	2.783	Control	0.6667000000000001	n/a	Yes	2.783	n/a	n/a	GoodResponse	0	0.0	n/a	6	50	ISIslide	Neutral	True
485.514	0.25	Control	0.6731	0.0	Yes	2.736	0.014	n/a	GoodResponse	0	n/a	n/a	6	51	Cue	Neutral	True
485.763	3.95	Control	0.6731	0.001	Yes	2.736	-0.001	n/a	GoodResponse	0	n/a	n/a	6	51	Fixation	Neutral	True
489.712	0.22	Control	0.6731	0.002	Yes	2.736	-0.002	3.0	GoodResponse	0	0.191	488.903	6	51	Target	Neutral	True
489.903	0.3	Control	0.6731	0.002	Yes	2.736	-0.002	3.0	GoodResponse	0	0.191	n/a	6	51	ButtonPress	Neutral	True
489.945	0.48	Control	0.6731	n/a	Yes	2.736	n/a	n/a	GoodResponse	0	n/a	n/a	6	51	Blank	Neutral	True
490.412	1.45	Control	0.6731	n/a	Yes	2.736	n/a	5.0	GoodResponse	0	0.007	489.419	6	51	Feedback	Neutral	True
491.861	2.736	Control	0.6731	n/a	Yes	2.736	n/a	n/a	GoodResponse	0	0.0	n/a	6	51	ISIslide	Neutral	True
494.627	0.25	Control	0.6792	0.0	Yes	2.623	0.027	n/a	GoodResponse	0	n/a	n/a	6	52	Cue	Neutral	True
494.877	4.05	Control	0.6792	0.0	Yes	2.623	0.0	n/a	GoodResponse	0	n/a	n/a	6	52	Fixation	Neutral	True
498.926	0.21	Control	0.6792	0.001	Yes	2.623	-0.001	3.0	GoodResponse	0	0.17	498.096	6	52	Target	Neutral	True
499.096	0.3	Control	0.6792	0.001	Yes	2.623	-0.001	3.0	GoodResponse	0	0.17	n/a	6	52	ButtonPress	Neutral	True
499.142	0.49	Control	0.6792	n/a	Yes	2.623	n/a	n/a	GoodResponse	0	n/a	n/a	6	52	Blank	Neutral	True
499.625	1.45	Control	0.6792	n/a	Yes	2.623	n/a	5.0	GoodResponse	0	0.01	498.635	6	52	Feedback	Neutral	True
501.075	2.623	Control	0.6792	n/a	Yes	2.623	n/a	n/a	GoodResponse	0	0.0	n/a	6	52	ISIslide	Neutral	True
503.724	0.25	Win2	0.6667000000000001	0.0	No	2.926	0.024	n/a	NoResponse	0	n/a	n/a	6	53	Cue	MissedWin	True
503.974	4.05	Win2	0.6667000000000001	0.0	No	2.926	0.0	n/a	NoResponse	0	n/a	n/a	6	53	Fixation	MissedWin	True
508.022	0.2	Win2	0.6667000000000001	0.002	No	2.926	-0.002	3.0	NoResponse	0	0.253	507.275	6	53	Target	MissedWin	True
508.222	0.5	Win2	0.6667000000000001	n/a	No	2.926	n/a	n/a	NoResponse	0	n/a	n/a	6	53	Blank	MissedWin	True
508.275	0.3	Win2	0.6667000000000001	0.002	No	2.926	-0.002	3.0	NoResponse	0	0.253	n/a	6	53	ButtonPress	MissedWin	True
508.722	1.45	Win2	0.6667000000000001	n/a	No	2.926	n/a	5.0	NoResponse	0	0.035	507.757	6	53	Feedback	MissedWin	True
510.172	2.926	Win2	0.6667000000000001	n/a	No	2.926	n/a	n/a	NoResponse	0	0.0	n/a	6	53	ISIslide	MissedWin	True
513.121	0.25	Win2	0.6545000000000001	0.0	No	2.729	0.021	n/a	LatePress	0	n/a	n/a	6	54	Cue	MissedWin	True
513.371	3.95	Win2	0.6545000000000001	0.0	No	2.729	0.0	n/a	LatePress	0	n/a	n/a	6	54	Fixation	MissedWin	True
517.319	0.19	Win2	0.6545000000000001	0.002	No	2.729	-0.002	3.0	LatePress	0	0.193	516.512	6	54	Target	MissedWin	True
517.512	0.3	Win2	0.6545000000000001	0.002	No	2.729	-0.002	3.0	LatePress	0	0.193	n/a	6	54	ButtonPress	MissedWin	True
517.519	0.51	Win2	0.6545000000000001	n/a	No	2.729	n/a	n/a	LatePress	0	n/a	n/a	6	54	Blank	MissedWin	True
518.019	1.45	Win2	0.6545000000000001	n/a	No	2.729	n/a	5.0	LatePress	0	0.007	517.026	6	54	Feedback	MissedWin	True
519.468	2.729	Win2	0.6545000000000001	n/a	No	2.729	n/a	n/a	LatePress	0	0.0	n/a	6	54	ISIslide	MissedWin	True
522.217	0.25	Control	0.6429	0.001	No	3.033	0.017	n/a	NoResponse	0	n/a	n/a	6	55	Cue	Neutral	True
522.467	3.95	Control	0.6429	0.001	No	3.033	0.0	n/a	NoResponse	0	n/a	n/a	6	55	Fixation	Neutral	True
526.416	0.2	Control	0.6429	0.001	No	3.033	-0.001	3.0	NoResponse	0	0.209	525.625	6	55	Target	Neutral	True
526.616	0.5	Control	0.6429	n/a	No	3.033	n/a	n/a	NoResponse	0	n/a	n/a	6	55	Blank	Neutral	True
526.625	0.3	Control	0.6429	0.001	No	3.033	-0.001	3.0	NoResponse	0	0.209	n/a	6	55	ButtonPress	Neutral	True
527.116	1.45	Control	0.6429	n/a	No	3.033	n/a	5.0	NoResponse	0	0.031	526.147	6	55	Feedback	Neutral	True
528.565	3.033	Control	0.6429	n/a	No	3.033	n/a	n/a	NoResponse	0	0.0	n/a	6	55	ISIslide	Neutral	True
531.614	0.25	Control	0.6491	0.0	Yes	2.836	0.014	n/a	GoodResponse	0	n/a	n/a	6	56	Cue	Neutral	True
531.864	3.95	Control	0.6491	0.0	Yes	2.836	0.0	n/a	GoodResponse	0	n/a	n/a	6	56	Fixation	Neutral	True
535.813	0.21	Control	0.6491	0.001	Yes	2.836	-0.001	3.0	GoodResponse	0	0.178	534.991	6	56	Target	Neutral	True
535.991	0.3	Control	0.6491	0.001	Yes	2.836	-0.001	3.0	GoodResponse	0	0.178	n/a	6	56	ButtonPress	Neutral	True
536.029	0.49	Control	0.6491	n/a	Yes	2.836	n/a	n/a	GoodResponse	0	n/a	n/a	6	56	Blank	Neutral	True
536.513	1.45	Control	0.6491	n/a	Yes	2.836	n/a	5.0	GoodResponse	0	0.0	535.513	6	56	Feedback	Neutral	True
537.962	2.836	Control	0.6491	n/a	Yes	2.836	n/a	n/a	GoodResponse	0	0.0	n/a	6	56	ISIslide	Neutral	True
540.828	0.25	Control	0.6552	0.0	Yes	3.472	0.028	n/a	GoodResponse	0	n/a	n/a	6	57	Cue	Neutral	True
541.078	4.0	Control	0.6552	0.0	Yes	3.472	0.0	n/a	GoodResponse	0	n/a	n/a	6	57	Fixation	Neutral	True
545.076	0.22	Control	0.6552	0.002	Yes	3.472	-0.002	3.0	GoodResponse	0	0.213	544.289	6	57	Target	Neutral	True
545.289	0.3	Control	0.6552	0.002	Yes	3.472	-0.002	3.0	GoodResponse	0	0.213	n/a	6	57	ButtonPress	Neutral	True
545.309	0.48	Control	0.6552	n/a	Yes	3.472	n/a	n/a	GoodResponse	0	n/a	n/a	6	57	Blank	Neutral	True
545.776	1.45	Control	0.6552	n/a	Yes	3.472	n/a	5.0	GoodResponse	0	0.006	544.782	6	57	Feedback	Neutral	True
547.226	3.472	Control	0.6552	n/a	Yes	3.472	n/a	n/a	GoodResponse	0	0.0	n/a	6	57	ISIslide	Neutral	True
550.724	0.25	Win2	0.6441	0.0	No	2.726	0.024	n/a	NoResponse	0	n/a	n/a	6	58	Cue	MissedWin	False
550.974	4.05	Win2	0.6441	0.0	No	2.726	0.0	3.0	NoResponse	0	3.888	553.862	6	58	Fixation	MissedWin	False
554.862	0.3	Win2	0.6441	0.0	No	2.726	0.0	3.0	NoResponse	0	3.888	n/a	6	58	ButtonPress	MissedWin	False
555.023	0.22	Win2	0.6441	0.001	No	2.726	-0.001	3.0	NoResponse	0	0.483	554.506	6	58	Target	MissedWin	False
555.239	0.48	Win2	0.6441	n/a	No	2.726	n/a	n/a	NoResponse	0	n/a	n/a	6	58	Blank	MissedWin	False
555.506	0.3	Win2	0.6441	0.001	No	2.726	-0.001	3.0	NoResponse	0	0.483	n/a	6	58	ButtonPress	MissedWin	False
555.723	1.45	Win2	0.6441	n/a	No	2.726	n/a	5.0	NoResponse	0	0.009	554.732	6	58	Feedback	MissedWin	False
557.172	2.726	Win2	0.6441	n/a	No	2.726	n/a	n/a	NoResponse	0	0.0	n/a	6	58	ISIslide	MissedWin	False
559.921	0.25	Lose2	0.65	0.0	Yes	2.679	0.021	n/a	GoodResponse	0	n/a	n/a	6	59	Cue	AvoidedLoss	True
560.171	4.0	Lose2	0.65	0.0	Yes	2.679	0.0	n/a	GoodResponse	0	n/a	n/a	6	59	Fixation	AvoidedLoss	True
564.17	0.23	Lose2	0.65	0.001	Yes	2.679	-0.001	3.0	GoodResponse	0	0.225	563.395	6	59	Target	AvoidedLoss	True
564.395	0.3	Lose2	0.65	0.001	Yes	2.679	-0.001	3.0	GoodResponse	0	0.225	n/a	6	59	ButtonPress	AvoidedLoss	True
564.403	0.47	Lose2	0.65	n/a	Yes	2.679	n/a	n/a	GoodResponse	0	n/a	n/a	6	59	Blank	AvoidedLoss	True
564.869	1.45	Lose2	0.65	n/a	Yes	2.679	n/a	5.0	GoodResponse	0	0.034	563.903	6	59	Feedback	AvoidedLoss	True
566.319	2.679	Lose2	0.65	n/a	Yes	2.679	n/a	n/a	GoodResponse	0	0.0	n/a	6	59	ISIslide	AvoidedLoss	True
569.018	0.25	Control	0.6557	0.0	Yes	2.682	0.018	n/a	GoodResponse	0	n/a	n/a	6	60	Cue	Neutral	True
569.268	4.0	Control	0.6557	0.0	Yes	2.682	0.0	n/a	GoodResponse	0	n/a	n/a	6	60	Fixation	Neutral	True
573.266	0.24	Control	0.6557	0.002	Yes	2.682	-0.002	3.0	GoodResponse	0	0.227	572.493	6	60	Target	Neutral	True
573.493	0.3	Control	0.6557	0.002	Yes	2.682	-0.002	3.0	GoodResponse	0	0.227	n/a	6	60	ButtonPress	Neutral	True
573.516	0.46	Control	0.6557	n/a	Yes	2.682	n/a	n/a	GoodResponse	0	n/a	n/a	6	60	Blank	Neutral	True
573.966	1.45	Control	0.6557	n/a	Yes	2.682	n/a	5.0	GoodResponse	0	0.011	572.977	6	60	Feedback	Neutral	True
575.416	2.682	Control	0.6557	n/a	Yes	2.682	n/a	n/a	GoodResponse	0	0.0	n/a	6	60	ISIslide	Neutral	True
578.115	0.25	Lose2	0.6613	0.0	Yes	2.985	0.015	n/a	GoodResponse	0	n/a	n/a	6	61	Cue	AvoidedLoss	True
578.365	4.0	Lose2	0.6613	0.0	Yes	2.985	0.0	n/a	GoodResponse	0	n/a	n/a	6	61	Fixation	AvoidedLoss	True
582.363	0.24	Lose2	0.6613	0.002	Yes	2.985	-0.002	3.0	GoodResponse	0	0.213	581.576	6	61	Target	AvoidedLoss	True
582.576	0.3	Lose2	0.6613	0.002	Yes	2.985	-0.002	3.0	GoodResponse	0	0.213	n/a	6	61	ButtonPress	AvoidedLoss	True
582.613	0.46	Lose2	0.6613	n/a	Yes	2.985	n/a	n/a	GoodResponse	0	n/a	n/a	6	61	Blank	AvoidedLoss	True
583.063	1.45	Lose2	0.6613	n/a	Yes	2.985	n/a	5.0	GoodResponse	0	0.035	582.098	6	61	Feedback	AvoidedLoss	True
584.513	2.985	Lose2	0.6613	n/a	Yes	2.985	n/a	n/a	GoodResponse	0	0.0	n/a	6	61	ISIslide	AvoidedLoss	True
587.528	0.25	Lose2	0.6667000000000001	0.0	Yes	2.872	0.028	n/a	GoodResponse	0	n/a	n/a	6	62	Cue	AvoidedLoss	True
587.778	3.9	Lose2	0.6667000000000001	0.0	Yes	2.872	0.0	n/a	GoodResponse	0	n/a	n/a	6	62	Fixation	AvoidedLoss	True
591.677	0.24	Lose2	0.6667000000000001	0.001	Yes	2.872	-0.001	3.0	GoodResponse	0	0.223	590.9	6	62	Target	AvoidedLoss	True
591.9	0.3	Lose2	0.6667000000000001	0.001	Yes	2.872	-0.001	3.0	GoodResponse	0	0.223	n/a	6	62	ButtonPress	AvoidedLoss	True
591.927	0.46	Lose2	0.6667000000000001	n/a	Yes	2.872	n/a	n/a	GoodResponse	0	n/a	n/a	6	62	Blank	AvoidedLoss	True
592.377	1.45	Lose2	0.6667000000000001	n/a	Yes	2.872	n/a	5.0	GoodResponse	0	0.038	591.415	6	62	Feedback	AvoidedLoss	True
593.826	2.872	Lose2	0.6667000000000001	n/a	Yes	2.872	n/a	n/a	GoodResponse	0	0.0	n/a	6	62	ISIslide	AvoidedLoss	True
596.725	0.25	Lose2	0.6562	0.0	No	2.625	0.025	n/a	NoResponse	-1	n/a	n/a	5	63	Cue	Loss	True
596.975	4.05	Lose2	0.6562	0.0	No	2.625	0.0	n/a	NoResponse	-1	n/a	n/a	5	63	Fixation	Loss	True
601.024	0.23	Lose2	0.6562	0.001	No	2.625	-0.001	3.0	NoResponse	-1	0.241	600.265	5	63	Target	Loss	True
601.257	0.47	Lose2	0.6562	n/a	No	2.625	n/a	n/a	NoResponse	-1	n/a	n/a	5	63	Blank	Loss	True
601.265	0.3	Lose2	0.6562	0.001	No	2.625	-0.001	3.0	NoResponse	-1	0.241	n/a	5	63	ButtonPress	Loss	True
601.723	1.45	Lose2	0.6562	n/a	No	2.625	n/a	5.0	NoResponse	-1	0.009	600.732	5	63	Feedback	Loss	True
603.173	2.625	Lose2	0.6562	n/a	No	2.625	n/a	n/a	NoResponse	-1	0.0	n/a	5	63	ISIslide	Loss	True
605.822	0.25	Win2	0.6615000000000001	0.0	Yes	3.128	0.022	n/a	GoodResponse	1	n/a	n/a	6	64	Cue	Win	True
606.072	4.15	Win2	0.6615000000000001	0.0	Yes	3.128	0.0	n/a	GoodResponse	1	n/a	n/a	6	64	Fixation	Win	True
610.22	0.23	Win2	0.6615000000000001	0.002	Yes	3.128	-0.002	3.0	GoodResponse	1	0.205	609.425	6	64	Target	Win	True
610.425	0.3	Win2	0.6615000000000001	0.002	Yes	3.128	-0.002	3.0	GoodResponse	1	0.205	n/a	6	64	ButtonPress	Win	True
610.454	0.47	Win2	0.6615000000000001	n/a	Yes	3.128	n/a	n/a	GoodResponse	1	n/a	n/a	6	64	Blank	Win	True
610.92	1.45	Win2	0.6615000000000001	n/a	Yes	3.128	n/a	5.0	GoodResponse	1	0.032	609.952	6	64	Feedback	Win	True
612.37	3.128	Win2	0.6615000000000001	n/a	Yes	3.128	n/a	n/a	GoodResponse	1	0.0	n/a	6	64	ISIslide	Win	True
615.519	0.25	Control	0.6667000000000001	0.0	Yes	2.781	0.019	n/a	GoodResponse	0	n/a	n/a	6	65	Cue	Neutral	True
615.768	4.0	Control	0.6667000000000001	0.001	Yes	2.781	-0.001	n/a	GoodResponse	0	n/a	n/a	6	65	Fixation	Neutral	True
619.767	0.23	Control	0.6667000000000001	0.002	Yes	2.781	-0.002	3.0	GoodResponse	0	0.217	618.984	6	65	Target	Neutral	True
619.984	0.3	Control	0.6667000000000001	0.002	Yes	2.781	-0.002	3.0	GoodResponse	0	0.217	n/a	6	65	ButtonPress	Neutral	True
620	0.47	Control	0.6667000000000001	n/a	Yes	2.781	n/a	n/a	GoodResponse	0	n/a	n/a	6	65	Blank	Neutral	True
620.467	1.45	Control	0.6667000000000001	n/a	Yes	2.781	n/a	5.0	GoodResponse	0	0.046	619.513	6	65	Feedback	Neutral	True
621.916	2.781	Control	0.6667000000000001	n/a	Yes	2.781	n/a	n/a	GoodResponse	0	0.0	n/a	6	65	ISIslide	Neutral	True
624.715	0.25	Win2	0.6716	0.0	Yes	2.785	0.015	n/a	GoodResponse	1	n/a	n/a	7	66	Cue	Win	True
624.965	3.9	Win2	0.6716	0.0	Yes	2.785	0.0	n/a	GoodResponse	1	n/a	n/a	7	66	Fixation	Win	True
628.864	0.22	Win2	0.6716	0.001	Yes	2.785	-0.001	3.0	GoodResponse	1	0.206	628.07	7	66	Target	Win	True
629.07	0.3	Win2	0.6716	0.001	Yes	2.785	-0.001	3.0	GoodResponse	1	0.206	n/a	7	66	ButtonPress	Win	True
629.081	0.48	Win2	0.6716	n/a	Yes	2.785	n/a	n/a	GoodResponse	1	n/a	n/a	7	66	Blank	Win	True
629.564	1.45	Win2	0.6716	n/a	Yes	2.785	n/a	5.0	GoodResponse	1	0.022	628.586	7	66	Feedback	Win	True
631.013	2.785	Win2	0.6716	n/a	Yes	2.785	n/a	n/a	GoodResponse	1	0.0	n/a	7	66	ISIslide	Win	True
633.829	0.25	Control	0.6765000000000001	0.0	Yes	2.721	0.029	n/a	GoodResponse	0	n/a	n/a	7	67	Cue	Neutral	True
634.079	3.95	Control	0.6765000000000001	0.0	Yes	2.721	0.0	n/a	GoodResponse	0	n/a	n/a	7	67	Fixation	Neutral	True
638.027	0.21	Control	0.6765000000000001	0.002	Yes	2.721	-0.002	3.0	GoodResponse	0	0.204	637.231	7	67	Target	Neutral	True
638.231	0.3	Control	0.6765000000000001	0.002	Yes	2.721	-0.002	3.0	GoodResponse	0	0.204	n/a	7	67	ButtonPress	Neutral	True
638.244	0.49	Control	0.6765000000000001	n/a	Yes	2.721	n/a	n/a	GoodResponse	0	n/a	n/a	7	67	Blank	Neutral	True
638.727	1.45	Control	0.6765000000000001	n/a	Yes	2.721	n/a	5.0	GoodResponse	0	0.029	637.756	7	67	Feedback	Neutral	True
640.177	2.721	Control	0.6765000000000001	n/a	Yes	2.721	n/a	n/a	GoodResponse	0	0.0	n/a	7	67	ISIslide	Neutral	True
642.926	0.25	Win2	0.6812	0.0	Yes	3.074	0.026	n/a	GoodResponse	1	n/a	n/a	8	68	Cue	Win	True
643.176	4.0	Win2	0.6812	0.0	Yes	3.074	0.0	n/a	GoodResponse	1	n/a	n/a	8	68	Fixation	Win	True
647.174	0.2	Win2	0.6812	0.002	Yes	3.074	-0.002	3.0	GoodResponse	1	0.198	646.372	8	68	Target	Win	True
647.372	0.3	Win2	0.6812	0.002	Yes	3.074	-0.002	3.0	GoodResponse	1	0.198	n/a	8	68	ButtonPress	Win	True
647.374	0.5	Win2	0.6812	n/a	Yes	3.074	n/a	n/a	GoodResponse	1	n/a	n/a	8	68	Blank	Win	True
647.874	1.45	Win2	0.6812	n/a	Yes	3.074	n/a	5.0	GoodResponse	1	0.006	646.88	8	68	Feedback	Win	True
649.324	3.074	Win2	0.6812	n/a	Yes	3.074	n/a	n/a	GoodResponse	1	0.0	n/a	8	68	ISIslide	Win	True
652.422	0.25	Win2	0.6714	0.001	No	3.228	0.022	n/a	NoResponse	0	n/a	n/a	8	69	Cue	MissedWin	True
652.672	3.95	Win2	0.6714	0.0	No	3.228	0.0	n/a	NoResponse	0	n/a	n/a	8	69	Fixation	MissedWin	True
656.621	0.19	Win2	0.6714	0.001	No	3.228	-0.001	3.0	NoResponse	0	0.223	655.844	8	69	Target	MissedWin	True
656.821	0.51	Win2	0.6714	n/a	No	3.228	n/a	n/a	NoResponse	0	n/a	n/a	8	69	Blank	MissedWin	True
656.844	0.3	Win2	0.6714	0.001	No	3.228	-0.001	3.0	NoResponse	0	0.223	n/a	8	69	ButtonPress	MissedWin	True
657.321	1.45	Win2	0.6714	n/a	No	3.228	n/a	5.0	NoResponse	0	0.02	656.341	8	69	Feedback	MissedWin	True
658.77	3.228	Win2	0.6714	n/a	No	3.228	n/a	n/a	NoResponse	0	0.0	n/a	8	69	ISIslide	MissedWin	True
662.019	0.25	Lose2	0.662	0.0	No	3.031	0.019	n/a	NoResponse	-1	n/a	n/a	7	70	Cue	Loss	True
662.269	4.05	Lose2	0.662	0.0	No	3.031	0.0	n/a	NoResponse	-1	n/a	n/a	7	70	Fixation	Loss	True
666.318	0.18	Lose2	0.662	0.001	No	3.031	-0.001	3.0	NoResponse	-1	0.223	665.541	7	70	Target	Loss	True
666.501	0.52	Lose2	0.662	n/a	No	3.031	n/a	n/a	NoResponse	-1	n/a	n/a	7	70	Blank	Loss	True
666.541	0.3	Lose2	0.662	0.001	No	3.031	-0.001	3.0	NoResponse	-1	0.223	n/a	7	70	ButtonPress	Loss	True
667.017	1.45	Lose2	0.662	n/a	No	3.031	n/a	5.0	NoResponse	-1	0.032	666.049	7	70	Feedback	Loss	True
668.467	3.031	Lose2	0.662	n/a	No	3.031	n/a	n/a	NoResponse	-1	0.0	n/a	7	70	ISIslide	Loss	True
671.516	0.25	Win2	0.6528	0.0	No	2.734	0.016	n/a	NoResponse	0	n/a	n/a	7	71	Cue	MissedWin	True
671.766	4.05	Win2	0.6528	0.0	No	2.734	0.0	n/a	NoResponse	0	n/a	n/a	7	71	Fixation	MissedWin	True
675.814	0.18	Win2	0.6528	0.002	No	2.734	-0.002	3.0	NoResponse	0	0.225	675.039	7	71	Target	MissedWin	True
675.998	0.52	Win2	0.6528	n/a	No	2.734	n/a	n/a	NoResponse	0	n/a	n/a	7	71	Blank	MissedWin	True
676.039	0.3	Win2	0.6528	0.002	No	2.734	-0.002	3.0	NoResponse	0	0.225	n/a	7	71	ButtonPress	MissedWin	True
676.514	1.45	Win2	0.6528	n/a	No	2.734	n/a	5.0	NoResponse	0	0.047	675.561	7	71	Feedback	MissedWin	True
677.964	2.734	Win2	0.6528	n/a	No	2.734	n/a	n/a	NoResponse	0	0.0	n/a	7	71	ISIslide	MissedWin	True
680.729	0.25	Win2	0.6437999999999999	0.0	No	2.771	0.029	n/a	NoResponse	0	n/a	n/a	7	72	Cue	MissedWin	True
680.979	4.1	Win2	0.6437999999999999	0.0	No	2.771	0.0	n/a	NoResponse	0	n/a	n/a	7	72	Fixation	MissedWin	True
685.078	0.19	Win2	0.6437999999999999	0.001	No	2.771	-0.001	3.0	NoResponse	0	0.211	684.289	7	72	Target	MissedWin	True
685.278	0.51	Win2	0.6437999999999999	n/a	No	2.771	n/a	n/a	NoResponse	0	n/a	n/a	7	72	Blank	MissedWin	True
685.289	0.3	Win2	0.6437999999999999	0.001	No	2.771	-0.001	3.0	NoResponse	0	0.211	n/a	7	72	ButtonPress	MissedWin	True
685.778	1.45	Win2	0.6437999999999999	n/a	No	2.771	n/a	5.0	NoResponse	0	0.005	684.783	7	72	Feedback	MissedWin	True
687.227	2.771	Win2	0.6437999999999999	n/a	No	2.771	n/a	n/a	NoResponse	0	0.0	n/a	7	72	ISIslide	MissedWin	True
690.026	0.25	Win2	0.6351	0.0	No	2.674	0.026	n/a	PrematurePress	0	n/a	n/a	7	73	Cue	MissedWin	False
690.276	4.0	Win2	0.6351	0.0	No	2.674	0.0	3.0	PrematurePress	0	3.654	692.93	7	73	Fixation	MissedWin	False
693.93	0.3	Win2	0.6351	0.0	No	2.674	0.0	3.0	PrematurePress	0	3.654	n/a	7	73	ButtonPress	MissedWin	False
694.275	0.2	Win2	0.6351	0.001	No	2.674	-0.001	3.0	PrematurePress	0	0.099	693.374	7	73	Target	MissedWin	False
694.374	0.3	Win2	0.6351	0.001	No	2.674	-0.001	3.0	PrematurePress	0	0.099	n/a	7	73	ButtonPress	MissedWin	False
694.475	0.5	Win2	0.6351	n/a	No	2.674	n/a	n/a	PrematurePress	0	n/a	n/a	7	73	Blank	MissedWin	False
694.974	1.45	Win2	0.6351	n/a	No	2.674	n/a	5.0	PrematurePress	0	0.026	694.0	7	73	Feedback	MissedWin	False
696.424	2.674	Win2	0.6351	n/a	No	2.674	n/a	n/a	PrematurePress	0	0.0	n/a	7	73	ISIslide	MissedWin	False
699.123	0.25	Lose2	0.6267	0.0	No	2.627	0.023	n/a	LatePress	-1	n/a	n/a	6	74	Cue	Loss	True
699.373	4.05	Lose2	0.6267	0.0	No	2.627	0.0	n/a	LatePress	-1	n/a	n/a	6	74	Fixation	Loss	True
703.422	0.21	Lose2	0.6267	0.001	No	2.627	-0.001	3.0	LatePress	-1	0.216	702.638	6	74	Target	Loss	True
703.638	0.49	Lose2	0.6267	n/a	No	2.627	n/a	n/a	LatePress	-1	n/a	n/a	6	74	Blank	Loss	True
703.638	0.3	Lose2	0.6267	0.001	No	2.627	-0.001	3.0	LatePress	-1	0.216	n/a	6	74	ButtonPress	Loss	True
704.121	1.45	Lose2	0.6267	n/a	No	2.627	n/a	5.0	LatePress	-1	0.0	703.121	6	74	Feedback	Loss	True
705.571	2.627	Lose2	0.6267	n/a	No	2.627	n/a	n/a	LatePress	-1	0.0	n/a	6	74	ISIslide	Loss	True
708.22	0.25	Lose2	0.6315999999999999	0.0	Yes	2.93	0.02	n/a	GoodResponse	0	n/a	n/a	6	75	Cue	AvoidedLoss	True
708.47	3.95	Lose2	0.6315999999999999	0.0	Yes	2.93	0.0	n/a	GoodResponse	0	n/a	n/a	6	75	Fixation	AvoidedLoss	True
712.418	0.22	Lose2	0.6315999999999999	0.002	Yes	2.93	-0.002	3.0	GoodResponse	0	0.193	711.611	6	75	Target	AvoidedLoss	True
712.611	0.3	Lose2	0.6315999999999999	0.002	Yes	2.93	-0.002	3.0	GoodResponse	0	0.193	n/a	6	75	ButtonPress	AvoidedLoss	True
712.652	0.48	Lose2	0.6315999999999999	n/a	Yes	2.93	n/a	n/a	GoodResponse	0	n/a	n/a	6	75	Blank	AvoidedLoss	True
713.118	1.45	Lose2	0.6315999999999999	n/a	Yes	2.93	n/a	5.0	GoodResponse	0	0.028	712.146	6	75	Feedback	AvoidedLoss	True
714.568	2.93	Lose2	0.6315999999999999	n/a	Yes	2.93	n/a	n/a	GoodResponse	0	0.0	n/a	6	75	ISIslide	AvoidedLoss	True
717.517	0.25	Control	0.6364	0.0	Yes	3.233	0.017	n/a	GoodResponse	0	n/a	n/a	6	76	Cue	Neutral	True
717.767	4.05	Control	0.6364	0.0	Yes	3.233	0.0	n/a	GoodResponse	0	n/a	n/a	6	76	Fixation	Neutral	True
721.815	0.23	Control	0.6364	0.002	Yes	3.233	-0.002	3.0	GoodResponse	0	0.228	721.043	6	76	Target	Neutral	True
722.043	0.3	Control	0.6364	0.002	Yes	3.233	-0.002	3.0	GoodResponse	0	0.228	n/a	6	76	ButtonPress	Neutral	True
722.048	0.47	Control	0.6364	n/a	Yes	3.233	n/a	n/a	GoodResponse	0	n/a	n/a	6	76	Blank	Neutral	True
722.515	1.45	Control	0.6364	n/a	Yes	3.233	n/a	5.0	GoodResponse	0	0.046	721.561	6	76	Feedback	Neutral	True
723.964	3.233	Control	0.6364	n/a	Yes	3.233	n/a	n/a	GoodResponse	0	0.0	n/a	6	76	ISIslide	Neutral	True
727.213	0.25	Lose2	0.6409999999999999	0.0	Yes	2.587	0.013	n/a	GoodResponse	0	n/a	n/a	6	77	Cue	AvoidedLoss	True
727.463	3.95	Lose2	0.6409999999999999	0.0	Yes	2.587	0.0	n/a	GoodResponse	0	n/a	n/a	6	77	Fixation	AvoidedLoss	True
731.412	0.24	Lose2	0.6409999999999999	0.001	Yes	2.587	-0.001	3.0	GoodResponse	0	0.206	730.618	6	77	Target	AvoidedLoss	True
731.618	0.3	Lose2	0.6409999999999999	0.001	Yes	2.587	-0.001	3.0	GoodResponse	0	0.206	n/a	6	77	ButtonPress	AvoidedLoss	True
731.662	0.46	Lose2	0.6409999999999999	n/a	Yes	2.587	n/a	n/a	GoodResponse	0	n/a	n/a	6	77	Blank	AvoidedLoss	True
732.112	1.45	Lose2	0.6409999999999999	n/a	Yes	2.587	n/a	5.0	GoodResponse	0	0.01	731.122	6	77	Feedback	AvoidedLoss	True
733.561	2.587	Lose2	0.6409999999999999	n/a	Yes	2.587	n/a	n/a	GoodResponse	0	0.0	n/a	6	77	ISIslide	AvoidedLoss	True
