onset	duration	cue_type	current_mean_accuracy	duration_error	is_hit	isi_adjusted	onset_delay	response	response_type	reward	rt	rt_time	total_reward	trial_number	trial_phase	trial_type	one_press
11.108	0.25	Control	1.0	0.0	Yes	2.942	0.008	n/a	GoodResponse	0	n/a	n/a	0	0	Cue	Neutral	True
11.359	3.85	Control	1.0	0.0	Yes	2.942	0.001	n/a	GoodResponse	0	n/a	n/a	0	0	Fixation	Neutral	True
15.204	0.4	Control	1.0	0.004	Yes	2.942	-0.004	2.0	GoodResponse	0	0.193	14.397	0	0	Target	Neutral	True
15.397	0.3	Control	1.0	0.004	Yes	2.942	-0.004	2.0	GoodResponse	0	0.193	n/a	0	0	ButtonPress	Neutral	True
15.605	0.3	Control	1.0	n/a	Yes	2.942	n/a	n/a	GoodResponse	0	n/a	n/a	0	0	Blank	Neutral	True
15.906	1.45	Control	1.0	n/a	Yes	2.942	n/a	5.0	GoodResponse	0	0.02	14.926	0	0	Feedback	Neutral	True
17.36	2.942	Control	1.0	n/a	Yes	2.942	n/a	n/a	GoodResponse	0	0.0	n/a	0	0	ISIslide	Neutral	True
20.319	0.25	Lose2	1.0	0.0	Yes	2.781	0.019	n/a	GoodResponse	0	n/a	n/a	0	1	Cue	AvoidedLoss	True
20.57	4.0	Lose2	1.0	0.0	Yes	2.781	0.001	n/a	GoodResponse	0	n/a	n/a	0	1	Fixation	AvoidedLoss	True
24.565	0.39	Lose2	1.0	0.004	Yes	2.781	-0.004	2.0	GoodResponse	0	0.221	23.786	0	1	Target	AvoidedLoss	True
24.786	0.3	Lose2	1.0	0.004	Yes	2.781	-0.004	2.0	GoodResponse	0	0.221	n/a	0	1	ButtonPress	AvoidedLoss	True
24.966	0.31	Lose2	1.0	n/a	Yes	2.781	n/a	n/a	GoodResponse	0	n/a	n/a	0	1	Blank	AvoidedLoss	True
25.267	1.45	Lose2	1.0	n/a	Yes	2.781	n/a	5.0	GoodResponse	0	0.024	24.291	0	1	Feedback	AvoidedLoss	True
26.722	2.781	Lose2	1.0	n/a	Yes	2.781	n/a	n/a	GoodResponse	0	0.0	n/a	0	1	ISIslide	AvoidedLoss	True
29.513	0.25	Control	1.0	0.0	Yes	2.587	0.013	n/a	GoodResponse	0	n/a	n/a	0	2	Cue	Neutral	True
29.764	4.1	Control	1.0	0.0	Yes	2.587	0.001	n/a	GoodResponse	0	n/a	n/a	0	2	Fixation	Neutral	True
33.86	0.38	Control	1.0	0.003	Yes	2.587	-0.003	2.0	GoodResponse	0	0.172	33.032	0	2	Target	Neutral	True
34.032	0.3	Control	1.0	0.003	Yes	2.587	-0.003	2.0	GoodResponse	0	0.172	n/a	0	2	ButtonPress	Neutral	True
34.244	0.32	Control	1.0	n/a	Yes	2.587	n/a	n/a	GoodResponse	0	n/a	n/a	0	2	Blank	Neutral	True
34.562	1.45	Control	1.0	n/a	Yes	2.587	n/a	5.0	GoodResponse	0	0.046	33.608	0	2	Feedback	Neutral	True
36.016	2.587	Control	1.0	n/a	Yes	2.587	n/a	n/a	GoodResponse	0	0.0	n/a	0	2	ISIslide	Neutral	True
38.624	0.25	Win2	1.0	0.0	Yes	2.826	0.024	n/a	GoodResponse	1	n/a	n/a	1	3	Cue	Win	True
38.875	3.95	Win2	1.0	0.0	Yes	2.826	0.001	n/a	GoodResponse	1	n/a	n/a	1	3	Fixation	Win	True
42.82	0.37	Win2	1.0	0.004	Yes	2.826	-0.004	2.0	GoodResponse	1	0.182	42.002	1	3	Target	Win	True
43.002	0.3	Win2	1.0	0.004	Yes	2.826	-0.004	2.0	GoodResponse	1	0.182	n/a	1	3	ButtonPress	Win	True
43.204	0.33	Win2	1.0	n/a	Yes	2.826	n/a	n/a	GoodResponse	1	n/a	n/a	1	3	Blank	Win	True
43.522	1.45	Win2	1.0	n/a	Yes	2.826	n/a	5.0	GoodResponse	1	0.013	42.535	1	3	Feedback	Win	True
44.976	2.826	Win2	1.0	n/a	Yes	2.826	n/a	n/a	GoodResponse	1	0.0	n/a	1	3	ISIslide	Win	True
47.818	0.25	Win2	1.0	0.0	Yes	3.282	0.018	n/a	GoodResponse	1	n/a	n/a	2	4	Cue	Win	True
48.069	4.0	Win2	1.0	0.0	Yes	3.282	0.001	n/a	GoodResponse	1	n/a	n/a	2	4	Fixation	Win	True
52.064	0.36	Win2	1.0	0.004	Yes	3.282	-0.004	2.0	GoodResponse	1	0.171	51.235	2	4	Target	Win	True
52.235	0.3	Win2	1.0	0.004	Yes	3.282	-0.004	2.0	GoodResponse	1	0.171	n/a	2	4	ButtonPress	Win	True
52.432	0.34	Win2	1.0	n/a	Yes	3.282	n/a	n/a	GoodResponse	1	n/a	n/a	2	4	Blank	Win	True
52.766	1.45	Win2	1.0	n/a	Yes	3.282	n/a	5.0	GoodResponse	1	0.038	51.804	2	4	Feedback	Win	True
54.22	3.282	Win2	1.0	n/a	Yes	3.282	n/a	n/a	GoodResponse	1	0.0	n/a	2	4	ISIslide	Win	True
57.53	0.25	Win2	1.0	0.0	Yes	2.77	0.03	n/a	GoodResponse	1	n/a	n/a	3	5	Cue	Win	True
57.781	4.0	Win2	1.0	0.0	Yes	2.77	0.001	n/a	GoodResponse	1	n/a	n/a	3	5	Fixation	Win	True
61.776	0.35	Win2	1.0	0.004	Yes	2.77	-0.004	2.0	GoodResponse	1	0.182	60.958	3	5	Target	Win	True
61.958	0.3	Win2	1.0	0.004	Yes	2.77	-0.004	2.0	GoodResponse	1	0.182	n/a	3	5	ButtonPress	Win	True
62.127	0.35	Win2	1.0	n/a	Yes	2.77	n/a	n/a	GoodResponse	1	n/a	n/a	3	5	Blank	Win	True
62.478	1.45	Win2	1.0	n/a	Yes	2.77	n/a	5.0	GoodResponse	1	0.032	61.51	3	5	Feedback	Win	True
63.933	2.77	Win2	1.0	n/a	Yes	2.77	n/a	n/a	GoodResponse	1	0.0	n/a	3	5	ISIslide	Win	True
66.724	0.25	Lose2	1.0	0.001	Yes	2.726	0.024	n/a	GoodResponse	0	n/a	n/a	3	6	Cue	AvoidedLoss	True
66.975	3.95	Lose2	1.0	0.0	Yes	2.726	0.001	n/a	GoodResponse	0	n/a	n/a	3	6	Fixation	AvoidedLoss	True
70.92	0.34	Lose2	1.0	0.004	Yes	2.726	-0.004	2.0	GoodResponse	0	0.204	70.124	3	6	Target	AvoidedLoss	True
71.124	0.3	Lose2	1.0	0.004	Yes	2.726	-0.004	2.0	GoodResponse	0	0.204	n/a	3	6	ButtonPress	AvoidedLoss	True
71.271	0.36	Lose2	1.0	n/a	Yes	2.726	n/a	n/a	GoodResponse	0	n/a	n/a	3	6	Blank	AvoidedLoss	True
71.622	1.45	Lose2	1.0	n/a	Yes	2.726	n/a	5.0	GoodResponse	0	0.01	70.632	3	6	Feedback	AvoidedLoss	True
73.077	2.726	Lose2	1.0	n/a	Yes	2.726	n/a	n/a	GoodResponse	0	0.0	n/a	3	6	ISIslide	AvoidedLoss	True
75.818	0.25	Lose2	1.0	0.0	Yes	4.032	0.018	n/a	GoodResponse	0	n/a	n/a	3	7	Cue	AvoidedLoss	True
76.069	4.05	Lose2	1.0	0.0	Yes	4.032	0.001	n/a	GoodResponse	0	n/a	n/a	3	7	Fixation	AvoidedLoss	True
80.114	0.33	Lose2	1.0	0.004	Yes	4.032	-0.004	2.0	GoodResponse	0	0.197	79.311	3	7	Target	AvoidedLoss	True
80.311	0.3	Lose2	1.0	0.004	Yes	4.032	-0.004	2.0	GoodResponse	0	0.197	n/a	3	7	ButtonPress	AvoidedLoss	True
80.449	0.37	Lose2	1.0	n/a	Yes	4.032	n/a	n/a	GoodResponse	0	n/a	n/a	3	7	Blank	AvoidedLoss	True
80.817	1.45	Lose2	1.0	n/a	Yes	4.032	n/a	5.0	GoodResponse	0	0.035	79.852	3	7	Feedback	AvoidedLoss	True
82.271	4.032	Lose2	1.0	n/a	Yes	4.032	n/a	n/a	GoodResponse	0	0.0	n/a	3	7	ISIslide	AvoidedLoss	True
86.316	0.25	Lose2	1.0	0.0	Yes	3.034	0.016	n/a	GoodResponse	0	n/a	n/a	3	8	Cue	AvoidedLoss	True
86.567	3.95	Lose2	1.0	0.0	Yes	3.034	0.001	n/a	GoodResponse	0	n/a	n/a	3	8	Fixation	AvoidedLoss	True
90.512	0.32	Lose2	1.0	0.004	Yes	3.034	-0.004	2.0	GoodResponse	0	0.189	89.701	3	8	Target	AvoidedLoss	True
90.701	0.3	Lose2	1.0	0.004	Yes	3.034	-0.004	2.0	GoodResponse	0	0.189	n/a	3	8	ButtonPress	AvoidedLoss	True
90.847	0.38	Lose2	1.0	n/a	Yes	3.034	n/a	n/a	GoodResponse	0	n/a	n/a	3	8	Blank	AvoidedLoss	True
91.214	1.45	Lose2	1.0	n/a	Yes	3.034	n/a	5.0	GoodResponse	0	0.028	90.242	3	8	Feedback	AvoidedLoss	True
92.669	3.034	Lose2	1.0	n/a	Yes	3.034	n/a	n/a	GoodResponse	0	0.0	n/a	3	8	ISIslide	AvoidedLoss	True
95.728	0.25	Lose2	1.0	0.0	Yes	3.122	0.028	n/a	GoodResponse	0	n/a	n/a	3	9	Cue	AvoidedLoss	True
95.979	3.95	Lose2	1.0	0.0	Yes	3.122	0.001	n/a	GoodResponse	0	n/a	n/a	3	9	Fixation	AvoidedLoss	True
99.924	0.31	Lose2	1.0	0.004	Yes	3.122	-0.004	2.0	GoodResponse	0	0.176	99.1	3	9	Target	AvoidedLoss	True
100.1	0.3	Lose2	1.0	0.004	Yes	3.122	-0.004	2.0	GoodResponse	0	0.176	n/a	3	9	ButtonPress	AvoidedLoss	True
100.241	0.39	Lose2	1.0	n/a	Yes	3.122	n/a	n/a	GoodResponse	0	n/a	n/a	3	9	Blank	AvoidedLoss	True
100.626	1.45	Lose2	1.0	n/a	Yes	3.122	n/a	5.0	GoodResponse	0	0.03	99.656	3	9	Feedback	AvoidedLoss	True
102.08	3.122	Lose2	1.0	n/a	Yes	3.122	n/a	n/a	GoodResponse	0	0.0	n/a	3	9	ISIslide	AvoidedLoss	True
105.223	0.25	Control	1.0	0.0	Yes	3.277	0.023	n/a	GoodResponse	0	n/a	n/a	3	10	Cue	Neutral	True
105.474	4.0	Control	1.0	0.0	Yes	3.277	0.001	n/a	GoodResponse	0	n/a	n/a	3	10	Fixation	Neutral	True
109.469	0.3	Control	1.0	0.004	Yes	3.277	-0.004	2.0	GoodResponse	0	0.264	108.733	3	10	Target	Neutral	True
109.733	0.3	Control	1.0	0.004	Yes	3.277	-0.004	2.0	GoodResponse	0	0.264	n/a	3	10	ButtonPress	Neutral	True
109.77	0.4	Control	1.0	n/a	Yes	3.277	n/a	n/a	GoodResponse	0	n/a	n/a	3	10	Blank	Neutral	True
110.171	1.45	Control	1.0	n/a	Yes	3.277	n/a	5.0	GoodResponse	0	0.046	109.217	3	10	Feedback	Neutral	True
111.625	3.277	Control	1.0	n/a	Yes	3.277	n/a	n/a	GoodResponse	0	0.0	n/a	3	10	ISIslide	Neutral	True
114.918	0.25	Lose2	1.0	0.001	Yes	2.732	0.018	n/a	GoodResponse	0	n/a	n/a	3	11	Cue	AvoidedLoss	True
115.169	4.05	Lose2	1.0	0.0	Yes	2.732	0.001	n/a	GoodResponse	0	n/a	n/a	3	11	Fixation	AvoidedLoss	True
119.215	0.29	Lose2	1.0	0.003	Yes	2.732	-0.003	2.0	GoodResponse	0	0.191	118.406	3	11	Target	AvoidedLoss	True
119.406	0.3	Lose2	1.0	0.003	Yes	2.732	-0.003	2.0	GoodResponse	0	0.191	n/a	3	11	ButtonPress	AvoidedLoss	True
119.515	0.41	Lose2	1.0	n/a	Yes	2.732	n/a	n/a	GoodResponse	0	n/a	n/a	3	11	Blank	AvoidedLoss	True
119.917	1.45	Lose2	1.0	n/a	Yes	2.732	n/a	5.0	GoodResponse	0	0.008	118.925	3	11	Feedback	AvoidedLoss	True
121.371	2.732	Lose2	1.0	n/a	Yes	2.732	n/a	n/a	GoodResponse	0	0.0	n/a	3	11	ISIslide	AvoidedLoss	True
124.129	0.25	Control	1.0	0.0	Yes	2.971	0.029	n/a	GoodResponse	0	n/a	n/a	3	12	Cue	Neutral	True
124.38	3.9	Control	1.0	0.0	Yes	2.971	0.001	n/a	GoodResponse	0	n/a	n/a	3	12	Fixation	Neutral	True
128.275	0.28	Control	1.0	0.004	Yes	2.971	-0.004	2.0	GoodResponse	0	0.182	127.457	3	12	Target	Neutral	True
128.457	0.3	Control	1.0	0.004	Yes	2.971	-0.004	2.0	GoodResponse	0	0.182	n/a	3	12	ButtonPress	Neutral	True
128.559	0.42	Control	1.0	n/a	Yes	2.971	n/a	n/a	GoodResponse	0	n/a	n/a	3	12	Blank	Neutral	True
128.977	1.45	Control	1.0	n/a	Yes	2.971	n/a	5.0	GoodResponse	0	0.021	127.998	3	12	Feedback	Neutral	True
130.431	2.971	Control	1.0	n/a	Yes	2.971	n/a	n/a	GoodResponse	0	0.0	n/a	3	12	ISIslide	Neutral	True
133.424	0.25	Control	0.9286	0.0	No	2.776	0.024	n/a	NoResponse	0	n/a	n/a	3	13	Cue	Neutral	True
133.674	4.0	Control	0.9286	0.0	No	2.776	0.0	2.0	NoResponse	0	3.648	136.322	3	13	Fixation	Neutral	True
137.322	0.3	Control	0.9286	0.0	No	2.776	0.0	2.0	NoResponse	0	3.648	n/a	3	13	ButtonPress	Neutral	True
137.67	0.27	Control	0.9286	0.004	No	2.776	-0.004	n/a	NoResponse	0	n/a	n/a	3	13	Target	Neutral	True
137.954	0.43	Control	0.9286	n/a	No	2.776	n/a	n/a	NoResponse	0	n/a	n/a	3	13	Blank	Neutral	True
138.372	1.45	Control	0.9286	n/a	No	2.776	n/a	5.0	NoResponse	0	0.04	137.412	3	13	Feedback	Neutral	True
139.826	2.776	Control	0.9286	n/a	No	2.776	n/a	n/a	NoResponse	0	0.0	n/a	3	13	ISIslide	Neutral	True
142.618	0.25	Win2	0.9333	0.0	Yes	2.682	0.018	n/a	GoodResponse	1	n/a	n/a	4	14	Cue	Win	True
142.869	4.1	Win2	0.9333	0.0	Yes	2.682	0.001	n/a	GoodResponse	1	n/a	n/a	4	14	Fixation	Win	True
146.964	0.26	Win2	0.9333	0.004	Yes	2.682	-0.004	2.0	GoodResponse	1	0.198	146.162	4	14	Target	Win	True
147.162	0.3	Win2	0.9333	0.004	Yes	2.682	-0.004	2.0	GoodResponse	1	0.198	n/a	4	14	ButtonPress	Win	True
147.232	0.44	Win2	0.9333	n/a	Yes	2.682	n/a	n/a	GoodResponse	1	n/a	n/a	4	14	Blank	Win	True
147.666	1.45	Win2	0.9333	n/a	Yes	2.682	n/a	5.0	GoodResponse	1	0.014	146.68	4	14	Feedback	Win	True
149.121	2.682	Win2	0.9333	n/a	Yes	2.682	n/a	n/a	GoodResponse	1	0.0	n/a	4	14	ISIslide	Win	True
151.829	0.25	Control	0.875	0.0	No	2.971	0.029	n/a	LatePress	0	n/a	n/a	4	15	Cue	Neutral	True
152.079	4.0	Control	0.875	0.0	No	2.971	0.0	n/a	LatePress	0	n/a	n/a	4	15	Fixation	Neutral	True
156.075	0.25	Control	0.875	0.004	No	2.971	-0.004	2.0	LatePress	0	0.251	155.326	4	15	Target	Neutral	True
156.325	0.45	Control	0.875	n/a	No	2.971	n/a	n/a	LatePress	0	n/a	n/a	4	15	Blank	Neutral	True
156.326	0.3	Control	0.875	0.004	No	2.971	-0.004	2.0	LatePress	0	0.251	n/a	4	15	ButtonPress	Neutral	True
156.777	1.45	Control	0.875	n/a	No	2.971	n/a	5.0	LatePress	0	0.025	155.802	4	15	Feedback	Neutral	True
158.231	2.971	Control	0.875	n/a	No	2.971	n/a	n/a	LatePress	0	0.0	n/a	4	15	ISIslide	Neutral	True
161.223	0.25	Win2	0.8234999999999999	0.0	No	2.877	0.023	n/a	NoResponse	0	n/a	n/a	4	16	Cue	MissedWin	True
161.474	4.0	Win2	0.8234999999999999	0.0	No	2.877	0.001	n/a	NoResponse	0	n/a	n/a	4	16	Fixation	MissedWin	True
165.469	0.24	Win2	0.8234999999999999	0.004	No	2.877	-0.004	2.0	NoResponse	0	0.26	164.729	4	16	Target	MissedWin	True
165.72	0.46	Win2	0.8234999999999999	n/a	No	2.877	n/a	n/a	NoResponse	0	n/a	n/a	4	16	Blank	MissedWin	True
165.729	0.3	Win2	0.8234999999999999	0.004	No	2.877	-0.004	2.0	NoResponse	0	0.26	n/a	4	16	ButtonPress	MissedWin	True
166.171	1.45	Win2	0.8234999999999999	n/a	No	2.877	n/a	5.0	NoResponse	0	0.045	165.216	4	16	Feedback	MissedWin	True
167.626	2.877	Win2	0.8234999999999999	n/a	No	2.877	n/a	n/a	NoResponse	0	0.0	n/a	4	16	ISIslide	MissedWin	True
170.518	0.25	Lose2	0.8332999999999999	0.0	Yes	2.732	0.018	n/a	GoodResponse	0	n/a	n/a	4	17	Cue	AvoidedLoss	True
170.769	3.95	Lose2	0.8332999999999999	0.0	Yes	2.732	0.001	n/a	GoodResponse	0	n/a	n/a	4	17	Fixation	AvoidedLoss	True
174.714	0.23	Lose2	0.8332999999999999	0.004	Yes	2.732	-0.004	2.0	GoodResponse	0	0.186	173.9	4	17	Target	AvoidedLoss	True
174.9	0.3	Lose2	0.8332999999999999	0.004	Yes	2.732	-0.004	2.0	GoodResponse	0	0.186	n/a	4	17	ButtonPress	AvoidedLoss	True
174.948	0.47	Lose2	0.8332999999999999	n/a	Yes	2.732	n/a	n/a	GoodResponse	0	n/a	n/a	4	17	Blank	AvoidedLoss	True
175.416	1.45	Lose2	0.8332999999999999	n/a	Yes	2.732	n/a	5.0	GoodResponse	0	0.019	174.435	4	17	Feedback	AvoidedLoss	True
176.87	2.732	Lose2	0.8332999999999999	n/a	Yes	2.732	n/a	n/a	GoodResponse	0	0.0	n/a	4	17	ISIslide	AvoidedLoss	True
179.628	0.25	Lose2	0.8421	0.0	Yes	2.722	0.028	n/a	GoodResponse	0	n/a	n/a	4	18	Cue	AvoidedLoss	True
179.879	4.05	Lose2	0.8421	0.0	Yes	2.722	0.001	n/a	GoodResponse	0	n/a	n/a	4	18	Fixation	AvoidedLoss	True
183.925	0.22	Lose2	0.8421	0.003	Yes	2.722	-0.003	2.0	GoodResponse	0	0.172	183.097	4	18	Target	AvoidedLoss	True
184.097	0.3	Lose2	0.8421	0.003	Yes	2.722	-0.003	2.0	GoodResponse	0	0.172	n/a	4	18	ButtonPress	AvoidedLoss	True
184.159	0.48	Lose2	0.8421	n/a	Yes	2.722	n/a	n/a	GoodResponse	0	n/a	n/a	4	18	Blank	AvoidedLoss	True
184.627	1.45	Lose2	0.8421	n/a	Yes	2.722	n/a	5.0	GoodResponse	0	0.028	183.655	4	18	Feedback	AvoidedLoss	True
186.081	2.722	Lose2	0.8421	n/a	Yes	2.722	n/a	n/a	GoodResponse	0	0.0	n/a	4	18	ISIslide	AvoidedLoss	True
188.822	0.25	Control	0.85	0.001	Yes	2.928	0.022	n/a	GoodResponse	0	n/a	n/a	4	19	Cue	Neutral	True
189.073	3.95	Control	0.85	0.0	Yes	2.928	0.001	n/a	GoodResponse	0	n/a	n/a	4	19	Fixation	Neutral	True
193.018	0.21	Control	0.85	0.004	Yes	2.928	-0.004	2.0	GoodResponse	0	0.198	192.216	4	19	Target	Neutral	True
193.216	0.3	Control	0.85	0.004	Yes	2.928	-0.004	2.0	GoodResponse	0	0.198	n/a	4	19	ButtonPress	Neutral	True
193.236	0.49	Control	0.85	n/a	Yes	2.928	n/a	n/a	GoodResponse	0	n/a	n/a	4	19	Blank	Neutral	True
193.72	1.45	Control	0.85	n/a	Yes	2.928	n/a	5.0	GoodResponse	0	0.008	192.728	4	19	Feedback	Neutral	True
195.175	2.928	Control	0.85	n/a	Yes	2.928	n/a	n/a	GoodResponse	0	0.0	n/a	4	19	ISIslide	Neutral	True
198.117	0.25	Control	0.8571	0.0	Yes	2.633	0.017	n/a	GoodResponse	0	n/a	n/a	4	20	Cue	Neutral	True
198.368	4.05	Control	0.8571	0.0	Yes	2.633	0.001	n/a	GoodResponse	0	n/a	n/a	4	20	Fixation	Neutral	True
202.413	0.2	Control	0.8571	0.004	Yes	2.633	-0.004	2.0	GoodResponse	0	0.19	201.603	4	20	Target	Neutral	True
202.603	0.3	Control	0.8571	0.004	Yes	2.633	-0.004	2.0	GoodResponse	0	0.19	n/a	4	20	ButtonPress	Neutral	True
202.614	0.5	Control	0.8571	n/a	Yes	2.633	n/a	n/a	GoodResponse	0	n/a	n/a	4	20	Blank	Neutral	True
203.115	1.45	Control	0.8571	n/a	Yes	2.633	n/a	5.0	GoodResponse	0	0.028	202.143	4	20	Feedback	Neutral	True
204.569	2.633	Control	0.8571	n/a	Yes	2.633	n/a	n/a	GoodResponse	0	0.0	n/a	4	20	ISIslide	Neutral	True
207.227	0.25	Control	0.8181999999999999	0.0	No	2.773	0.027	n/a	LatePress	0	n/a	n/a	4	21	Cue	Neutral	True
207.478	4.1	Control	0.8181999999999999	0.0	No	2.773	0.001	n/a	LatePress	0	n/a	n/a	4	21	Fixation	Neutral	True
211.574	0.19	Control	0.8181999999999999	0.003	No	2.773	-0.003	2.0	LatePress	0	0.191	210.765	4	21	Target	Neutral	True
211.765	0.3	Control	0.8181999999999999	0.003	No	2.773	-0.003	2.0	LatePress	0	0.191	n/a	4	21	ButtonPress	Neutral	True
211.774	0.51	Control	0.8181999999999999	n/a	No	2.773	n/a	n/a	LatePress	0	n/a	n/a	4	21	Blank	Neutral	True
212.276	1.45	Control	0.8181999999999999	n/a	No	2.773	n/a	5.0	LatePress	0	0.037	211.313	4	21	Feedback	Neutral	True
213.73	2.773	Control	0.8181999999999999	n/a	No	2.773	n/a	n/a	LatePress	0	0.0	n/a	4	21	ISIslide	Neutral	True
216.522	0.25	Control	0.8261	0.0	Yes	2.778	0.022	n/a	GoodResponse	0	n/a	n/a	4	22	Cue	Neutral	True
216.773	4.0	Control	0.8261	0.0	Yes	2.778	0.001	n/a	GoodResponse	0	n/a	n/a	4	22	Fixation	Neutral	True
220.768	0.18	Control	0.8261	0.004	Yes	2.778	-0.004	2.0	GoodResponse	0	0.17	219.938	4	22	Target	Neutral	True
220.938	0.3	Control	0.8261	0.004	Yes	2.778	-0.004	2.0	GoodResponse	0	0.17	n/a	4	22	ButtonPress	Neutral	True
220.952	0.52	Control	0.8261	n/a	Yes	2.778	n/a	n/a	GoodResponse	0	n/a	n/a	4	22	Blank	Neutral	True
221.47	1.45	Control	0.8261	n/a	Yes	2.778	n/a	5.0	GoodResponse	0	0.014	220.484	4	22	Feedback	Neutral	True
222.924	2.778	Control	0.8261	n/a	Yes	2.778	n/a	n/a	GoodResponse	0	0.0	n/a	4	22	ISIslide	Neutral	True
225.716	0.25	Control	0.7917000000000001	0.0	No	2.784	0.016	n/a	NoResponse	0	n/a	n/a	4	23	Cue	Neutral	True
225.967	3.9	Control	0.7917000000000001	0.0	No	2.784	0.001	n/a	NoResponse	0	n/a	n/a	4	23	Fixation	Neutral	True
229.862	0.17	Control	0.7917000000000001	0.004	No	2.784	-0.004	2.0	NoResponse	0	0.193	229.055	4	23	Target	Neutral	True
230.046	0.53	Control	0.7917000000000001	n/a	No	2.784	n/a	n/a	NoResponse	0	n/a	n/a	4	23	Blank	Neutral	True
230.055	0.3	Control	0.7917000000000001	0.004	No	2.784	-0.004	2.0	NoResponse	0	0.193	n/a	4	23	ButtonPress	Neutral	True
230.564	1.45	Control	0.7917000000000001	n/a	No	2.784	n/a	5.0	NoResponse	0	0.042	229.606	4	23	Feedback	Neutral	True
232.018	2.784	Control	0.7917000000000001	n/a	No	2.784	n/a	n/a	NoResponse	0	0.0	n/a	4	23	ISIslide	Neutral	True
234.827	0.25	Win2	0.76	0.0	No	3.123	0.027	n/a	NoResponse	0	n/a	n/a	4	24	Cue	MissedWin	True
235.077	3.95	Win2	0.76	0.0	No	3.123	0.0	n/a	NoResponse	0	n/a	n/a	4	24	Fixation	MissedWin	True
239.039	0.16	Win2	0.76	0.0	No	3.123	0.012	2.0	NoResponse	0	0.186	238.225	4	24	Target	MissedWin	True
239.19	0.54	Win2	0.76	n/a	No	3.123	n/a	n/a	NoResponse	0	n/a	n/a	4	24	Blank	MissedWin	True
239.225	0.3	Win2	0.76	0.0	No	3.123	0.012	2.0	NoResponse	0	0.186	n/a	4	24	ButtonPress	MissedWin	True
239.724	1.45	Win2	0.76	n/a	No	3.123	n/a	5.0	NoResponse	0	0.009	238.733	4	24	Feedback	MissedWin	True
241.179	3.123	Win2	0.76	n/a	No	3.123	n/a	n/a	NoResponse	0	0.0	n/a	4	24	ISIslide	MissedWin	True
244.322	0.25	Win2	0.7308	0.0	No	3.078	0.022	n/a	NoResponse	0	n/a	n/a	4	25	Cue	MissedWin	True
244.572	4.0	Win2	0.7308	0.0	No	3.078	0.0	n/a	NoResponse	0	n/a	n/a	4	25	Fixation	MissedWin	True
248.568	0.15	Win2	0.7308	0.004	No	3.078	-0.004	2.0	NoResponse	0	0.166	247.734	4	25	Target	MissedWin	True
248.718	0.55	Win2	0.7308	n/a	No	3.078	n/a	n/a	NoResponse	0	n/a	n/a	4	25	Blank	MissedWin	True
248.734	0.3	Win2	0.7308	0.004	No	3.078	-0.004	2.0	NoResponse	0	0.166	n/a	4	25	ButtonPress	MissedWin	True
249.27	1.45	Win2	0.7308	n/a	No	3.078	n/a	5.0	NoResponse	0	0.018	248.288	4	25	Feedback	MissedWin	True
250.724	3.078	Win2	0.7308	n/a	No	3.078	n/a	n/a	NoResponse	0	0.0	n/a	4	25	ISIslide	MissedWin	True
253.817	0.25	Win2	0.7037	0.0	No	2.933	0.017	n/a	NoResponse	0	n/a	n/a	4	26	Cue	MissedWin	True
254.067	3.95	Win2	0.7037	0.0	No	2.933	0.0	n/a	NoResponse	0	n/a	n/a	4	26	Fixation	MissedWin	True
258.012	0.15	Win2	0.7037	0.005	No	2.933	-0.005	2.0	NoResponse	0	0.178	257.19	4	26	Target	MissedWin	True
258.163	0.55	Win2	0.7037	n/a	No	2.933	n/a	n/a	NoResponse	0	n/a	n/a	4	26	Blank	MissedWin	True
258.19	0.3	Win2	0.7037	0.005	No	2.933	-0.005	2.0	NoResponse	0	0.178	n/a	4	26	ButtonPress	MissedWin	True
258.715	1.45	Win2	0.7037	n/a	No	2.933	n/a	5.0	NoResponse	0	0.036	257.751	4	26	Feedback	MissedWin	True
260.169	2.933	Win2	0.7037	n/a	No	2.933	n/a	n/a	NoResponse	0	0.0	n/a	4	26	ISIslide	MissedWin	True
263.128	0.25	Lose2	0.6786	0.0	No	2.822	0.028	n/a	NoResponse	-1	n/a	n/a	3	27	Cue	Loss	True
263.378	4.05	Lose2	0.6786	0.001	No	2.822	0.0	n/a	NoResponse	-1	n/a	n/a	3	27	Fixation	Loss	True
267.424	0.15	Lose2	0.6786	0.004	No	2.822	-0.004	2.0	NoResponse	-1	0.171	266.595	3	27	Target	Loss	True
267.574	0.55	Lose2	0.6786	n/a	No	2.822	n/a	n/a	NoResponse	-1	n/a	n/a	3	27	Blank	Loss	True
267.595	0.3	Lose2	0.6786	0.004	No	2.822	-0.004	2.0	NoResponse	-1	0.171	n/a	3	27	ButtonPress	Loss	True
268.126	1.45	Lose2	0.6786	n/a	No	2.822	n/a	5.0	NoResponse	-1	0.04	267.166	3	27	Feedback	Loss	True
269.58	2.822	Lose2	0.6786	n/a	No	2.822	n/a	n/a	NoResponse	-1	0.0	n/a	3	27	ISIslide	Loss	True
272.422	0.25	Control	0.6552	0.0	No	2.828	0.022	n/a	NoResponse	0	n/a	n/a	3	28	Cue	Neutral	True
272.673	4.05	Control	0.6552	0.0	No	2.828	0.001	n/a	NoResponse	0	n/a	n/a	3	28	Fixation	Neutral	True
276.718	0.15	Control	0.6552	0.004	No	2.828	-0.004	2.0	NoResponse	0	0.172	275.89	3	28	Target	Neutral	True
276.869	0.55	Control	0.6552	n/a	No	2.828	n/a	n/a	NoResponse	0	n/a	n/a	3	28	Blank	Neutral	True
276.89	0.3	Control	0.6552	0.004	No	2.828	-0.004	2.0	NoResponse	0	0.172	n/a	3	28	ButtonPress	Neutral	True
277.42	1.45	Control	0.6552	n/a	No	2.828	n/a	5.0	NoResponse	0	0.015	276.435	3	28	Feedback	Neutral	True
278.875	2.828	Control	0.6552	n/a	No	2.828	n/a	n/a	NoResponse	0	0.0	n/a	3	28	ISIslide	Neutral	True
281.717	0.25	Lose2	0.6333	0.0	No	2.833	0.017	n/a	NoResponse	-1	n/a	n/a	2	29	Cue	Loss	True
281.967	3.95	Lose2	0.6333	0.0	No	2.833	0.0	n/a	NoResponse	-1	n/a	n/a	2	29	Fixation	Loss	True
285.929	0.15	Lose2	0.6333	0.0	No	2.833	0.012	2.0	NoResponse	-1	0.174	285.103	2	29	Target	Loss	True
286.063	0.55	Lose2	0.6333	n/a	No	2.833	n/a	n/a	NoResponse	-1	n/a	n/a	2	29	Blank	Loss	True
286.103	0.3	Lose2	0.6333	0.0	No	2.833	0.012	2.0	NoResponse	-1	0.174	n/a	2	29	ButtonPress	Loss	True
286.615	1.45	Lose2	0.6333	n/a	No	2.833	n/a	5.0	NoResponse	-1	0.038	285.653	2	29	Feedback	Loss	True
288.069	2.833	Lose2	0.6333	n/a	No	2.833	n/a	n/a	NoResponse	-1	0.0	n/a	2	29	ISIslide	Loss	True
290.927	0.25	Win2	0.6129	0.0	No	2.773	0.027	n/a	LatePress	0	n/a	n/a	2	30	Cue	MissedWin	True
291.178	3.9	Win2	0.6129	0.0	No	2.773	0.001	n/a	LatePress	0	n/a	n/a	2	30	Fixation	MissedWin	True
295.073	0.16	Win2	0.6129	0.004	No	2.773	-0.004	2.0	LatePress	0	0.162	294.235	2	30	Target	MissedWin	True
295.235	0.3	Win2	0.6129	0.004	No	2.773	-0.004	2.0	LatePress	0	0.162	n/a	2	30	ButtonPress	MissedWin	True
295.24	0.54	Win2	0.6129	n/a	No	2.773	n/a	n/a	LatePress	0	n/a	n/a	2	30	Blank	MissedWin	True
295.775	1.45	Win2	0.6129	n/a	No	2.773	n/a	5.0	LatePress	0	0.049	294.824	2	30	Feedback	MissedWin	True
297.23	2.773	Win2	0.6129	n/a	No	2.773	n/a	n/a	LatePress	0	0.0	n/a	2	30	ISIslide	MissedWin	True
300.021	0.25	Lose2	0.5938	0.0	No	2.829	0.021	n/a	NoResponse	-1	n/a	n/a	1	31	Cue	Loss	True
300.272	4.05	Lose2	0.5938	0.0	No	2.829	0.001	2.0	NoResponse	-1	3.756	303.028	1	31	Fixation	Loss	True
304.028	0.3	Lose2	0.5938	0.0	No	2.829	0.001	2.0	NoResponse	-1	3.756	n/a	1	31	ButtonPress	Loss	True
304.317	0.17	Lose2	0.5938	0.004	No	2.829	-0.004	n/a	NoResponse	-1	n/a	n/a	1	31	Target	Loss	True
304.501	0.53	Lose2	0.5938	n/a	No	2.829	n/a	n/a	NoResponse	-1	n/a	n/a	1	31	Blank	Loss	True
305.019	1.45	Lose2	0.5938	n/a	No	2.829	n/a	5.0	NoResponse	-1	0.025	304.044	1	31	Feedback	Loss	True
306.474	2.829	Lose2	0.5938	n/a	No	2.829	n/a	n/a	NoResponse	-1	0.0	n/a	1	31	ISIslide	Loss	True
309.316	0.25	Lose2	0.5758	0.0	No	2.634	0.016	n/a	NoResponse	-1	n/a	n/a	0	32	Cue	Loss	True
309.566	4.15	Lose2	0.5758	0.0	No	2.634	0.0	n/a	NoResponse	-1	n/a	n/a	0	32	Fixation	Loss	True
313.712	0.18	Lose2	0.5758	0.004	No	2.634	-0.004	2.0	NoResponse	-1	0.192	312.904	0	32	Target	Loss	True
313.896	0.52	Lose2	0.5758	n/a	No	2.634	n/a	n/a	NoResponse	-1	n/a	n/a	0	32	Blank	Loss	True
313.904	0.3	Lose2	0.5758	0.004	No	2.634	-0.004	2.0	NoResponse	-1	0.192	n/a	0	32	ButtonPress	Loss	True
314.414	1.45	Lose2	0.5758	n/a	No	2.634	n/a	5.0	NoResponse	-1	0.044	313.458	0	32	Feedback	Loss	True
315.869	2.634	Lose2	0.5758	n/a	No	2.634	n/a	n/a	NoResponse	-1	0.0	n/a	0	32	ISIslide	Loss	True
318.526	0.25	Win2	0.5588000000000001	0.001	No	2.674	0.026	n/a	LatePress	0	n/a	n/a	0	33	Cue	MissedWin	True
318.777	4.0	Win2	0.5588000000000001	0.0	No	2.674	0.001	n/a	LatePress	0	n/a	n/a	0	33	Fixation	MissedWin	True
322.772	0.19	Win2	0.5588000000000001	0.004	No	2.674	-0.004	2.0	LatePress	0	0.194	321.966	0	33	Target	MissedWin	True
322.966	0.3	Win2	0.5588000000000001	0.004	No	2.674	-0.004	2.0	LatePress	0	0.194	n/a	0	33	ButtonPress	MissedWin	True
322.973	0.51	Win2	0.5588000000000001	n/a	No	2.674	n/a	n/a	LatePress	0	n/a	n/a	0	33	Blank	MissedWin	True
323.475	1.45	Win2	0.5588000000000001	n/a	No	2.674	n/a	5.0	LatePress	0	0.007	322.482	0	33	Feedback	MissedWin	True
324.929	2.674	Win2	0.5588000000000001	n/a	No	2.674	n/a	2.0	LatePress	0	0.283	n/a	0	33	ISIslide	MissedWin	True
327.604	0.25	Lose2	0.5714	0.0	Yes	2.646	0.004	n/a	GoodResponse	0	n/a	n/a	0	34	Cue	AvoidedLoss	True
327.854	4.05	Lose2	0.5714	0.0	Yes	2.646	0.0	n/a	GoodResponse	0	n/a	n/a	0	34	Fixation	AvoidedLoss	True
331.9	0.2	Lose2	0.5714	0.004	Yes	2.646	-0.004	2.0	GoodResponse	0	0.17	331.07	0	34	Target	AvoidedLoss	True
332.07	0.3	Lose2	0.5714	0.004	Yes	2.646	-0.004	2.0	GoodResponse	0	0.17	n/a	0	34	ButtonPress	AvoidedLoss	True
332.1	0.5	Lose2	0.5714	n/a	Yes	2.646	n/a	n/a	GoodResponse	0	n/a	n/a	0	34	Blank	AvoidedLoss	True
332.602	1.45	Lose2	0.5714	n/a	Yes	2.646	n/a	5.0	GoodResponse	0	0.002	331.604	0	34	Feedback	AvoidedLoss	True
334.056	2.646	Lose2	0.5714	n/a	Yes	2.646	n/a	n/a	GoodResponse	0	0.0	n/a	0	34	ISIslide	AvoidedLoss	True
336.714	0.25	Lose2	0.5832999999999999	0.0	Yes	2.686	0.014	n/a	GoodResponse	0	n/a	n/a	0	35	Cue	AvoidedLoss	True
336.965	4.0	Lose2	0.5832999999999999	0.0	Yes	2.686	0.001	n/a	GoodResponse	0	n/a	n/a	0	35	Fixation	AvoidedLoss	True
340.96	0.21	Lose2	0.5832999999999999	0.004	Yes	2.686	-0.004	2.0	GoodResponse	0	0.162	340.122	0	35	Target	AvoidedLoss	True
341.122	0.3	Lose2	0.5832999999999999	0.004	Yes	2.686	-0.004	2.0	GoodResponse	0	0.162	n/a	0	35	ButtonPress	AvoidedLoss	True
341.177	0.49	Lose2	0.5832999999999999	n/a	Yes	2.686	n/a	n/a	GoodResponse	0	n/a	n/a	0	35	Blank	AvoidedLoss	True
341.662	1.45	Lose2	0.5832999999999999	n/a	Yes	2.686	n/a	5.0	GoodResponse	0	0.015	340.677	0	35	Feedback	AvoidedLoss	True
343.117	2.686	Lose2	0.5832999999999999	n/a	Yes	2.686	n/a	n/a	GoodResponse	0	0.0	n/a	0	35	ISIslide	AvoidedLoss	True
345.825	0.25	Control	0.5946	0.0	Yes	2.675	0.025	n/a	GoodResponse	0	n/a	n/a	0	36	Cue	Neutral	True
346.075	4.0	Control	0.5946	0.001	Yes	2.675	0.0	n/a	GoodResponse	0	n/a	n/a	0	36	Fixation	Neutral	True
350.071	0.22	Control	0.5946	0.004	Yes	2.675	-0.004	2.0	GoodResponse	0	0.187	349.258	0	36	Target	Neutral	True
350.258	0.3	Control	0.5946	0.004	Yes	2.675	-0.004	2.0	GoodResponse	0	0.187	n/a	0	36	ButtonPress	Neutral	True
350.305	0.48	Control	0.5946	n/a	Yes	2.675	n/a	n/a	GoodResponse	0	n/a	n/a	0	36	Blank	Neutral	True
350.773	1.45	Control	0.5946	n/a	Yes	2.675	n/a	5.0	GoodResponse	0	0.026	349.799	0	36	Feedback	Neutral	True
352.227	2.675	Control	0.5946	n/a	Yes	2.675	n/a	n/a	GoodResponse	0	0.0	n/a	0	36	ISIslide	Neutral	True
354.918	0.25	Win2	0.5789	0.001	No	2.882	0.018	n/a	LatePress	0	n/a	n/a	0	37	Cue	MissedWin	True
355.169	4.0	Win2	0.5789	0.0	No	2.882	0.001	n/a	LatePress	0	n/a	n/a	0	37	Fixation	MissedWin	True
359.165	0.23	Win2	0.5789	0.003	No	2.882	-0.003	2.0	LatePress	0	0.231	358.396	0	37	Target	MissedWin	True
359.396	0.3	Win2	0.5789	0.003	No	2.882	-0.003	2.0	LatePress	0	0.231	n/a	0	37	ButtonPress	MissedWin	True
359.399	0.47	Win2	0.5789	n/a	No	2.882	n/a	n/a	LatePress	0	n/a	n/a	0	37	Blank	MissedWin	True
359.867	1.45	Win2	0.5789	n/a	No	2.882	n/a	5.0	LatePress	0	0.005	358.872	0	37	Feedback	MissedWin	True
361.321	2.882	Win2	0.5789	n/a	No	2.882	n/a	n/a	LatePress	0	0.0	n/a	0	37	ISIslide	MissedWin	True
364.23	0.25	Lose2	0.5897	0.0	Yes	2.82	0.03	n/a	GoodResponse	0	n/a	n/a	0	38	Cue	AvoidedLoss	True
364.48	3.95	Lose2	0.5897	0.0	Yes	2.82	0.0	n/a	GoodResponse	0	n/a	n/a	0	38	Fixation	AvoidedLoss	True
368.426	0.24	Lose2	0.5897	0.004	Yes	2.82	-0.004	2.0	GoodResponse	0	0.177	367.603	0	38	Target	AvoidedLoss	True
368.603	0.3	Lose2	0.5897	0.004	Yes	2.82	-0.004	2.0	GoodResponse	0	0.177	n/a	0	38	ButtonPress	AvoidedLoss	True
368.676	0.46	Lose2	0.5897	n/a	Yes	2.82	n/a	n/a	GoodResponse	0	n/a	n/a	0	38	Blank	AvoidedLoss	True
369.128	1.45	Lose2	0.5897	n/a	Yes	2.82	n/a	5.0	GoodResponse	0	0.012	368.14	0	38	Feedback	AvoidedLoss	True
370.582	2.82	Lose2	0.5897	n/a	Yes	2.82	n/a	n/a	GoodResponse	0	0.0	n/a	0	38	ISIslide	AvoidedLoss	True
373.424	0.25	Win2	0.6	0.0	Yes	2.976	0.024	n/a	GoodResponse	1	n/a	n/a	1	39	Cue	Win	True
373.675	4.1	Win2	0.6	0.0	Yes	2.976	0.001	n/a	GoodResponse	1	n/a	n/a	1	39	Fixation	Win	True
377.77	0.25	Win2	0.6	0.004	Yes	2.976	-0.004	2.0	GoodResponse	1	0.172	376.942	1	39	Target	Win	True
377.942	0.3	Win2	0.6	0.004	Yes	2.976	-0.004	2.0	GoodResponse	1	0.172	n/a	1	39	ButtonPress	Win	True
378.021	0.45	Win2	0.6	n/a	Yes	2.976	n/a	n/a	GoodResponse	1	n/a	n/a	1	39	Blank	Win	True
378.472	1.45	Win2	0.6	n/a	Yes	2.976	n/a	5.0	GoodResponse	1	0.034	377.506	1	39	Feedback	Win	True
379.927	2.976	Win2	0.6	n/a	Yes	2.976	n/a	n/a	GoodResponse	1	0.0	n/a	1	39	ISIslide	Win	True
382.919	0.25	Win2	0.6098	0.0	Yes	2.731	0.019	n/a	GoodResponse	1	n/a	n/a	2	40	Cue	Win	True
383.17	3.95	Win2	0.6098	0.0	Yes	2.731	0.001	n/a	GoodResponse	1	n/a	n/a	2	40	Fixation	Win	True
387.115	0.26	Win2	0.6098	0.004	Yes	2.731	-0.004	2.0	GoodResponse	1	0.17	386.285	2	40	Target	Win	True
387.285	0.3	Win2	0.6098	0.004	Yes	2.731	-0.004	2.0	GoodResponse	1	0.17	n/a	2	40	ButtonPress	Win	True
387.382	0.44	Win2	0.6098	n/a	Yes	2.731	n/a	n/a	GoodResponse	1	n/a	n/a	2	40	Blank	Win	True
387.817	1.45	Win2	0.6098	n/a	Yes	2.731	n/a	5.0	GoodResponse	1	0.008	386.825	2	40	Feedback	Win	True
389.271	2.731	Win2	0.6098	n/a	Yes	2.731	n/a	n/a	GoodResponse	1	0.0	n/a	2	40	ISIslide	Win	True
392.029	0.25	Win2	0.619	0.0	Yes	2.771	0.029	n/a	GoodResponse	1	n/a	n/a	3	41	Cue	Win	True
392.28	3.9	Win2	0.619	0.0	Yes	2.771	0.001	n/a	GoodResponse	1	n/a	n/a	3	41	Fixation	Win	True
396.175	0.27	Win2	0.619	0.004	Yes	2.771	-0.004	2.0	GoodResponse	1	0.177	395.352	3	41	Target	Win	True
396.352	0.3	Win2	0.619	0.004	Yes	2.771	-0.004	2.0	GoodResponse	1	0.177	n/a	3	41	ButtonPress	Win	True
396.459	0.43	Win2	0.619	n/a	Yes	2.771	n/a	n/a	GoodResponse	1	n/a	n/a	3	41	Blank	Win	True
396.877	1.45	Win2	0.619	n/a	Yes	2.771	n/a	5.0	GoodResponse	1	0.018	395.895	3	41	Feedback	Win	True
398.331	2.771	Win2	0.619	n/a	Yes	2.771	n/a	n/a	GoodResponse	1	0.0	n/a	3	41	ISIslide	Win	True
401.123	0.25	Control	0.6279	0.0	Yes	2.927	0.023	n/a	GoodResponse	0	n/a	n/a	3	42	Cue	Neutral	True
401.374	3.85	Control	0.6279	0.0	Yes	2.927	0.001	n/a	GoodResponse	0	n/a	n/a	3	42	Fixation	Neutral	True
405.219	0.28	Control	0.6279	0.004	Yes	2.927	-0.004	2.0	GoodResponse	0	0.181	404.4	3	42	Target	Neutral	True
405.4	0.3	Control	0.6279	0.004	Yes	2.927	-0.004	2.0	GoodResponse	0	0.181	n/a	3	42	ButtonPress	Neutral	True
405.503	0.42	Control	0.6279	n/a	Yes	2.927	n/a	n/a	GoodResponse	0	n/a	n/a	3	42	Blank	Neutral	True
405.921	1.45	Control	0.6279	n/a	Yes	2.927	n/a	5.0	GoodResponse	0	0.048	404.969	3	42	Feedback	Neutral	True
407.375	2.927	Control	0.6279	n/a	Yes	2.927	n/a	n/a	GoodResponse	0	0.0	n/a	3	42	ISIslide	Neutral	True
410.317	0.25	Win2	0.6364	0.0	Yes	3.183	0.017	n/a	GoodResponse	1	n/a	n/a	4	43	Cue	Win	True
410.568	4.0	Win2	0.6364	0.0	Yes	3.183	0.001	n/a	GoodResponse	1	n/a	n/a	4	43	Fixation	Win	True
414.563	0.29	Win2	0.6364	0.004	Yes	3.183	-0.004	2.0	GoodResponse	1	0.177	413.74	4	43	Target	Win	True
414.74	0.3	Win2	0.6364	0.004	Yes	3.183	-0.004	2.0	GoodResponse	1	0.177	n/a	4	43	ButtonPress	Win	True
414.864	0.41	Win2	0.6364	n/a	Yes	3.183	n/a	n/a	GoodResponse	1	n/a	n/a	4	43	Blank	Win	True
415.265	1.45	Win2	0.6364	n/a	Yes	3.183	n/a	5.0	GoodResponse	1	0.021	414.286	4	43	Feedback	Win	True
416.72	3.183	Win2	0.6364	n/a	Yes	3.183	n/a	n/a	GoodResponse	1	0.0	n/a	4	43	ISIslide	Win	True
419.929	0.25	Win2	0.6444	0.0	Yes	2.971	0.029	n/a	GoodResponse	1	n/a	n/a	5	44	Cue	Win	True
420.18	4.0	Win2	0.6444	0.0	Yes	2.971	0.001	n/a	GoodResponse	1	n/a	n/a	5	44	Fixation	Win	True
424.175	0.3	Win2	0.6444	0.004	Yes	2.971	-0.004	2.0	GoodResponse	1	0.2	423.375	5	44	Target	Win	True
424.375	0.3	Win2	0.6444	0.004	Yes	2.971	-0.004	2.0	GoodResponse	1	0.2	n/a	5	44	ButtonPress	Win	True
424.476	0.4	Win2	0.6444	n/a	Yes	2.971	n/a	n/a	GoodResponse	1	n/a	n/a	5	44	Blank	Win	True
424.877	1.45	Win2	0.6444	n/a	Yes	2.971	n/a	5.0	GoodResponse	1	0.019	423.896	5	44	Feedback	Win	True
426.332	2.971	Win2	0.6444	n/a	Yes	2.971	n/a	n/a	GoodResponse	1	0.0	n/a	5	44	ISIslide	Win	True
429.324	0.25	Control	0.6522	0.0	Yes	2.876	0.024	n/a	GoodResponse	0	n/a	n/a	5	45	Cue	Neutral	True
429.575	4.1	Control	0.6522	0.0	Yes	2.876	0.001	n/a	GoodResponse	0	n/a	n/a	5	45	Fixation	Neutral	True
433.67	0.31	Control	0.6522	0.004	Yes	2.876	-0.004	2.0	GoodResponse	0	0.185	432.855	5	45	Target	Neutral	True
433.855	0.3	Control	0.6522	0.004	Yes	2.876	-0.004	2.0	GoodResponse	0	0.185	n/a	5	45	ButtonPress	Neutral	True
433.988	0.39	Control	0.6522	n/a	Yes	2.876	n/a	n/a	GoodResponse	0	n/a	n/a	5	45	Blank	Neutral	True
434.372	1.45	Control	0.6522	n/a	Yes	2.876	n/a	5.0	GoodResponse	0	0.035	433.407	5	45	Feedback	Neutral	True
435.827	2.876	Control	0.6522	n/a	Yes	2.876	n/a	n/a	GoodResponse	0	0.0	n/a	5	45	ISIslide	Neutral	True
438.719	0.25	Lose2	0.6596	0.0	Yes	3.381	0.019	n/a	GoodResponse	0	n/a	n/a	5	46	Cue	AvoidedLoss	True
438.97	4.0	Lose2	0.6596	0.0	Yes	3.381	0.001	n/a	GoodResponse	0	n/a	n/a	5	46	Fixation	AvoidedLoss	True
442.965	0.32	Lose2	0.6596	0.004	Yes	3.381	-0.004	2.0	GoodResponse	0	0.166	442.131	5	46	Target	AvoidedLoss	True
443.131	0.3	Lose2	0.6596	0.004	Yes	3.381	-0.004	2.0	GoodResponse	0	0.166	n/a	5	46	ButtonPress	AvoidedLoss	True
443.299	0.38	Lose2	0.6596	n/a	Yes	3.381	n/a	n/a	GoodResponse	0	n/a	n/a	5	46	Blank	AvoidedLoss	True
443.667	1.45	Lose2	0.6596	n/a	Yes	3.381	n/a	5.0	GoodResponse	0	0.008	442.675	5	46	Feedback	AvoidedLoss	True
445.121	3.381	Lose2	0.6596	n/a	Yes	3.381	n/a	n/a	GoodResponse	0	0.0	n/a	5	46	ISIslide	AvoidedLoss	True
448.531	0.25	Lose2	0.6667000000000001	0.001	Yes	2.669	0.031	n/a	GoodResponse	0	n/a	n/a	5	47	Cue	AvoidedLoss	True
448.782	4.0	Lose2	0.6667000000000001	0.0	Yes	2.669	0.001	n/a	GoodResponse	0	n/a	n/a	5	47	Fixation	AvoidedLoss	True
452.777	0.32	Lose2	0.6667000000000001	0.004	Yes	2.669	-0.004	2.0	GoodResponse	0	0.193	451.97	5	47	Target	AvoidedLoss	True
452.97	0.3	Lose2	0.6667000000000001	0.004	Yes	2.669	-0.004	2.0	GoodResponse	0	0.193	n/a	5	47	ButtonPress	AvoidedLoss	True
453.112	0.38	Lose2	0.6667000000000001	n/a	Yes	2.669	n/a	n/a	GoodResponse	0	n/a	n/a	5	47	Blank	AvoidedLoss	True
453.48	1.45	Lose2	0.6667000000000001	n/a	Yes	2.669	n/a	5.0	GoodResponse	0	0.0	452.48	5	47	Feedback	AvoidedLoss	True
454.934	2.669	Lose2	0.6667000000000001	n/a	Yes	2.669	n/a	n/a	GoodResponse	0	0.0	n/a	5	47	ISIslide	AvoidedLoss	True
457.625	0.25	Lose2	0.6735	0.0	Yes	3.025	0.025	n/a	GoodResponse	0	n/a	n/a	5	48	Cue	AvoidedLoss	True
457.876	3.95	Lose2	0.6735	0.0	Yes	3.025	0.001	n/a	GoodResponse	0	n/a	n/a	5	48	Fixation	AvoidedLoss	True
461.821	0.31	Lose2	0.6735	0.004	Yes	3.025	-0.004	2.0	GoodResponse	0	0.188	461.009	5	48	Target	AvoidedLoss	True
462.009	0.3	Lose2	0.6735	0.004	Yes	3.025	-0.004	2.0	GoodResponse	0	0.188	n/a	5	48	ButtonPress	AvoidedLoss	True
462.139	0.39	Lose2	0.6735	n/a	Yes	3.025	n/a	n/a	GoodResponse	0	n/a	n/a	5	48	Blank	AvoidedLoss	True
462.523	1.45	Lose2	0.6735	n/a	Yes	3.025	n/a	5.0	GoodResponse	0	0.031	461.554	5	48	Feedback	AvoidedLoss	True
463.978	3.025	Lose2	0.6735	n/a	Yes	3.025	n/a	n/a	GoodResponse	0	0.0	n/a	5	48	ISIslide	AvoidedLoss	True
467.02	0.25	Control	0.68	0.0	Yes	2.88	0.02	n/a	GoodResponse	0	n/a	n/a	5	49	Cue	Neutral	True
467.271	4.0	Control	0.68	0.0	Yes	2.88	0.001	n/a	GoodResponse	0	n/a	n/a	5	49	Fixation	Neutral	True
471.266	0.3	Control	0.68	0.004	Yes	2.88	-0.004	2.0	GoodResponse	0	0.185	470.451	5	49	Target	Neutral	True
471.451	0.3	Control	0.68	0.004	Yes	2.88	-0.004	2.0	GoodResponse	0	0.185	n/a	5	49	ButtonPress	Neutral	True
471.567	0.4	Control	0.68	n/a	Yes	2.88	n/a	n/a	GoodResponse	0	n/a	n/a	5	49	Blank	Neutral	True
471.968	1.45	Control	0.68	n/a	Yes	2.88	n/a	5.0	GoodResponse	0	0.048	471.016	5	49	Feedback	Neutral	True
473.422	2.88	Control	0.68	n/a	Yes	2.88	n/a	n/a	GoodResponse	0	0.0	n/a	5	49	ISIslide	Neutral	True
476.314	0.25	Control	0.6862999999999999	0.0	Yes	2.786	0.014	n/a	GoodResponse	0	n/a	n/a	5	50	Cue	Neutral	True
476.565	4.0	Control	0.6862999999999999	0.0	Yes	2.786	0.001	n/a	GoodResponse	0	n/a	n/a	5	50	Fixation	Neutral	True
480.56	0.29	Control	0.6862999999999999	0.004	Yes	2.786	-0.004	2.0	GoodResponse	0	0.165	479.725	5	50	Target	Neutral	True
480.725	0.3	Control	0.6862999999999999	0.004	Yes	2.786	-0.004	2.0	GoodResponse	0	0.165	n/a	5	50	ButtonPress	Neutral	True
480.861	0.41	Control	0.6862999999999999	n/a	Yes	2.786	n/a	n/a	GoodResponse	0	n/a	n/a	5	50	Blank	Neutral	True
481.262	1.45	Control	0.6862999999999999	n/a	Yes	2.786	n/a	5.0	GoodResponse	0	0.023	480.285	5	50	Feedback	Neutral	True
482.717	2.786	Control	0.6862999999999999	n/a	Yes	2.786	n/a	n/a	GoodResponse	0	0.0	n/a	5	50	ISIslide	Neutral	True
485.525	0.25	Control	0.6923	0.0	Yes	2.725	0.025	n/a	GoodResponse	0	n/a	n/a	5	51	Cue	Neutral	True
485.776	3.95	Control	0.6923	0.0	Yes	2.725	0.001	n/a	GoodResponse	0	n/a	n/a	5	51	Fixation	Neutral	True
489.721	0.28	Control	0.6923	0.004	Yes	2.725	-0.004	2.0	GoodResponse	0	0.171	488.892	5	51	Target	Neutral	True
489.892	0.3	Control	0.6923	0.004	Yes	2.725	-0.004	2.0	GoodResponse	0	0.171	n/a	5	51	ButtonPress	Neutral	True
490.005	0.42	Control	0.6923	n/a	Yes	2.725	n/a	n/a	GoodResponse	0	n/a	n/a	5	51	Blank	Neutral	True
490.423	1.45	Control	0.6923	n/a	Yes	2.725	n/a	5.0	GoodResponse	0	0.032	489.455	5	51	Feedback	Neutral	True
491.878	2.725	Control	0.6923	n/a	Yes	2.725	n/a	n/a	GoodResponse	0	0.0	n/a	5	51	ISIslide	Neutral	True
494.619	0.25	Control	0.6981	0.0	Yes	2.631	0.019	n/a	GoodResponse	0	n/a	n/a	5	52	Cue	Neutral	True
494.87	4.05	Control	0.6981	0.0	Yes	2.631	0.001	n/a	GoodResponse	0	n/a	n/a	5	52	Fixation	Neutral	True
498.915	0.27	Control	0.6981	0.004	Yes	2.631	-0.004	2.0	GoodResponse	0	0.171	498.086	5	52	Target	Neutral	True
499.086	0.3	Control	0.6981	0.004	Yes	2.631	-0.004	2.0	GoodResponse	0	0.171	n/a	5	52	ButtonPress	Neutral	True
499.199	0.43	Control	0.6981	n/a	Yes	2.631	n/a	n/a	GoodResponse	0	n/a	n/a	5	52	Blank	Neutral	True
499.617	1.45	Control	0.6981	n/a	Yes	2.631	n/a	5.0	GoodResponse	0	0.009	498.626	5	52	Feedback	Neutral	True
501.072	2.631	Control	0.6981	n/a	Yes	2.631	n/a	n/a	GoodResponse	0	0.0	n/a	5	52	ISIslide	Neutral	True
503.73	0.25	Win2	0.7037	0.0	Yes	2.92	0.03	n/a	GoodResponse	1	n/a	n/a	6	53	Cue	Win	True
503.98	4.05	Win2	0.7037	0.0	Yes	2.92	0.0	n/a	GoodResponse	1	n/a	n/a	6	53	Fixation	Win	True
508.026	0.26	Win2	0.7037	0.004	Yes	2.92	-0.004	2.0	GoodResponse	1	0.189	507.215	6	53	Target	Win	True
508.215	0.3	Win2	0.7037	0.004	Yes	2.92	-0.004	2.0	GoodResponse	1	0.189	n/a	6	53	ButtonPress	Win	True
508.293	0.44	Win2	0.7037	n/a	Yes	2.92	n/a	n/a	GoodResponse	1	n/a	n/a	6	53	Blank	Win	True
508.728	1.45	Win2	0.7037	n/a	Yes	2.92	n/a	5.0	GoodResponse	1	0.019	507.747	6	53	Feedback	Win	True
510.182	2.92	Win2	0.7037	n/a	Yes	2.92	n/a	n/a	GoodResponse	1	0.0	n/a	6	53	ISIslide	Win	True
513.124	0.25	Win2	0.7091	0.0	Yes	2.726	0.024	n/a	GoodResponse	1	n/a	n/a	7	54	Cue	Win	True
513.375	3.95	Win2	0.7091	0.0	Yes	2.726	0.001	n/a	GoodResponse	1	n/a	n/a	7	54	Fixation	Win	True
517.32	0.25	Win2	0.7091	0.004	Yes	2.726	-0.004	2.0	GoodResponse	1	0.173	516.493	7	54	Target	Win	True
517.493	0.3	Win2	0.7091	0.004	Yes	2.726	-0.004	2.0	GoodResponse	1	0.173	n/a	7	54	ButtonPress	Win	True
517.571	0.45	Win2	0.7091	n/a	Yes	2.726	n/a	n/a	GoodResponse	1	n/a	n/a	7	54	Blank	Win	True
518.022	1.45	Win2	0.7091	n/a	Yes	2.726	n/a	5.0	GoodResponse	1	0.042	517.064	7	54	Feedback	Win	True
519.477	2.726	Win2	0.7091	n/a	Yes	2.726	n/a	n/a	GoodResponse	1	0.0	n/a	7	54	ISIslide	Win	True
522.218	0.25	Control	0.7143	0.0	Yes	3.032	0.018	n/a	GoodResponse	0	n/a	n/a	7	55	Cue	Neutral	True
522.469	3.95	Control	0.7143	0.0	Yes	3.032	0.001	n/a	GoodResponse	0	n/a	n/a	7	55	Fixation	Neutral	True
526.414	0.24	Control	0.7143	0.004	Yes	3.032	-0.004	2.0	GoodResponse	0	0.188	525.602	7	55	Target	Neutral	True
526.602	0.3	Control	0.7143	0.004	Yes	3.032	-0.004	2.0	GoodResponse	0	0.188	n/a	7	55	ButtonPress	Neutral	True
526.665	0.46	Control	0.7143	n/a	Yes	3.032	n/a	n/a	GoodResponse	0	n/a	n/a	7	55	Blank	Neutral	True
527.116	1.45	Control	0.7143	n/a	Yes	3.032	n/a	5.0	GoodResponse	0	0.022	526.138	7	55	Feedback	Neutral	True
528.57	3.032	Control	0.7143	n/a	Yes	3.032	n/a	n/a	GoodResponse	0	0.0	n/a	7	55	ISIslide	Neutral	True
531.63	0.25	Control	0.7193	0.0	Yes	2.82	0.03	n/a	GoodResponse	0	n/a	n/a	7	56	Cue	Neutral	True
531.88	3.95	Control	0.7193	0.0	Yes	2.82	0.0	n/a	GoodResponse	0	n/a	n/a	7	56	Fixation	Neutral	True
535.842	0.23	Control	0.7193	0.0	Yes	2.82	0.012	2.0	GoodResponse	0	0.189	535.031	7	56	Target	Neutral	True
536.031	0.3	Control	0.7193	0.0	Yes	2.82	0.012	2.0	GoodResponse	0	0.189	n/a	7	56	ButtonPress	Neutral	True
536.059	0.47	Control	0.7193	n/a	Yes	2.82	n/a	n/a	GoodResponse	0	n/a	n/a	7	56	Blank	Neutral	True
536.528	1.45	Control	0.7193	n/a	Yes	2.82	n/a	5.0	GoodResponse	0	0.025	535.553	7	56	Feedback	Neutral	True
537.982	2.82	Control	0.7193	n/a	Yes	2.82	n/a	n/a	GoodResponse	0	0.0	n/a	7	56	ISIslide	Neutral	True
540.824	0.25	Control	0.7241	0.0	Yes	3.476	0.024	n/a	GoodResponse	0	n/a	n/a	7	57	Cue	Neutral	True
541.074	4.0	Control	0.7241	0.001	Yes	3.476	0.0	n/a	GoodResponse	0	n/a	n/a	7	57	Fixation	Neutral	True
545.07	0.22	Control	0.7241	0.004	Yes	3.476	-0.004	2.0	GoodResponse	0	0.18	544.25	7	57	Target	Neutral	True
545.25	0.3	Control	0.7241	0.004	Yes	3.476	-0.004	2.0	GoodResponse	0	0.18	n/a	7	57	ButtonPress	Neutral	True
545.304	0.48	Control	0.7241	n/a	Yes	3.476	n/a	n/a	GoodResponse	0	n/a	n/a	7	57	Blank	Neutral	True
545.772	1.45	Control	0.7241	n/a	Yes	3.476	n/a	5.0	GoodResponse	0	0.048	544.82	7	57	Feedback	Neutral	True
547.226	3.476	Control	0.7241	n/a	Yes	3.476	n/a	n/a	GoodResponse	0	0.0	n/a	7	57	ISIslide	Neutral	True
550.72	0.25	Win2	0.7288	0.0	Yes	2.73	0.02	n/a	GoodResponse	1	n/a	n/a	8	58	Cue	Win	True
550.971	4.05	Win2	0.7288	0.0	Yes	2.73	0.001	n/a	GoodResponse	1	n/a	n/a	8	58	Fixation	Win	True
555.016	0.21	Win2	0.7288	0.004	Yes	2.73	-0.004	2.0	GoodResponse	1	0.173	554.189	8	58	Target	Win	True
555.189	0.3	Win2	0.7288	0.004	Yes	2.73	-0.004	2.0	GoodResponse	1	0.173	n/a	8	58	ButtonPress	Win	True
555.233	0.49	Win2	0.7288	n/a	Yes	2.73	n/a	n/a	GoodResponse	1	n/a	n/a	8	58	Blank	Win	True
555.718	1.45	Win2	0.7288	n/a	Yes	2.73	n/a	5.0	GoodResponse	1	0.005	554.723	8	58	Feedback	Win	True
557.173	2.73	Win2	0.7288	n/a	Yes	2.73	n/a	n/a	GoodResponse	1	0.0	n/a	8	58	ISIslide	Win	True
559.914	0.25	Lose2	0.7333	0.0	Yes	2.686	0.014	n/a	GoodResponse	0	n/a	n/a	8	59	Cue	AvoidedLoss	True
560.165	4.0	Lose2	0.7333	0.0	Yes	2.686	0.001	n/a	GoodResponse	0	n/a	n/a	8	59	Fixation	AvoidedLoss	True
564.16	0.2	Lose2	0.7333	0.004	Yes	2.686	-0.004	2.0	GoodResponse	0	0.169	563.329	8	59	Target	AvoidedLoss	True
564.329	0.3	Lose2	0.7333	0.004	Yes	2.686	-0.004	2.0	GoodResponse	0	0.169	n/a	8	59	ButtonPress	AvoidedLoss	True
564.361	0.5	Lose2	0.7333	n/a	Yes	2.686	n/a	n/a	GoodResponse	0	n/a	n/a	8	59	Blank	AvoidedLoss	True
564.862	1.45	Lose2	0.7333	n/a	Yes	2.686	n/a	5.0	GoodResponse	0	0.031	563.893	8	59	Feedback	AvoidedLoss	True
566.317	2.686	Lose2	0.7333	n/a	Yes	2.686	n/a	n/a	GoodResponse	0	0.0	n/a	8	59	ISIslide	AvoidedLoss	True
569.025	0.25	Control	0.7212999999999999	0.0	No	2.675	0.025	n/a	NoResponse	0	n/a	n/a	8	60	Cue	Neutral	True
569.275	4.0	Control	0.7212999999999999	0.0	No	2.675	0.0	n/a	NoResponse	0	n/a	n/a	8	60	Fixation	Neutral	True
573.271	0.19	Control	0.7212999999999999	0.004	No	2.675	-0.004	2.0	NoResponse	0	0.206	572.477	8	60	Target	Neutral	True
573.471	0.51	Control	0.7212999999999999	n/a	No	2.675	n/a	n/a	NoResponse	0	n/a	n/a	8	60	Blank	Neutral	True
573.477	0.3	Control	0.7212999999999999	0.004	No	2.675	-0.004	2.0	NoResponse	0	0.206	n/a	8	60	ButtonPress	Neutral	True
573.973	1.45	Control	0.7212999999999999	n/a	No	2.675	n/a	5.0	NoResponse	0	0.042	573.015	8	60	Feedback	Neutral	True
575.427	2.675	Control	0.7212999999999999	n/a	No	2.675	n/a	n/a	NoResponse	0	0.0	n/a	8	60	ISIslide	Neutral	True
578.118	0.25	Lose2	0.7097	0.001	No	2.982	0.018	n/a	NoResponse	-1	n/a	n/a	7	61	Cue	Loss	True
578.369	4.0	Lose2	0.7097	0.0	No	2.982	0.001	n/a	NoResponse	-1	n/a	n/a	7	61	Fixation	Loss	True
582.364	0.18	Lose2	0.7097	0.004	No	2.982	-0.004	2.0	NoResponse	-1	0.194	581.558	7	61	Target	Loss	True
582.548	0.52	Lose2	0.7097	n/a	No	2.982	n/a	n/a	NoResponse	-1	n/a	n/a	7	61	Blank	Loss	True
582.558	0.3	Lose2	0.7097	0.004	No	2.982	-0.004	2.0	NoResponse	-1	0.194	n/a	7	61	ButtonPress	Loss	True
583.067	1.45	Lose2	0.7097	n/a	No	2.982	n/a	5.0	NoResponse	-1	0.021	582.088	7	61	Feedback	Loss	True
584.521	2.982	Lose2	0.7097	n/a	No	2.982	n/a	n/a	NoResponse	-1	0.0	n/a	7	61	ISIslide	Loss	True
587.513	0.25	Lose2	0.7143	0.0	Yes	2.887	0.013	n/a	GoodResponse	0	n/a	n/a	7	62	Cue	AvoidedLoss	True
587.764	3.9	Lose2	0.7143	0.0	Yes	2.887	0.001	n/a	GoodResponse	0	n/a	n/a	7	62	Fixation	AvoidedLoss	True
591.659	0.17	Lose2	0.7143	0.004	Yes	2.887	-0.004	2.0	GoodResponse	0	0.164	590.823	7	62	Target	AvoidedLoss	True
591.823	0.3	Lose2	0.7143	0.004	Yes	2.887	-0.004	2.0	GoodResponse	0	0.164	n/a	7	62	ButtonPress	AvoidedLoss	True
591.843	0.53	Lose2	0.7143	n/a	Yes	2.887	n/a	n/a	GoodResponse	0	n/a	n/a	7	62	Blank	AvoidedLoss	True
592.361	1.45	Lose2	0.7143	n/a	Yes	2.887	n/a	5.0	GoodResponse	0	0.044	591.405	7	62	Feedback	AvoidedLoss	True
593.815	2.887	Lose2	0.7143	n/a	Yes	2.887	n/a	n/a	GoodResponse	0	0.0	n/a	7	62	ISIslide	AvoidedLoss	True
596.724	0.25	Lose2	0.7031000000000001	0.0	No	2.626	0.024	n/a	NoResponse	-1	n/a	n/a	6	63	Cue	Loss	True
596.975	4.05	Lose2	0.7031000000000001	0.0	No	2.626	0.001	n/a	NoResponse	-1	n/a	n/a	6	63	Fixation	Loss	True
601.02	0.16	Lose2	0.7031000000000001	0.004	No	2.626	-0.004	2.0	NoResponse	-1	0.188	600.208	6	63	Target	Loss	True
601.187	0.54	Lose2	0.7031000000000001	n/a	No	2.626	n/a	n/a	NoResponse	-1	n/a	n/a	6	63	Blank	Loss	True
601.208	0.3	Lose2	0.7031000000000001	0.004	No	2.626	-0.004	2.0	NoResponse	-1	0.188	n/a	6	63	ButtonPress	Loss	True
601.722	1.45	Lose2	0.7031000000000001	n/a	No	2.626	n/a	5.0	NoResponse	-1	0.049	600.771	6	63	Feedback	Loss	True
603.177	2.626	Lose2	0.7031000000000001	n/a	No	2.626	n/a	n/a	NoResponse	-1	0.0	n/a	6	63	ISIslide	Loss	True
605.818	0.25	Win2	0.6923	0.0	No	3.132	0.018	n/a	NoResponse	0	n/a	n/a	6	64	Cue	MissedWin	True
606.069	4.15	Win2	0.6923	0.0	No	3.132	0.001	n/a	NoResponse	0	n/a	n/a	6	64	Fixation	MissedWin	True
610.214	0.15	Win2	0.6923	0.004	No	3.132	-0.004	2.0	NoResponse	0	0.174	609.388	6	64	Target	MissedWin	True
610.365	0.55	Win2	0.6923	n/a	No	3.132	n/a	n/a	NoResponse	0	n/a	n/a	6	64	Blank	MissedWin	True
610.388	0.3	Win2	0.6923	0.004	No	3.132	-0.004	2.0	NoResponse	0	0.174	n/a	6	64	ButtonPress	MissedWin	True
610.916	1.45	Win2	0.6923	n/a	No	3.132	n/a	5.0	NoResponse	0	0.026	609.942	6	64	Feedback	MissedWin	True
612.371	3.132	Win2	0.6923	n/a	No	3.132	n/a	n/a	NoResponse	0	0.0	n/a	6	64	ISIslide	MissedWin	True
615.513	0.25	Control	0.6818000000000001	0.001	No	2.787	0.013	n/a	NoResponse	0	n/a	n/a	6	65	Cue	Neutral	True
615.764	4.0	Control	0.6818000000000001	0.0	No	2.787	0.001	n/a	NoResponse	0	n/a	n/a	6	65	Fixation	Neutral	True
619.759	0.15	Control	0.6818000000000001	0.004	No	2.787	-0.004	2.0	NoResponse	0	0.165	618.924	6	65	Target	Neutral	True
619.91	0.55	Control	0.6818000000000001	n/a	No	2.787	n/a	n/a	NoResponse	0	n/a	n/a	6	65	Blank	Neutral	True
619.924	0.3	Control	0.6818000000000001	0.004	No	2.787	-0.004	2.0	NoResponse	0	0.165	n/a	6	65	ButtonPress	Neutral	True
620.462	1.45	Control	0.6818000000000001	n/a	No	2.787	n/a	5.0	NoResponse	0	0.04	619.502	6	65	Feedback	Neutral	True
621.916	2.787	Control	0.6818000000000001	n/a	No	2.787	n/a	n/a	NoResponse	0	0.0	n/a	6	65	ISIslide	Neutral	True
624.724	0.25	Win2	0.6716	0.0	No	2.776	0.024	n/a	NoResponse	0	n/a	n/a	6	66	Cue	MissedWin	True
624.975	3.9	Win2	0.6716	0.0	No	2.776	0.001	n/a	NoResponse	0	n/a	n/a	6	66	Fixation	MissedWin	True
628.87	0.15	Win2	0.6716	0.004	No	2.776	-0.004	2.0	NoResponse	0	0.176	628.046	6	66	Target	MissedWin	True
629.02	0.55	Win2	0.6716	n/a	No	2.776	n/a	n/a	NoResponse	0	n/a	n/a	6	66	Blank	MissedWin	True
629.046	0.3	Win2	0.6716	0.004	No	2.776	-0.004	2.0	NoResponse	0	0.176	n/a	6	66	ButtonPress	MissedWin	True
629.572	1.45	Win2	0.6716	n/a	No	2.776	n/a	5.0	NoResponse	0	0.004	628.576	6	66	Feedback	MissedWin	True
631.026	2.776	Win2	0.6716	n/a	No	2.776	n/a	n/a	NoResponse	0	0.0	n/a	6	66	ISIslide	MissedWin	True
633.818	0.25	Control	0.6618	0.0	No	2.732	0.018	n/a	LatePress	0	n/a	n/a	6	67	Cue	Neutral	True
634.069	3.95	Control	0.6618	0.0	No	2.732	0.001	n/a	LatePress	0	n/a	n/a	6	67	Fixation	Neutral	True
638.014	0.15	Control	0.6618	0.004	No	2.732	-0.004	2.0	LatePress	0	0.15	637.164	6	67	Target	Neutral	True
638.164	0.55	Control	0.6618	n/a	No	2.732	n/a	n/a	LatePress	0	n/a	n/a	6	67	Blank	Neutral	True
638.164	0.3	Control	0.6618	0.004	No	2.732	-0.004	2.0	LatePress	0	0.15	n/a	6	67	ButtonPress	Neutral	True
638.716	1.45	Control	0.6618	n/a	No	2.732	n/a	5.0	LatePress	0	0.03	637.746	6	67	Feedback	Neutral	True
640.17	2.732	Control	0.6618	n/a	No	2.732	n/a	n/a	LatePress	0	0.0	n/a	6	67	ISIslide	Neutral	True
642.929	0.25	Win2	0.6522	0.0	No	3.071	0.029	n/a	NoResponse	0	n/a	n/a	6	68	Cue	MissedWin	True
643.179	4.0	Win2	0.6522	0.0	No	3.071	0.0	n/a	NoResponse	0	n/a	n/a	6	68	Fixation	MissedWin	True
647.175	0.15	Win2	0.6522	0.004	No	3.071	-0.004	2.0	NoResponse	0	0.206	646.381	6	68	Target	MissedWin	True
647.325	0.55	Win2	0.6522	n/a	No	3.071	n/a	n/a	NoResponse	0	n/a	n/a	6	68	Blank	MissedWin	True
647.381	0.3	Win2	0.6522	0.004	No	3.071	-0.004	2.0	NoResponse	0	0.206	n/a	6	68	ButtonPress	MissedWin	True
647.877	1.45	Win2	0.6522	n/a	No	3.071	n/a	5.0	NoResponse	0	0.04	646.917	6	68	Feedback	MissedWin	True
649.331	3.071	Win2	0.6522	n/a	No	3.071	n/a	n/a	NoResponse	0	0.0	n/a	6	68	ISIslide	MissedWin	True
652.424	0.25	Win2	0.6429	0.0	No	3.226	0.024	n/a	NoResponse	0	n/a	n/a	6	69	Cue	MissedWin	True
652.674	3.95	Win2	0.6429	0.001	No	3.226	0.0	n/a	NoResponse	0	n/a	n/a	6	69	Fixation	MissedWin	True
656.62	0.16	Win2	0.6429	0.004	No	3.226	-0.004	2.0	NoResponse	0	0.182	655.802	6	69	Target	MissedWin	True
656.787	0.54	Win2	0.6429	n/a	No	3.226	n/a	n/a	NoResponse	0	n/a	n/a	6	69	Blank	MissedWin	True
656.802	0.3	Win2	0.6429	0.004	No	3.226	-0.004	2.0	NoResponse	0	0.182	n/a	6	69	ButtonPress	MissedWin	True
657.322	1.45	Win2	0.6429	n/a	No	3.226	n/a	5.0	NoResponse	0	0.008	656.33	6	69	Feedback	MissedWin	True
658.776	3.226	Win2	0.6429	n/a	No	3.226	n/a	n/a	NoResponse	0	0.0	n/a	6	69	ISIslide	MissedWin	True
662.019	0.25	Lose2	0.6338	0.0	No	3.031	0.019	n/a	LatePress	-1	n/a	n/a	5	70	Cue	Loss	True
662.27	4.05	Lose2	0.6338	0.0	No	3.031	0.001	n/a	LatePress	-1	n/a	n/a	5	70	Fixation	Loss	True
666.315	0.17	Lose2	0.6338	0.004	No	3.031	-0.004	2.0	LatePress	-1	0.175	665.49	5	70	Target	Loss	True
666.49	0.3	Lose2	0.6338	0.004	No	3.031	-0.004	2.0	LatePress	-1	0.175	n/a	5	70	ButtonPress	Loss	True
666.499	0.53	Lose2	0.6338	n/a	No	3.031	n/a	n/a	LatePress	-1	n/a	n/a	5	70	Blank	Loss	True
667.017	1.45	Lose2	0.6338	n/a	No	3.031	n/a	5.0	LatePress	-1	0.021	666.038	5	70	Feedback	Loss	True
668.472	3.031	Lose2	0.6338	n/a	No	3.031	n/a	n/a	LatePress	-1	0.0	n/a	5	70	ISIslide	Loss	True
671.514	0.25	Win2	0.6389	0.0	Yes	2.736	0.014	n/a	GoodResponse	1	n/a	n/a	6	71	Cue	Win	True
671.765	4.05	Win2	0.6389	0.0	Yes	2.736	0.001	n/a	GoodResponse	1	n/a	n/a	6	71	Fixation	Win	True
675.81	0.18	Win2	0.6389	0.004	Yes	2.736	-0.004	2.0	GoodResponse	1	0.173	674.983	6	71	Target	Win	True
675.983	0.3	Win2	0.6389	0.004	Yes	2.736	-0.004	2.0	GoodResponse	1	0.173	n/a	6	71	ButtonPress	Win	True
675.994	0.52	Win2	0.6389	n/a	Yes	2.736	n/a	n/a	GoodResponse	1	n/a	n/a	6	71	Blank	Win	True
676.512	1.45	Win2	0.6389	n/a	Yes	2.736	n/a	5.0	GoodResponse	1	0.038	675.55	6	71	Feedback	Win	True
677.967	2.736	Win2	0.6389	n/a	Yes	2.736	n/a	n/a	GoodResponse	1	0.0	n/a	6	71	ISIslide	Win	True
680.725	0.25	Win2	0.6437999999999999	0.0	Yes	2.775	0.025	n/a	GoodResponse	1	n/a	n/a	7	72	Cue	Win	True
680.976	4.1	Win2	0.6437999999999999	0.0	Yes	2.775	0.001	n/a	GoodResponse	1	n/a	n/a	7	72	Fixation	Win	True
685.071	0.19	Win2	0.6437999999999999	0.004	Yes	2.775	-0.004	2.0	GoodResponse	1	0.176	684.247	7	72	Target	Win	True
685.247	0.3	Win2	0.6437999999999999	0.004	Yes	2.775	-0.004	2.0	GoodResponse	1	0.176	n/a	7	72	ButtonPress	Win	True
685.272	0.51	Win2	0.6437999999999999	n/a	Yes	2.775	n/a	n/a	GoodResponse	1	n/a	n/a	7	72	Blank	Win	True
685.773	1.45	Win2	0.6437999999999999	n/a	Yes	2.775	n/a	5.0	GoodResponse	1	0.046	684.819	7	72	Feedback	Win	True
687.228	2.775	Win2	0.6437999999999999	n/a	Yes	2.775	n/a	n/a	GoodResponse	1	0.0	n/a	7	72	ISIslide	Win	True
690.019	0.25	Win2	0.6486	0.0	Yes	2.681	0.019	n/a	GoodResponse	1	n/a	n/a	8	73	Cue	Win	True
690.27	4.0	Win2	0.6486	0.0	Yes	2.681	0.001	n/a	GoodResponse	1	n/a	n/a	8	73	Fixation	Win	True
694.265	0.2	Win2	0.6486	0.004	Yes	2.681	-0.004	2.0	GoodResponse	1	0.182	693.447	8	73	Target	Win	True
694.447	0.3	Win2	0.6486	0.004	Yes	2.681	-0.004	2.0	GoodResponse	1	0.182	n/a	8	73	ButtonPress	Win	True
694.466	0.5	Win2	0.6486	n/a	Yes	2.681	n/a	n/a	GoodResponse	1	n/a	n/a	8	73	Blank	Win	True
694.967	1.45	Win2	0.6486	n/a	Yes	2.681	n/a	5.0	GoodResponse	1	0.021	693.988	8	73	Feedback	Win	True
696.422	2.681	Win2	0.6486	n/a	Yes	2.681	n/a	n/a	GoodResponse	1	0.0	n/a	8	73	ISIslide	Win	True
699.113	0.25	Lose2	0.6533	0.0	Yes	2.637	0.013	n/a	GoodResponse	0	n/a	n/a	8	74	Cue	AvoidedLoss	True
699.364	4.05	Lose2	0.6533	0.0	Yes	2.637	0.001	n/a	GoodResponse	0	n/a	n/a	8	74	Fixation	AvoidedLoss	True
703.409	0.21	Lose2	0.6533	0.004	Yes	2.637	-0.004	2.0	GoodResponse	0	0.167	702.576	8	74	Target	AvoidedLoss	True
703.576	0.3	Lose2	0.6533	0.004	Yes	2.637	-0.004	2.0	GoodResponse	0	0.167	n/a	8	74	ButtonPress	AvoidedLoss	True
703.627	0.49	Lose2	0.6533	n/a	Yes	2.637	n/a	n/a	GoodResponse	0	n/a	n/a	8	74	Blank	AvoidedLoss	True
704.111	1.45	Lose2	0.6533	n/a	Yes	2.637	n/a	5.0	GoodResponse	0	0.048	703.159	8	74	Feedback	AvoidedLoss	True
705.566	2.637	Lose2	0.6533	n/a	Yes	2.637	n/a	n/a	GoodResponse	0	0.0	n/a	8	74	ISIslide	AvoidedLoss	True
708.224	0.25	Lose2	0.6579	0.0	Yes	2.926	0.024	n/a	GoodResponse	0	n/a	n/a	8	75	Cue	AvoidedLoss	True
708.474	3.95	Lose2	0.6579	0.0	Yes	2.926	0.0	n/a	GoodResponse	0	n/a	n/a	8	75	Fixation	AvoidedLoss	True
712.42	0.22	Lose2	0.6579	0.004	Yes	2.926	-0.004	2.0	GoodResponse	0	0.176	711.596	8	75	Target	AvoidedLoss	True
712.596	0.3	Lose2	0.6579	0.004	Yes	2.926	-0.004	2.0	GoodResponse	0	0.176	n/a	8	75	ButtonPress	AvoidedLoss	True
712.654	0.48	Lose2	0.6579	n/a	Yes	2.926	n/a	n/a	GoodResponse	0	n/a	n/a	8	75	Blank	AvoidedLoss	True
713.122	1.45	Lose2	0.6579	n/a	Yes	2.926	n/a	5.0	GoodResponse	0	0.013	712.135	8	75	Feedback	AvoidedLoss	True
714.576	2.926	Lose2	0.6579	n/a	Yes	2.926	n/a	n/a	GoodResponse	0	0.0	n/a	8	75	ISIslide	AvoidedLoss	True
717.518	0.25	Control	0.6623	0.0	Yes	3.232	0.018	n/a	GoodResponse	0	n/a	n/a	8	76	Cue	Neutral	True
717.769	4.05	Control	0.6623	0.0	Yes	3.232	0.001	n/a	GoodResponse	0	n/a	n/a	8	76	Fixation	Neutral	True
721.814	0.22	Control	0.6623	0.004	Yes	3.232	-0.004	2.0	GoodResponse	0	0.186	721.0	8	76	Target	Neutral	True
722	0.3	Control	0.6623	0.004	Yes	3.232	-0.004	2.0	GoodResponse	0	0.186	n/a	8	76	ButtonPress	Neutral	True
722.048	0.48	Control	0.6623	n/a	Yes	3.232	n/a	n/a	GoodResponse	0	n/a	n/a	8	76	Blank	Neutral	True
722.516	1.45	Control	0.6623	n/a	Yes	3.232	n/a	5.0	GoodResponse	0	0.034	721.55	8	76	Feedback	Neutral	True
723.971	3.232	Control	0.6623	n/a	Yes	3.232	n/a	n/a	GoodResponse	0	0.0	n/a	8	76	ISIslide	Neutral	True
727.214	0.25	Lose2	0.6667000000000001	0.0	Yes	2.586	0.014	n/a	GoodResponse	0	n/a	n/a	8	77	Cue	AvoidedLoss	True
727.464	3.95	Lose2	0.6667000000000001	0.001	Yes	2.586	0.0	n/a	GoodResponse	0	n/a	n/a	8	77	Fixation	AvoidedLoss	True
731.41	0.22	Lose2	0.6667000000000001	0.004	Yes	2.586	-0.004	2.0	GoodResponse	0	0.178	730.588	8	77	Target	AvoidedLoss	True
731.588	0.3	Lose2	0.6667000000000001	0.004	Yes	2.586	-0.004	2.0	GoodResponse	0	0.178	n/a	8	77	ButtonPress	AvoidedLoss	True
731.644	0.48	Lose2	0.6667000000000001	n/a	Yes	2.586	n/a	n/a	GoodResponse	0	n/a	n/a	8	77	Blank	AvoidedLoss	True
732.112	1.45	Lose2	0.6667000000000001	n/a	Yes	2.586	n/a	5.0	GoodResponse	0	0.047	731.159	8	77	Feedback	AvoidedLoss	True
733.566	2.586	Lose2	0.6667000000000001	n/a	Yes	2.586	n/a	n/a	GoodResponse	0	0.0	n/a	8	77	ISIslide	AvoidedLoss	True
