onset	duration	cue_type	current_mean_accuracy	duration_error	is_hit	isi_adjusted	onset_delay	response	response_type	reward	rt	rt_time	total_reward	trial_number	trial_phase	trial_type	one_press
11.107	0.25	Control	1.0	0.0	Yes	2.943	0.007	n/a	GoodResponse	0	n/a	n/a	0	0	Cue	Neutral	True
11.357	3.85	Control	1.0	0.0	Yes	2.943	0.0	n/a	GoodResponse	0	n/a	n/a	0	0	Fixation	Neutral	True
15.205	0.4	Control	1.0	0.002	Yes	2.943	-0.002	4.0	GoodResponse	0	0.305	14.51	0	0	Target	Neutral	True
15.51	0.3	Control	1.0	0.002	Yes	2.943	-0.002	4.0	GoodResponse	0	0.305	n/a	0	0	ButtonPress	Neutral	True
15.605	0.3	Control	1.0	n/a	Yes	2.943	n/a	n/a	GoodResponse	0	n/a	n/a	0	0	Blank	Neutral	True
15.905	1.45	Control	1.0	n/a	Yes	2.943	n/a	5.0	GoodResponse	0	0.026	14.931	0	0	Feedback	Neutral	True
17.355	2.943	Control	1.0	n/a	Yes	2.943	n/a	n/a	GoodResponse	0	0.0	n/a	0	0	ISIslide	Neutral	True
20.337	0.25	Lose2	1.0	0.0	Yes	2.763	0.037	n/a	GoodResponse	0	n/a	n/a	0	1	Cue	AvoidedLoss	True
20.587	4.0	Lose2	1.0	0.0	Yes	2.763	0.0	n/a	GoodResponse	0	n/a	n/a	0	1	Fixation	AvoidedLoss	True
24.585	0.39	Lose2	1.0	0.002	Yes	2.763	-0.002	4.0	GoodResponse	0	0.24	23.825	0	1	Target	AvoidedLoss	True
24.825	0.3	Lose2	1.0	0.002	Yes	2.763	-0.002	4.0	GoodResponse	0	0.24	n/a	0	1	ButtonPress	AvoidedLoss	True
24.985	0.31	Lose2	1.0	n/a	Yes	2.763	n/a	n/a	GoodResponse	0	n/a	n/a	0	1	Blank	AvoidedLoss	True
25.285	1.45	Lose2	1.0	n/a	Yes	2.763	n/a	5.0	GoodResponse	0	0.01	24.295	0	1	Feedback	AvoidedLoss	True
26.735	2.763	Lose2	1.0	n/a	Yes	2.763	n/a	n/a	GoodResponse	0	0.0	n/a	0	1	ISIslide	AvoidedLoss	True
29.517	0.25	Control	1.0	0.0	Yes	2.583	0.017	n/a	GoodResponse	0	n/a	n/a	0	2	Cue	Neutral	True
29.767	4.1	Control	1.0	0.0	Yes	2.583	0.0	n/a	GoodResponse	0	n/a	n/a	0	2	Fixation	Neutral	True
33.866	0.38	Control	1.0	0.001	Yes	2.583	-0.001	4.0	GoodResponse	0	0.242	33.108	0	2	Target	Neutral	True
34.108	0.3	Control	1.0	0.001	Yes	2.583	-0.001	4.0	GoodResponse	0	0.242	n/a	0	2	ButtonPress	Neutral	True
34.249	0.32	Control	1.0	n/a	Yes	2.583	n/a	n/a	GoodResponse	0	n/a	n/a	0	2	Blank	Neutral	True
34.565	1.45	Control	1.0	n/a	Yes	2.583	n/a	5.0	GoodResponse	0	0.047	33.612	0	2	Feedback	Neutral	True
36.015	2.583	Control	1.0	n/a	Yes	2.583	n/a	n/a	GoodResponse	0	0.0	n/a	0	2	ISIslide	Neutral	True
38.631	0.25	Win2	1.0	0.0	Yes	2.819	0.031	n/a	GoodResponse	1	n/a	n/a	1	3	Cue	Win	True
38.88	3.95	Win2	1.0	0.001	Yes	2.819	-0.001	n/a	GoodResponse	1	n/a	n/a	1	3	Fixation	Win	True
42.829	0.37	Win2	1.0	0.002	Yes	2.819	-0.002	4.0	GoodResponse	1	0.184	42.013	1	3	Target	Win	True
43.013	0.3	Win2	1.0	0.002	Yes	2.819	-0.002	4.0	GoodResponse	1	0.184	n/a	1	3	ButtonPress	Win	True
43.212	0.33	Win2	1.0	n/a	Yes	2.819	n/a	n/a	GoodResponse	1	n/a	n/a	1	3	Blank	Win	True
43.529	1.45	Win2	1.0	n/a	Yes	2.819	n/a	5.0	GoodResponse	1	0.01	42.539	1	3	Feedback	Win	True
44.978	2.819	Win2	1.0	n/a	Yes	2.819	n/a	n/a	GoodResponse	1	0.0	n/a	1	3	ISIslide	Win	True
47.827	0.25	Win2	1.0	0.0	Yes	3.273	0.027	n/a	GoodResponse	1	n/a	n/a	2	4	Cue	Win	True
48.077	4.0	Win2	1.0	0.0	Yes	3.273	0.0	n/a	GoodResponse	1	n/a	n/a	2	4	Fixation	Win	True
52.076	0.36	Win2	1.0	0.001	Yes	3.273	-0.001	4.0	GoodResponse	1	0.252	51.328	2	4	Target	Win	True
52.328	0.3	Win2	1.0	0.001	Yes	3.273	-0.001	4.0	GoodResponse	1	0.252	n/a	2	4	ButtonPress	Win	True
52.442	0.34	Win2	1.0	n/a	Yes	3.273	n/a	n/a	GoodResponse	1	n/a	n/a	2	4	Blank	Win	True
52.776	1.45	Win2	1.0	n/a	Yes	3.273	n/a	5.0	GoodResponse	1	0.031	51.807	2	4	Feedback	Win	True
54.225	3.273	Win2	1.0	n/a	Yes	3.273	n/a	n/a	GoodResponse	1	0.0	n/a	2	4	ISIslide	Win	True
57.524	0.25	Win2	1.0	0.0	Yes	2.776	0.024	n/a	GoodResponse	1	n/a	n/a	3	5	Cue	Win	True
57.774	4.0	Win2	1.0	0.0	Yes	2.776	0.0	n/a	GoodResponse	1	n/a	n/a	3	5	Fixation	Win	True
61.772	0.35	Win2	1.0	0.002	Yes	2.776	-0.002	4.0	GoodResponse	1	0.213	60.985	3	5	Target	Win	True
61.985	0.3	Win2	1.0	0.002	Yes	2.776	-0.002	4.0	GoodResponse	1	0.213	n/a	3	5	ButtonPress	Win	True
62.122	0.35	Win2	1.0	n/a	Yes	2.776	n/a	n/a	GoodResponse	1	n/a	n/a	3	5	Blank	Win	True
62.472	1.45	Win2	1.0	n/a	Yes	2.776	n/a	5.0	GoodResponse	1	0.043	61.515	3	5	Feedback	Win	True
63.922	2.776	Win2	1.0	n/a	Yes	2.776	n/a	n/a	GoodResponse	1	0.0	n/a	3	5	ISIslide	Win	True
66.721	0.25	Lose2	1.0	0.0	Yes	2.729	0.021	n/a	GoodResponse	0	n/a	n/a	3	6	Cue	AvoidedLoss	True
66.971	3.95	Lose2	1.0	0.0	Yes	2.729	0.0	n/a	GoodResponse	0	n/a	n/a	3	6	Fixation	AvoidedLoss	True
70.919	0.34	Lose2	1.0	0.002	Yes	2.729	-0.002	4.0	GoodResponse	0	0.247	70.166	3	6	Target	AvoidedLoss	True
71.166	0.3	Lose2	1.0	0.002	Yes	2.729	-0.002	4.0	GoodResponse	0	0.247	n/a	3	6	ButtonPress	AvoidedLoss	True
71.269	0.36	Lose2	1.0	n/a	Yes	2.729	n/a	n/a	GoodResponse	0	n/a	n/a	3	6	Blank	AvoidedLoss	True
71.619	1.45	Lose2	1.0	n/a	Yes	2.729	n/a	5.0	GoodResponse	0	0.017	70.636	3	6	Feedback	AvoidedLoss	True
73.069	2.729	Lose2	1.0	n/a	Yes	2.729	n/a	n/a	GoodResponse	0	0.0	n/a	3	6	ISIslide	AvoidedLoss	True
75.818	0.25	Lose2	1.0	0.0	Yes	4.032	0.018	n/a	GoodResponse	0	n/a	n/a	3	7	Cue	AvoidedLoss	True
76.067	4.05	Lose2	1.0	0.001	Yes	4.032	-0.001	n/a	GoodResponse	0	n/a	n/a	3	7	Fixation	AvoidedLoss	True
80.116	0.33	Lose2	1.0	0.002	Yes	4.032	-0.002	4.0	GoodResponse	0	0.266	79.382	3	7	Target	AvoidedLoss	True
80.382	0.3	Lose2	1.0	0.002	Yes	4.032	-0.002	4.0	GoodResponse	0	0.266	n/a	3	7	ButtonPress	AvoidedLoss	True
80.449	0.37	Lose2	1.0	n/a	Yes	4.032	n/a	n/a	GoodResponse	0	n/a	n/a	3	7	Blank	AvoidedLoss	True
80.816	1.45	Lose2	1.0	n/a	Yes	4.032	n/a	5.0	GoodResponse	0	0.04	79.856	3	7	Feedback	AvoidedLoss	True
82.265	4.032	Lose2	1.0	n/a	Yes	4.032	n/a	n/a	GoodResponse	0	0.0	n/a	3	7	ISIslide	AvoidedLoss	True
86.331	0.25	Lose2	1.0	0.0	Yes	3.019	0.031	n/a	GoodResponse	0	n/a	n/a	3	8	Cue	AvoidedLoss	False
86.58	3.95	Lose2	1.0	0.001	Yes	3.019	-0.001	4.0	GoodResponse	0	0.154	85.734	3	8	Fixation	AvoidedLoss	False
86.734	0.3	Lose2	1.0	0.001	Yes	3.019	-0.001	4.0	GoodResponse	0	0.154	n/a	3	8	ButtonPress	AvoidedLoss	False
90.529	0.32	Lose2	1.0	0.002	Yes	3.019	-0.002	4.0	GoodResponse	0	0.227	89.756	3	8	Target	AvoidedLoss	False
90.756	0.3	Lose2	1.0	0.002	Yes	3.019	-0.002	4.0	GoodResponse	0	0.227	n/a	3	8	ButtonPress	AvoidedLoss	False
90.862	0.38	Lose2	1.0	n/a	Yes	3.019	n/a	n/a	GoodResponse	0	n/a	n/a	3	8	Blank	AvoidedLoss	False
91.229	1.45	Lose2	1.0	n/a	Yes	3.019	n/a	5.0	GoodResponse	0	0.017	90.246	3	8	Feedback	AvoidedLoss	False
92.678	3.019	Lose2	1.0	n/a	Yes	3.019	n/a	n/a	GoodResponse	0	0.0	n/a	3	8	ISIslide	AvoidedLoss	False
95.727	0.25	Lose2	1.0	0.0	Yes	3.123	0.027	n/a	GoodResponse	0	n/a	n/a	3	9	Cue	AvoidedLoss	True
95.977	3.95	Lose2	1.0	0.0	Yes	3.123	0.0	n/a	GoodResponse	0	n/a	n/a	3	9	Fixation	AvoidedLoss	True
99.926	0.31	Lose2	1.0	0.001	Yes	3.123	-0.001	4.0	GoodResponse	0	0.251	99.177	3	9	Target	AvoidedLoss	True
100.177	0.3	Lose2	1.0	0.001	Yes	3.123	-0.001	4.0	GoodResponse	0	0.251	n/a	3	9	ButtonPress	AvoidedLoss	True
100.242	0.39	Lose2	1.0	n/a	Yes	3.123	n/a	n/a	GoodResponse	0	n/a	n/a	3	9	Blank	AvoidedLoss	True
100.626	1.45	Lose2	1.0	n/a	Yes	3.123	n/a	5.0	GoodResponse	0	0.035	99.661	3	9	Feedback	AvoidedLoss	True
102.075	3.123	Lose2	1.0	n/a	Yes	3.123	n/a	n/a	GoodResponse	0	0.0	n/a	3	9	ISIslide	AvoidedLoss	True
105.224	0.25	Control	1.0	0.0	Yes	3.276	0.024	n/a	GoodResponse	0	n/a	n/a	3	10	Cue	Neutral	True
105.474	4.0	Control	1.0	0.0	Yes	3.276	0.0	n/a	GoodResponse	0	n/a	n/a	3	10	Fixation	Neutral	True
109.472	0.3	Control	1.0	0.002	Yes	3.276	-0.002	4.0	GoodResponse	0	0.223	108.695	3	10	Target	Neutral	True
109.695	0.3	Control	1.0	0.002	Yes	3.276	-0.002	4.0	GoodResponse	0	0.223	n/a	3	10	ButtonPress	Neutral	True
109.772	0.4	Control	1.0	n/a	Yes	3.276	n/a	n/a	GoodResponse	0	n/a	n/a	3	10	Blank	Neutral	True
110.172	1.45	Control	1.0	n/a	Yes	3.276	n/a	5.0	GoodResponse	0	0.001	109.173	3	10	Feedback	Neutral	True
111.622	3.276	Control	1.0	n/a	Yes	3.276	n/a	n/a	GoodResponse	0	0.0	n/a	3	10	ISIslide	Neutral	True
114.921	0.25	Lose2	1.0	0.0	Yes	2.729	0.021	n/a	GoodResponse	0	n/a	n/a	3	11	Cue	AvoidedLoss	False
115.171	4.05	Lose2	1.0	0.0	Yes	2.729	0.0	4.0	GoodResponse	0	3.606	117.777	3	11	Fixation	AvoidedLoss	False
118.777	0.3	Lose2	1.0	0.0	Yes	2.729	0.0	4.0	GoodResponse	0	3.606	n/a	3	11	ButtonPress	AvoidedLoss	False
119.219	0.29	Lose2	1.0	0.002	Yes	2.729	-0.002	4.0	GoodResponse	0	0.203	118.422	3	11	Target	AvoidedLoss	False
119.422	0.3	Lose2	1.0	0.002	Yes	2.729	-0.002	4.0	GoodResponse	0	0.203	n/a	3	11	ButtonPress	AvoidedLoss	False
119.519	0.41	Lose2	1.0	n/a	Yes	2.729	n/a	n/a	GoodResponse	0	n/a	n/a	3	11	Blank	AvoidedLoss	False
119.919	1.45	Lose2	1.0	n/a	Yes	2.729	n/a	5.0	GoodResponse	0	0.009	118.928	3	11	Feedback	AvoidedLoss	False
121.368	2.729	Lose2	1.0	n/a	Yes	2.729	n/a	n/a	GoodResponse	0	0.0	n/a	3	11	ISIslide	AvoidedLoss	False
124.117	0.25	Control	1.0	0.0	Yes	2.983	0.017	n/a	GoodResponse	0	n/a	n/a	3	12	Cue	Neutral	True
124.367	3.9	Control	1.0	0.0	Yes	2.983	0.0	n/a	GoodResponse	0	n/a	n/a	3	12	Fixation	Neutral	True
128.266	0.28	Control	1.0	0.001	Yes	2.983	-0.001	4.0	GoodResponse	0	0.254	127.52	3	12	Target	Neutral	True
128.52	0.3	Control	1.0	0.001	Yes	2.983	-0.001	4.0	GoodResponse	0	0.254	n/a	3	12	ButtonPress	Neutral	True
128.549	0.42	Control	1.0	n/a	Yes	2.983	n/a	n/a	GoodResponse	0	n/a	n/a	3	12	Blank	Neutral	True
128.966	1.45	Control	1.0	n/a	Yes	2.983	n/a	5.0	GoodResponse	0	0.036	128.002	3	12	Feedback	Neutral	True
130.415	2.983	Control	1.0	n/a	Yes	2.983	n/a	n/a	GoodResponse	0	0.0	n/a	3	12	ISIslide	Neutral	True
133.431	0.25	Control	1.0	0.0	Yes	2.769	0.031	n/a	GoodResponse	0	n/a	n/a	3	13	Cue	Neutral	True
133.681	4.0	Control	1.0	0.0	Yes	2.769	0.0	n/a	GoodResponse	0	n/a	n/a	3	13	Fixation	Neutral	True
137.679	0.27	Control	1.0	0.002	Yes	2.769	-0.002	4.0	GoodResponse	0	0.249	136.928	3	13	Target	Neutral	True
137.928	0.3	Control	1.0	0.002	Yes	2.769	-0.002	4.0	GoodResponse	0	0.249	n/a	3	13	ButtonPress	Neutral	True
137.963	0.43	Control	1.0	n/a	Yes	2.769	n/a	n/a	GoodResponse	0	n/a	n/a	3	13	Blank	Neutral	True
138.379	1.45	Control	1.0	n/a	Yes	2.769	n/a	5.0	GoodResponse	0	0.037	137.416	3	13	Feedback	Neutral	True
139.829	2.769	Control	1.0	n/a	Yes	2.769	n/a	n/a	GoodResponse	0	0.0	n/a	3	13	ISIslide	Neutral	True
142.628	0.25	Win2	1.0	0.0	Yes	2.672	0.028	n/a	GoodResponse	1	n/a	n/a	4	14	Cue	Win	True
142.878	4.1	Win2	1.0	0.0	Yes	2.672	0.0	n/a	GoodResponse	1	n/a	n/a	4	14	Fixation	Win	True
146.976	0.26	Win2	1.0	0.002	Yes	2.672	-0.002	4.0	GoodResponse	1	0.199	146.175	4	14	Target	Win	True
147.175	0.3	Win2	1.0	0.002	Yes	2.672	-0.002	4.0	GoodResponse	1	0.199	n/a	4	14	ButtonPress	Win	True
147.243	0.44	Win2	1.0	n/a	Yes	2.672	n/a	n/a	GoodResponse	1	n/a	n/a	4	14	Blank	Win	True
147.676	1.45	Win2	1.0	n/a	Yes	2.672	n/a	5.0	GoodResponse	1	0.009	146.685	4	14	Feedback	Win	True
149.125	2.672	Win2	1.0	n/a	Yes	2.672	n/a	n/a	GoodResponse	1	0.0	n/a	4	14	ISIslide	Win	True
151.824	0.25	Control	1.0	0.0	Yes	2.976	0.024	n/a	GoodResponse	0	n/a	n/a	4	15	Cue	Neutral	True
152.074	4.0	Control	1.0	0.0	Yes	2.976	0.0	n/a	GoodResponse	0	n/a	n/a	4	15	Fixation	Neutral	True
156.073	0.25	Control	1.0	0.001	Yes	2.976	-0.001	4.0	GoodResponse	0	0.239	155.312	4	15	Target	Neutral	True
156.312	0.3	Control	1.0	0.001	Yes	2.976	-0.001	4.0	GoodResponse	0	0.239	n/a	4	15	ButtonPress	Neutral	True
156.323	0.45	Control	1.0	n/a	Yes	2.976	n/a	n/a	GoodResponse	0	n/a	n/a	4	15	Blank	Neutral	True
156.773	1.45	Control	1.0	n/a	Yes	2.976	n/a	5.0	GoodResponse	0	0.034	155.807	4	15	Feedback	Neutral	True
158.222	2.976	Control	1.0	n/a	Yes	2.976	n/a	n/a	GoodResponse	0	0.0	n/a	4	15	ISIslide	Neutral	True
161.221	0.25	Win2	0.9412	0.0	No	2.879	0.021	n/a	NoResponse	0	n/a	n/a	4	16	Cue	MissedWin	True
161.471	4.0	Win2	0.9412	0.0	No	2.879	0.0	n/a	NoResponse	0	n/a	n/a	4	16	Fixation	MissedWin	True
165.47	0.24	Win2	0.9412	0.001	No	2.879	-0.001	4.0	NoResponse	0	0.258	164.728	4	16	Target	MissedWin	True
165.72	0.46	Win2	0.9412	n/a	No	2.879	n/a	n/a	NoResponse	0	n/a	n/a	4	16	Blank	MissedWin	True
165.728	0.3	Win2	0.9412	0.001	No	2.879	-0.001	4.0	NoResponse	0	0.258	n/a	4	16	ButtonPress	MissedWin	True
166.169	1.45	Win2	0.9412	n/a	No	2.879	n/a	5.0	NoResponse	0	0.007	165.176	4	16	Feedback	MissedWin	True
167.619	2.879	Win2	0.9412	n/a	No	2.879	n/a	n/a	NoResponse	0	0.0	n/a	4	16	ISIslide	MissedWin	True
170.518	0.25	Lose2	0.8889	0.0	No	2.732	0.018	n/a	NoResponse	-1	n/a	n/a	3	17	Cue	Loss	True
170.768	3.95	Lose2	0.8889	0.0	No	2.732	0.0	n/a	NoResponse	-1	n/a	n/a	3	17	Fixation	Loss	True
174.716	0.23	Lose2	0.8889	0.002	No	2.732	-0.002	4.0	NoResponse	-1	0.242	173.958	3	17	Target	Loss	True
174.95	0.47	Lose2	0.8889	n/a	No	2.732	n/a	n/a	NoResponse	-1	n/a	n/a	3	17	Blank	Loss	True
174.958	0.3	Lose2	0.8889	0.002	No	2.732	-0.002	4.0	NoResponse	-1	0.242	n/a	3	17	ButtonPress	Loss	True
175.416	1.45	Lose2	0.8889	n/a	No	2.732	n/a	5.0	NoResponse	-1	0.024	174.44	3	17	Feedback	Loss	True
176.866	2.732	Lose2	0.8889	n/a	No	2.732	n/a	n/a	NoResponse	-1	0.0	n/a	3	17	ISIslide	Loss	True
179.615	0.25	Lose2	0.8421	0.0	No	2.735	0.015	n/a	LatePress	-1	n/a	n/a	2	18	Cue	Loss	True
179.865	4.05	Lose2	0.8421	0.0	No	2.735	0.0	n/a	LatePress	-1	n/a	n/a	2	18	Fixation	Loss	True
183.913	0.22	Lose2	0.8421	0.002	No	2.735	-0.002	4.0	LatePress	-1	0.231	183.144	2	18	Target	Loss	True
184.144	0.3	Lose2	0.8421	0.002	No	2.735	-0.002	4.0	LatePress	-1	0.231	n/a	2	18	ButtonPress	Loss	True
184.146	0.48	Lose2	0.8421	n/a	No	2.735	n/a	n/a	LatePress	-1	n/a	n/a	2	18	Blank	Loss	True
184.613	1.45	Lose2	0.8421	n/a	No	2.735	n/a	5.0	LatePress	-1	0.047	183.66	2	18	Feedback	Loss	True
186.062	2.735	Lose2	0.8421	n/a	No	2.735	n/a	n/a	LatePress	-1	0.0	n/a	2	18	ISIslide	Loss	True
188.828	0.25	Control	0.8	0.0	No	2.922	0.028	n/a	NoResponse	0	n/a	n/a	2	19	Cue	Neutral	True
189.078	3.95	Control	0.8	0.0	No	2.922	0.0	n/a	NoResponse	0	n/a	n/a	2	19	Fixation	Neutral	True
193.027	0.21	Control	0.8	0.001	No	2.922	-0.001	4.0	NoResponse	0	0.265	192.292	2	19	Target	Neutral	True
193.243	0.49	Control	0.8	n/a	No	2.922	n/a	n/a	NoResponse	0	n/a	n/a	2	19	Blank	Neutral	True
193.292	0.3	Control	0.8	0.001	No	2.922	-0.001	4.0	NoResponse	0	0.265	n/a	2	19	ButtonPress	Neutral	True
193.726	1.45	Control	0.8	n/a	No	2.922	n/a	5.0	NoResponse	0	0.008	192.734	2	19	Feedback	Neutral	True
195.176	2.922	Control	0.8	n/a	No	2.922	n/a	n/a	NoResponse	0	0.0	n/a	2	19	ISIslide	Neutral	True
198.125	0.25	Control	0.7619	0.0	No	2.625	0.025	n/a	NoResponse	0	n/a	n/a	2	20	Cue	Neutral	True
198.375	4.05	Control	0.7619	0.0	No	2.625	0.0	n/a	NoResponse	0	n/a	n/a	2	20	Fixation	Neutral	True
202.423	0.2	Control	0.7619	0.002	No	2.625	-0.002	4.0	NoResponse	0	0.232	201.655	2	20	Target	Neutral	True
202.623	0.5	Control	0.7619	n/a	No	2.625	n/a	n/a	NoResponse	0	n/a	n/a	2	20	Blank	Neutral	True
202.655	0.3	Control	0.7619	0.002	No	2.625	-0.002	4.0	NoResponse	0	0.232	n/a	2	20	ButtonPress	Neutral	True
203.123	1.45	Control	0.7619	n/a	No	2.625	n/a	5.0	NoResponse	0	0.025	202.148	2	20	Feedback	Neutral	True
204.573	2.625	Control	0.7619	n/a	No	2.625	n/a	n/a	NoResponse	0	0.0	n/a	2	20	ISIslide	Neutral	True
207.222	0.25	Control	0.7273000000000001	0.0	No	2.778	0.022	n/a	NoResponse	0	n/a	n/a	2	21	Cue	Neutral	True
207.472	4.1	Control	0.7273000000000001	0.0	No	2.778	0.0	n/a	NoResponse	0	n/a	n/a	2	21	Fixation	Neutral	True
211.57	0.19	Control	0.7273000000000001	0.002	No	2.778	-0.002	4.0	NoResponse	0	0.229	210.799	2	21	Target	Neutral	True
211.77	0.51	Control	0.7273000000000001	n/a	No	2.778	n/a	n/a	NoResponse	0	n/a	n/a	2	21	Blank	Neutral	True
211.799	0.3	Control	0.7273000000000001	0.002	No	2.778	-0.002	4.0	NoResponse	0	0.229	n/a	2	21	ButtonPress	Neutral	True
212.27	1.45	Control	0.7273000000000001	n/a	No	2.778	n/a	5.0	NoResponse	0	0.049	211.319	2	21	Feedback	Neutral	True
213.719	2.778	Control	0.7273000000000001	n/a	No	2.778	n/a	n/a	NoResponse	0	0.0	n/a	2	21	ISIslide	Neutral	True
216.518	0.25	Control	0.6957	0.001	No	2.782	0.018	n/a	PrematurePress	0	n/a	n/a	2	22	Cue	Neutral	True
216.768	4.0	Control	0.6957	0.0	No	2.782	0.0	n/a	PrematurePress	0	n/a	n/a	2	22	Fixation	Neutral	True
220.767	0.18	Control	0.6957	0.001	No	2.782	-0.001	4.0	PrematurePress	0	0.071	219.838	2	22	Target	Neutral	True
220.838	0.3	Control	0.6957	0.001	No	2.782	-0.001	4.0	PrematurePress	0	0.071	n/a	2	22	ButtonPress	Neutral	True
220.95	0.52	Control	0.6957	n/a	No	2.782	n/a	n/a	PrematurePress	0	n/a	n/a	2	22	Blank	Neutral	True
221.467	1.45	Control	0.6957	n/a	No	2.782	n/a	5.0	PrematurePress	0	0.022	220.489	2	22	Feedback	Neutral	True
222.916	2.782	Control	0.6957	n/a	No	2.782	n/a	n/a	PrematurePress	0	0.0	n/a	2	22	ISIslide	Neutral	True
225.715	0.25	Control	0.6667000000000001	0.0	No	2.785	0.015	n/a	NoResponse	0	n/a	n/a	2	23	Cue	Neutral	True
225.965	3.9	Control	0.6667000000000001	0.0	No	2.785	0.0	n/a	NoResponse	0	n/a	n/a	2	23	Fixation	Neutral	True
229.864	0.17	Control	0.6667000000000001	0.001	No	2.785	-0.001	4.0	NoResponse	0	0.244	229.108	2	23	Target	Neutral	True
230.03	0.53	Control	0.6667000000000001	n/a	No	2.785	n/a	n/a	NoResponse	0	n/a	n/a	2	23	Blank	Neutral	True
230.108	0.3	Control	0.6667000000000001	0.001	No	2.785	-0.001	4.0	NoResponse	0	0.244	n/a	2	23	ButtonPress	Neutral	True
230.564	1.45	Control	0.6667000000000001	n/a	No	2.785	n/a	5.0	NoResponse	0	0.047	229.611	2	23	Feedback	Neutral	True
232.013	2.785	Control	0.6667000000000001	n/a	No	2.785	n/a	n/a	NoResponse	0	0.0	n/a	2	23	ISIslide	Neutral	True
234.829	0.25	Win2	0.64	0.0	No	3.121	0.029	n/a	NoResponse	0	n/a	n/a	2	24	Cue	MissedWin	True
235.079	3.95	Win2	0.64	0.0	No	3.121	0.0	n/a	NoResponse	0	n/a	n/a	2	24	Fixation	MissedWin	True
239.027	0.16	Win2	0.64	0.002	No	3.121	-0.002	4.0	NoResponse	0	0.268	238.295	2	24	Target	MissedWin	True
239.194	0.54	Win2	0.64	n/a	No	3.121	n/a	n/a	NoResponse	0	n/a	n/a	2	24	Blank	MissedWin	True
239.295	0.3	Win2	0.64	0.002	No	3.121	-0.002	4.0	NoResponse	0	0.268	n/a	2	24	ButtonPress	MissedWin	True
239.727	1.45	Win2	0.64	n/a	No	3.121	n/a	5.0	NoResponse	0	0.008	238.735	2	24	Feedback	MissedWin	True
241.177	3.121	Win2	0.64	n/a	No	3.121	n/a	n/a	NoResponse	0	0.0	n/a	2	24	ISIslide	MissedWin	True
244.325	0.25	Win2	0.6154	0.001	No	3.075	0.025	n/a	NoResponse	0	n/a	n/a	2	25	Cue	MissedWin	True
244.575	4.0	Win2	0.6154	0.0	No	3.075	0.0	n/a	NoResponse	0	n/a	n/a	2	25	Fixation	MissedWin	True
248.574	0.17	Win2	0.6154	0.001	No	3.075	-0.001	4.0	NoResponse	0	0.258	247.832	2	25	Target	MissedWin	True
248.741	0.53	Win2	0.6154	n/a	No	3.075	n/a	n/a	NoResponse	0	n/a	n/a	2	25	Blank	MissedWin	True
248.832	0.3	Win2	0.6154	0.001	No	3.075	-0.001	4.0	NoResponse	0	0.258	n/a	2	25	ButtonPress	MissedWin	True
249.274	1.45	Win2	0.6154	n/a	No	3.075	n/a	5.0	NoResponse	0	0.02	248.294	2	25	Feedback	MissedWin	True
250.723	3.075	Win2	0.6154	n/a	No	3.075	n/a	n/a	NoResponse	0	0.0	n/a	2	25	ISIslide	MissedWin	True
253.822	0.25	Win2	0.5926	0.0	No	2.928	0.022	n/a	NoResponse	0	n/a	n/a	2	26	Cue	MissedWin	True
254.072	3.95	Win2	0.5926	0.0	No	2.928	0.0	n/a	NoResponse	0	n/a	n/a	2	26	Fixation	MissedWin	True
258.021	0.18	Win2	0.5926	0.001	No	2.928	-0.001	4.0	NoResponse	0	0.232	257.253	2	26	Target	MissedWin	True
258.204	0.52	Win2	0.5926	n/a	No	2.928	n/a	n/a	NoResponse	0	n/a	n/a	2	26	Blank	MissedWin	True
258.253	0.3	Win2	0.5926	0.001	No	2.928	-0.001	4.0	NoResponse	0	0.232	n/a	2	26	ButtonPress	MissedWin	True
258.72	1.45	Win2	0.5926	n/a	No	2.928	n/a	5.0	NoResponse	0	0.037	257.757	2	26	Feedback	MissedWin	True
260.17	2.928	Win2	0.5926	n/a	No	2.928	n/a	n/a	NoResponse	0	0.0	n/a	2	26	ISIslide	MissedWin	True
263.119	0.25	Lose2	0.5714	0.0	No	2.831	0.019	n/a	NoResponse	-1	n/a	n/a	1	27	Cue	Loss	True
263.369	4.05	Lose2	0.5714	0.0	No	2.831	0.0	n/a	NoResponse	-1	n/a	n/a	1	27	Fixation	Loss	True
267.417	0.19	Lose2	0.5714	0.002	No	2.831	-0.002	4.0	NoResponse	-1	0.243	266.66	1	27	Target	Loss	True
267.617	0.51	Lose2	0.5714	n/a	No	2.831	n/a	n/a	NoResponse	-1	n/a	n/a	1	27	Blank	Loss	True
267.66	0.3	Lose2	0.5714	0.002	No	2.831	-0.002	4.0	NoResponse	-1	0.243	n/a	1	27	ButtonPress	Loss	True
268.117	1.45	Lose2	0.5714	n/a	No	2.831	n/a	5.0	NoResponse	-1	0.008	267.125	1	27	Feedback	Loss	True
269.567	2.831	Lose2	0.5714	n/a	No	2.831	n/a	n/a	NoResponse	-1	0.0	n/a	1	27	ISIslide	Loss	True
272.416	0.25	Control	0.5517	0.0	No	2.834	0.016	n/a	NoResponse	0	n/a	n/a	1	28	Cue	Neutral	True
272.666	4.05	Control	0.5517	0.0	No	2.834	0.0	n/a	NoResponse	0	n/a	n/a	1	28	Fixation	Neutral	True
276.714	0.2	Control	0.5517	0.002	No	2.834	-0.002	4.0	NoResponse	0	0.281	275.995	1	28	Target	Neutral	True
276.914	0.5	Control	0.5517	n/a	No	2.834	n/a	n/a	NoResponse	0	n/a	n/a	1	28	Blank	Neutral	True
276.995	0.3	Control	0.5517	0.002	No	2.834	-0.002	4.0	NoResponse	0	0.281	n/a	1	28	ButtonPress	Neutral	True
277.414	1.45	Control	0.5517	n/a	No	2.834	n/a	5.0	NoResponse	0	0.025	276.439	1	28	Feedback	Neutral	True
278.863	2.834	Control	0.5517	n/a	No	2.834	n/a	n/a	NoResponse	0	0.0	n/a	1	28	ISIslide	Neutral	True
281.712	0.25	Lose2	0.5333	0.001	No	2.838	0.012	n/a	NoResponse	-1	n/a	n/a	0	29	Cue	Loss	True
281.962	3.95	Lose2	0.5333	0.0	No	2.838	0.0	n/a	NoResponse	-1	n/a	n/a	0	29	Fixation	Loss	True
285.911	0.21	Lose2	0.5333	0.001	No	2.838	-0.001	4.0	NoResponse	-1	0.251	285.162	0	29	Target	Loss	True
286.128	0.49	Lose2	0.5333	n/a	No	2.838	n/a	n/a	NoResponse	-1	n/a	n/a	0	29	Blank	Loss	True
286.162	0.3	Lose2	0.5333	0.001	No	2.838	-0.001	4.0	NoResponse	-1	0.251	n/a	0	29	ButtonPress	Loss	True
286.611	1.45	Lose2	0.5333	n/a	No	2.838	n/a	5.0	NoResponse	-1	0.048	285.659	0	29	Feedback	Loss	True
288.06	2.838	Lose2	0.5333	n/a	No	2.838	n/a	n/a	NoResponse	-1	0.0	n/a	0	29	ISIslide	Loss	True
290.926	0.25	Win2	0.5484	0.0	Yes	2.774	0.026	n/a	GoodResponse	1	n/a	n/a	1	30	Cue	Win	False
291.176	3.9	Win2	0.5484	0.0	Yes	2.774	0.0	4.0	GoodResponse	1	3.731	293.907	1	30	Fixation	Win	False
294.907	0.3	Win2	0.5484	0.0	Yes	2.774	0.0	4.0	GoodResponse	1	3.731	n/a	1	30	ButtonPress	Win	False
295.074	0.22	Win2	0.5484	0.002	Yes	2.774	-0.002	4.0	GoodResponse	1	0.165	294.239	1	30	Target	Win	False
295.239	0.3	Win2	0.5484	0.002	Yes	2.774	-0.002	4.0	GoodResponse	1	0.165	n/a	1	30	ButtonPress	Win	False
295.308	0.48	Win2	0.5484	n/a	Yes	2.774	n/a	n/a	GoodResponse	1	n/a	n/a	1	30	Blank	Win	False
295.774	1.45	Win2	0.5484	n/a	Yes	2.774	n/a	5.0	GoodResponse	1	0.008	294.782	1	30	Feedback	Win	False
297.224	2.774	Win2	0.5484	n/a	Yes	2.774	n/a	n/a	GoodResponse	1	0.0	n/a	1	30	ISIslide	Win	False
300.023	0.25	Lose2	0.5312	0.0	No	2.827	0.023	n/a	NoResponse	-1	n/a	n/a	0	31	Cue	Loss	False
300.273	4.05	Lose2	0.5312	0.0	No	2.827	0.0	n/a	NoResponse	-1	n/a	n/a	0	31	Fixation	Loss	False
304.321	0.23	Lose2	0.5312	0.002	No	2.827	-0.002	n/a	NoResponse	-1	n/a	n/a	0	31	Target	Loss	False
304.554	0.47	Lose2	0.5312	n/a	No	2.827	n/a	n/a	NoResponse	-1	n/a	n/a	0	31	Blank	Loss	False
305.021	1.45	Lose2	0.5312	n/a	No	2.827	n/a	5.0	NoResponse	-1	0.029	304.05	0	31	Feedback	Loss	False
306.47	2.827	Lose2	0.5312	n/a	No	2.827	n/a	n/a	NoResponse	-1	0.0	n/a	0	31	ISIslide	Loss	False
309.319	0.25	Lose2	0.5152	0.001	No	2.631	0.019	n/a	LatePress	-1	n/a	n/a	-1	32	Cue	Loss	True
309.569	4.15	Lose2	0.5152	0.0	No	2.631	0.0	n/a	LatePress	-1	n/a	n/a	-1	32	Fixation	Loss	True
313.718	0.24	Lose2	0.5152	0.001	No	2.631	-0.001	4.0	LatePress	-1	0.243	312.961	-1	32	Target	Loss	True
313.961	0.3	Lose2	0.5152	0.001	No	2.631	-0.001	4.0	LatePress	-1	0.243	n/a	-1	32	ButtonPress	Loss	True
313.968	0.46	Lose2	0.5152	n/a	No	2.631	n/a	n/a	LatePress	-1	n/a	n/a	-1	32	Blank	Loss	True
314.418	1.45	Lose2	0.5152	n/a	No	2.631	n/a	5.0	LatePress	-1	0.046	313.464	-1	32	Feedback	Loss	True
315.867	2.631	Lose2	0.5152	n/a	No	2.631	n/a	n/a	LatePress	-1	0.0	n/a	-1	32	ISIslide	Loss	True
318.516	0.25	Win2	0.5294	0.0	Yes	2.684	0.016	n/a	GoodResponse	1	n/a	n/a	0	33	Cue	Win	True
318.766	4.0	Win2	0.5294	0.0	Yes	2.684	0.0	n/a	GoodResponse	1	n/a	n/a	0	33	Fixation	Win	True
322.765	0.25	Win2	0.5294	0.001	Yes	2.684	-0.001	4.0	GoodResponse	1	0.196	321.961	0	33	Target	Win	True
322.961	0.3	Win2	0.5294	0.001	Yes	2.684	-0.001	4.0	GoodResponse	1	0.196	n/a	0	33	ButtonPress	Win	True
323.015	0.45	Win2	0.5294	n/a	Yes	2.684	n/a	n/a	GoodResponse	1	n/a	n/a	0	33	Blank	Win	True
323.465	1.45	Win2	0.5294	n/a	Yes	2.684	n/a	5.0	GoodResponse	1	0.023	322.488	0	33	Feedback	Win	True
324.914	2.684	Win2	0.5294	n/a	Yes	2.684	n/a	n/a	GoodResponse	1	0.0	n/a	0	33	ISIslide	Win	True
327.63	0.25	Lose2	0.5143	0.0	No	2.62	0.03	n/a	NoResponse	-1	n/a	n/a	-1	34	Cue	Loss	False
327.88	4.05	Lose2	0.5143	0.0	No	2.62	0.0	4.0	NoResponse	-1	4.027	330.907	-1	34	Fixation	Loss	False
331.907	0.3	Lose2	0.5143	0.0	No	2.62	0.0	4.0	NoResponse	-1	4.027	n/a	-1	34	ButtonPress	Loss	False
331.928	0.26	Lose2	0.5143	0.002	No	2.62	-0.002	4.0	NoResponse	-1	0.299	331.227	-1	34	Target	Loss	False
332.195	0.44	Lose2	0.5143	n/a	No	2.62	n/a	n/a	NoResponse	-1	n/a	n/a	-1	34	Blank	Loss	False
332.227	0.3	Lose2	0.5143	0.002	No	2.62	-0.002	4.0	NoResponse	-1	0.299	n/a	-1	34	ButtonPress	Loss	False
332.628	1.45	Lose2	0.5143	n/a	No	2.62	n/a	5.0	NoResponse	-1	0.031	331.659	-1	34	Feedback	Loss	False
334.077	2.62	Lose2	0.5143	n/a	No	2.62	n/a	n/a	NoResponse	-1	0.0	n/a	-1	34	ISIslide	Loss	False
336.727	0.25	Lose2	0.5278	0.0	Yes	2.673	0.027	n/a	GoodResponse	0	n/a	n/a	-1	35	Cue	AvoidedLoss	True
336.976	4.0	Lose2	0.5278	0.001	Yes	2.673	-0.001	n/a	GoodResponse	0	n/a	n/a	-1	35	Fixation	AvoidedLoss	True
340.975	0.27	Lose2	0.5278	0.002	Yes	2.673	-0.002	4.0	GoodResponse	0	0.246	340.221	-1	35	Target	AvoidedLoss	True
341.221	0.3	Lose2	0.5278	0.002	Yes	2.673	-0.002	4.0	GoodResponse	0	0.246	n/a	-1	35	ButtonPress	AvoidedLoss	True
341.258	0.43	Lose2	0.5278	n/a	Yes	2.673	n/a	n/a	GoodResponse	0	n/a	n/a	-1	35	Blank	AvoidedLoss	True
341.675	1.45	Lose2	0.5278	n/a	Yes	2.673	n/a	5.0	GoodResponse	0	0.008	340.683	-1	35	Feedback	AvoidedLoss	True
343.124	2.673	Lose2	0.5278	n/a	Yes	2.673	n/a	n/a	GoodResponse	0	0.0	n/a	-1	35	ISIslide	AvoidedLoss	True
345.823	0.25	Control	0.5405	0.0	Yes	2.677	0.023	n/a	GoodResponse	0	n/a	n/a	-1	36	Cue	Neutral	True
346.073	4.0	Control	0.5405	0.0	Yes	2.677	0.0	n/a	GoodResponse	0	n/a	n/a	-1	36	Fixation	Neutral	True
350.072	0.28	Control	0.5405	0.001	Yes	2.677	-0.001	4.0	GoodResponse	0	0.243	349.315	-1	36	Target	Neutral	True
350.315	0.3	Control	0.5405	0.001	Yes	2.677	-0.001	4.0	GoodResponse	0	0.243	n/a	-1	36	ButtonPress	Neutral	True
350.355	0.42	Control	0.5405	n/a	Yes	2.677	n/a	n/a	GoodResponse	0	n/a	n/a	-1	36	Blank	Neutral	True
350.772	1.45	Control	0.5405	n/a	Yes	2.677	n/a	5.0	GoodResponse	0	0.033	349.805	-1	36	Feedback	Neutral	True
352.221	2.677	Control	0.5405	n/a	Yes	2.677	n/a	n/a	GoodResponse	0	0.0	n/a	-1	36	ISIslide	Neutral	True
354.92	0.25	Win2	0.5526	0.0	Yes	2.88	0.02	n/a	GoodResponse	1	n/a	n/a	0	37	Cue	Win	True
355.17	4.0	Win2	0.5526	0.0	Yes	2.88	0.0	n/a	GoodResponse	1	n/a	n/a	0	37	Fixation	Win	True
359.169	0.29	Win2	0.5526	0.001	Yes	2.88	-0.001	4.0	GoodResponse	1	0.207	358.376	0	37	Target	Win	True
359.376	0.3	Win2	0.5526	0.001	Yes	2.88	-0.001	4.0	GoodResponse	1	0.207	n/a	0	37	ButtonPress	Win	True
359.469	0.41	Win2	0.5526	n/a	Yes	2.88	n/a	n/a	GoodResponse	1	n/a	n/a	0	37	Blank	Win	True
359.868	1.45	Win2	0.5526	n/a	Yes	2.88	n/a	5.0	GoodResponse	1	0.011	358.879	0	37	Feedback	Win	True
361.318	2.88	Win2	0.5526	n/a	Yes	2.88	n/a	n/a	GoodResponse	1	0.0	n/a	0	37	ISIslide	Win	True
364.217	0.25	Lose2	0.5640999999999999	0.0	Yes	2.833	0.017	n/a	GoodResponse	0	n/a	n/a	0	38	Cue	AvoidedLoss	True
364.467	3.95	Lose2	0.5640999999999999	0.0	Yes	2.833	0.0	n/a	GoodResponse	0	n/a	n/a	0	38	Fixation	AvoidedLoss	True
368.415	0.3	Lose2	0.5640999999999999	0.002	Yes	2.833	-0.002	4.0	GoodResponse	0	0.282	367.697	0	38	Target	AvoidedLoss	True
368.697	0.3	Lose2	0.5640999999999999	0.002	Yes	2.833	-0.002	4.0	GoodResponse	0	0.282	n/a	0	38	ButtonPress	AvoidedLoss	True
368.715	0.4	Lose2	0.5640999999999999	n/a	Yes	2.833	n/a	n/a	GoodResponse	0	n/a	n/a	0	38	Blank	AvoidedLoss	True
369.115	1.45	Lose2	0.5640999999999999	n/a	Yes	2.833	n/a	5.0	GoodResponse	0	0.032	368.147	0	38	Feedback	AvoidedLoss	True
370.565	2.833	Lose2	0.5640999999999999	n/a	Yes	2.833	n/a	n/a	GoodResponse	0	0.0	n/a	0	38	ISIslide	AvoidedLoss	True
373.414	0.25	Win2	0.575	0.0	Yes	2.986	0.014	n/a	GoodResponse	1	n/a	n/a	1	39	Cue	Win	True
373.664	4.1	Win2	0.575	0.0	Yes	2.986	0.0	n/a	GoodResponse	1	n/a	n/a	1	39	Fixation	Win	True
377.762	0.31	Win2	0.575	0.002	Yes	2.986	-0.002	4.0	GoodResponse	1	0.226	376.988	1	39	Target	Win	True
377.988	0.3	Win2	0.575	0.002	Yes	2.986	-0.002	4.0	GoodResponse	1	0.226	n/a	1	39	ButtonPress	Win	True
378.079	0.39	Win2	0.575	n/a	Yes	2.986	n/a	n/a	GoodResponse	1	n/a	n/a	1	39	Blank	Win	True
378.462	1.45	Win2	0.575	n/a	Yes	2.986	n/a	5.0	GoodResponse	1	0.001	377.463	1	39	Feedback	Win	True
379.911	2.986	Win2	0.575	n/a	Yes	2.986	n/a	n/a	GoodResponse	1	0.0	n/a	1	39	ISIslide	Win	True
382.927	0.25	Win2	0.5854	0.0	Yes	2.723	0.027	n/a	GoodResponse	1	n/a	n/a	2	40	Cue	Win	True
383.177	3.95	Win2	0.5854	0.0	Yes	2.723	0.0	n/a	GoodResponse	1	n/a	n/a	2	40	Fixation	Win	True
387.126	0.32	Win2	0.5854	0.001	Yes	2.723	-0.001	4.0	GoodResponse	1	0.284	386.41	2	40	Target	Win	True
387.41	0.3	Win2	0.5854	0.001	Yes	2.723	-0.001	4.0	GoodResponse	1	0.284	n/a	2	40	ButtonPress	Win	True
387.459	0.38	Win2	0.5854	n/a	Yes	2.723	n/a	n/a	GoodResponse	1	n/a	n/a	2	40	Blank	Win	True
387.825	1.45	Win2	0.5854	n/a	Yes	2.723	n/a	5.0	GoodResponse	1	0.007	386.832	2	40	Feedback	Win	True
389.275	2.723	Win2	0.5854	n/a	Yes	2.723	n/a	n/a	GoodResponse	1	0.0	n/a	2	40	ISIslide	Win	True
392.024	0.25	Win2	0.5952000000000001	0.0	Yes	2.776	0.024	n/a	GoodResponse	1	n/a	n/a	3	41	Cue	Win	True
392.274	3.9	Win2	0.5952000000000001	0.0	Yes	2.776	0.0	n/a	GoodResponse	1	n/a	n/a	3	41	Fixation	Win	True
396.172	0.33	Win2	0.5952000000000001	0.002	Yes	2.776	-0.002	4.0	GoodResponse	1	0.222	395.394	3	41	Target	Win	True
396.394	0.3	Win2	0.5952000000000001	0.002	Yes	2.776	-0.002	4.0	GoodResponse	1	0.222	n/a	3	41	ButtonPress	Win	True
396.506	0.37	Win2	0.5952000000000001	n/a	Yes	2.776	n/a	n/a	GoodResponse	1	n/a	n/a	3	41	Blank	Win	True
396.872	1.45	Win2	0.5952000000000001	n/a	Yes	2.776	n/a	5.0	GoodResponse	1	0.03	395.902	3	41	Feedback	Win	True
398.322	2.776	Win2	0.5952000000000001	n/a	Yes	2.776	n/a	n/a	GoodResponse	1	0.0	n/a	3	41	ISIslide	Win	True
401.121	0.25	Control	0.6047	0.0	Yes	2.929	0.021	n/a	GoodResponse	0	n/a	n/a	3	42	Cue	Neutral	True
401.371	3.85	Control	0.6047	0.0	Yes	2.929	0.0	n/a	GoodResponse	0	n/a	n/a	3	42	Fixation	Neutral	True
405.219	0.34	Control	0.6047	0.002	Yes	2.929	-0.002	4.0	GoodResponse	0	0.265	404.484	3	42	Target	Neutral	True
405.484	0.3	Control	0.6047	0.002	Yes	2.929	-0.002	4.0	GoodResponse	0	0.265	n/a	3	42	ButtonPress	Neutral	True
405.569	0.36	Control	0.6047	n/a	Yes	2.929	n/a	n/a	GoodResponse	0	n/a	n/a	3	42	Blank	Neutral	True
405.919	1.45	Control	0.6047	n/a	Yes	2.929	n/a	5.0	GoodResponse	0	0.008	404.927	3	42	Feedback	Neutral	True
407.369	2.929	Control	0.6047	n/a	Yes	2.929	n/a	n/a	GoodResponse	0	0.0	n/a	3	42	ISIslide	Neutral	True
410.318	0.25	Win2	0.6136	0.0	Yes	3.182	0.018	n/a	GoodResponse	1	n/a	n/a	4	43	Cue	Win	True
410.567	4.0	Win2	0.6136	0.001	Yes	3.182	-0.001	n/a	GoodResponse	1	n/a	n/a	4	43	Fixation	Win	True
414.566	0.35	Win2	0.6136	0.002	Yes	3.182	-0.002	4.0	GoodResponse	1	0.227	413.793	4	43	Target	Win	True
414.793	0.3	Win2	0.6136	0.002	Yes	3.182	-0.002	4.0	GoodResponse	1	0.227	n/a	4	43	ButtonPress	Win	True
414.916	0.35	Win2	0.6136	n/a	Yes	3.182	n/a	n/a	GoodResponse	1	n/a	n/a	4	43	Blank	Win	True
415.266	1.45	Win2	0.6136	n/a	Yes	3.182	n/a	5.0	GoodResponse	1	0.027	414.293	4	43	Feedback	Win	True
416.715	3.182	Win2	0.6136	n/a	Yes	3.182	n/a	n/a	GoodResponse	1	0.0	n/a	4	43	ISIslide	Win	True
419.914	0.25	Win2	0.6222	0.0	Yes	2.986	0.014	n/a	GoodResponse	1	n/a	n/a	5	44	Cue	Win	True
420.164	4.0	Win2	0.6222	0.0	Yes	2.986	0.0	n/a	GoodResponse	1	n/a	n/a	5	44	Fixation	Win	True
424.163	0.36	Win2	0.6222	0.001	Yes	2.986	-0.001	4.0	GoodResponse	1	0.218	423.381	5	44	Target	Win	True
424.381	0.3	Win2	0.6222	0.001	Yes	2.986	-0.001	4.0	GoodResponse	1	0.218	n/a	5	44	ButtonPress	Win	True
424.529	0.34	Win2	0.6222	n/a	Yes	2.986	n/a	n/a	GoodResponse	1	n/a	n/a	5	44	Blank	Win	True
424.862	1.45	Win2	0.6222	n/a	Yes	2.986	n/a	5.0	GoodResponse	1	0.04	423.902	5	44	Feedback	Win	True
426.312	2.986	Win2	0.6222	n/a	Yes	2.986	n/a	n/a	GoodResponse	1	0.0	n/a	5	44	ISIslide	Win	True
429.328	0.25	Control	0.6087	0.0	No	2.872	0.028	n/a	PrematurePress	0	n/a	n/a	5	45	Cue	Neutral	True
429.578	4.1	Control	0.6087	0.0	No	2.872	0.0	n/a	PrematurePress	0	n/a	n/a	5	45	Fixation	Neutral	True
433.676	0.37	Control	0.6087	0.002	No	2.872	-0.002	4.0	PrematurePress	0	0.061	432.737	5	45	Target	Neutral	True
433.737	0.3	Control	0.6087	0.002	No	2.872	-0.002	4.0	PrematurePress	0	0.061	n/a	5	45	ButtonPress	Neutral	True
434.059	0.33	Control	0.6087	n/a	No	2.872	n/a	n/a	PrematurePress	0	n/a	n/a	5	45	Blank	Neutral	True
434.376	1.45	Control	0.6087	n/a	No	2.872	n/a	5.0	PrematurePress	0	0.038	433.414	5	45	Feedback	Neutral	True
435.825	2.872	Control	0.6087	n/a	No	2.872	n/a	n/a	PrematurePress	0	0.0	n/a	5	45	ISIslide	Neutral	True
438.724	0.25	Lose2	0.617	0.0	Yes	3.376	0.024	n/a	GoodResponse	0	n/a	n/a	5	46	Cue	AvoidedLoss	True
438.974	4.0	Lose2	0.617	0.0	Yes	3.376	0.0	n/a	GoodResponse	0	n/a	n/a	5	46	Fixation	AvoidedLoss	True
442.973	0.38	Lose2	0.617	0.001	Yes	3.376	-0.001	4.0	GoodResponse	0	0.247	442.22	5	46	Target	AvoidedLoss	True
443.22	0.3	Lose2	0.617	0.001	Yes	3.376	-0.001	4.0	GoodResponse	0	0.247	n/a	5	46	ButtonPress	AvoidedLoss	True
443.356	0.32	Lose2	0.617	n/a	Yes	3.376	n/a	n/a	GoodResponse	0	n/a	n/a	5	46	Blank	AvoidedLoss	True
443.673	1.45	Lose2	0.617	n/a	Yes	3.376	n/a	5.0	GoodResponse	0	0.01	442.683	5	46	Feedback	AvoidedLoss	True
445.122	3.376	Lose2	0.617	n/a	Yes	3.376	n/a	n/a	GoodResponse	0	0.0	n/a	5	46	ISIslide	AvoidedLoss	True
448.521	0.25	Lose2	0.6042000000000001	0.0	No	2.679	0.021	n/a	NoResponse	-1	n/a	n/a	4	47	Cue	Loss	True
448.771	4.0	Lose2	0.6042000000000001	0.0	No	2.679	0.0	n/a	NoResponse	-1	n/a	n/a	4	47	Fixation	Loss	True
452.769	0.39	Lose2	0.6042000000000001	0.002	No	2.679	-0.002	4.0	NoResponse	-1	0.428	452.197	4	47	Target	Loss	True
453.169	0.31	Lose2	0.6042000000000001	n/a	No	2.679	n/a	n/a	NoResponse	-1	n/a	n/a	4	47	Blank	Loss	True
453.197	0.3	Lose2	0.6042000000000001	0.002	No	2.679	-0.002	4.0	NoResponse	-1	0.428	n/a	4	47	ButtonPress	Loss	True
453.469	1.45	Lose2	0.6042000000000001	n/a	No	2.679	n/a	5.0	NoResponse	-1	0.019	452.488	4	47	Feedback	Loss	True
454.919	2.679	Lose2	0.6042000000000001	n/a	No	2.679	n/a	n/a	NoResponse	-1	0.0	n/a	4	47	ISIslide	Loss	True
457.618	0.25	Lose2	0.6122	0.0	Yes	3.032	0.018	n/a	GoodResponse	0	n/a	n/a	4	48	Cue	AvoidedLoss	True
457.868	3.95	Lose2	0.6122	0.0	Yes	3.032	0.0	n/a	GoodResponse	0	n/a	n/a	4	48	Fixation	AvoidedLoss	True
461.816	0.4	Lose2	0.6122	0.002	Yes	3.032	-0.002	4.0	GoodResponse	0	0.322	461.138	4	48	Target	AvoidedLoss	True
462.138	0.3	Lose2	0.6122	0.002	Yes	3.032	-0.002	4.0	GoodResponse	0	0.322	n/a	4	48	ButtonPress	AvoidedLoss	True
462.216	0.3	Lose2	0.6122	n/a	Yes	3.032	n/a	n/a	GoodResponse	0	n/a	n/a	4	48	Blank	AvoidedLoss	True
462.516	1.45	Lose2	0.6122	n/a	Yes	3.032	n/a	5.0	GoodResponse	0	0.045	461.561	4	48	Feedback	AvoidedLoss	True
463.966	3.032	Lose2	0.6122	n/a	Yes	3.032	n/a	n/a	GoodResponse	0	0.0	n/a	4	48	ISIslide	AvoidedLoss	True
467.014	0.25	Control	0.62	0.001	Yes	2.886	0.014	n/a	GoodResponse	0	n/a	n/a	4	49	Cue	Neutral	True
467.264	4.0	Control	0.62	0.0	Yes	2.886	0.0	n/a	GoodResponse	0	n/a	n/a	4	49	Fixation	Neutral	True
471.263	0.41	Control	0.62	0.001	Yes	2.886	-0.001	4.0	GoodResponse	0	0.29	470.553	4	49	Target	Neutral	True
471.553	0.3	Control	0.62	0.001	Yes	2.886	-0.001	4.0	GoodResponse	0	0.29	n/a	4	49	ButtonPress	Neutral	True
471.679	0.29	Control	0.62	n/a	Yes	2.886	n/a	n/a	GoodResponse	0	n/a	n/a	4	49	Blank	Neutral	True
471.963	1.45	Control	0.62	n/a	Yes	2.886	n/a	5.0	GoodResponse	0	0.012	470.975	4	49	Feedback	Neutral	True
473.412	2.886	Control	0.62	n/a	Yes	2.886	n/a	n/a	GoodResponse	0	0.0	n/a	4	49	ISIslide	Neutral	True
476.328	0.25	Control	0.6275	0.0	Yes	2.772	0.028	n/a	GoodResponse	0	n/a	n/a	4	50	Cue	Neutral	False
476.578	4.0	Control	0.6275	0.0	Yes	2.772	0.0	4.0	GoodResponse	0	0.178	475.756	4	50	Fixation	Neutral	False
476.756	0.3	Control	0.6275	0.0	Yes	2.772	0.0	4.0	GoodResponse	0	0.178	n/a	4	50	ButtonPress	Neutral	False
480.576	0.42	Control	0.6275	0.002	Yes	2.772	-0.002	4.0	GoodResponse	0	0.253	479.829	4	50	Target	Neutral	False
480.829	0.3	Control	0.6275	0.002	Yes	2.772	-0.002	4.0	GoodResponse	0	0.253	n/a	4	50	ButtonPress	Neutral	False
481.01	0.28	Control	0.6275	n/a	Yes	2.772	n/a	n/a	GoodResponse	0	n/a	n/a	4	50	Blank	Neutral	False
481.276	1.45	Control	0.6275	n/a	Yes	2.772	n/a	5.0	GoodResponse	0	0.016	480.292	4	50	Feedback	Neutral	False
482.726	2.772	Control	0.6275	n/a	Yes	2.772	n/a	n/a	GoodResponse	0	0.0	n/a	4	50	ISIslide	Neutral	False
485.525	0.25	Control	0.6154	0.0	No	2.725	0.025	n/a	NoResponse	0	n/a	n/a	4	51	Cue	Neutral	False
485.775	3.95	Control	0.6154	0.0	No	2.725	0.0	n/a	NoResponse	0	n/a	n/a	4	51	Fixation	Neutral	False
489.723	0.43	Control	0.6154	0.002	No	2.725	-0.002	n/a	NoResponse	0	n/a	n/a	4	51	Target	Neutral	False
490.156	0.27	Control	0.6154	n/a	No	2.725	n/a	n/a	NoResponse	0	n/a	n/a	4	51	Blank	Neutral	False
490.423	1.45	Control	0.6154	n/a	No	2.725	n/a	5.0	NoResponse	0	0.04	489.463	4	51	Feedback	Neutral	False
491.872	2.725	Control	0.6154	n/a	No	2.725	n/a	n/a	NoResponse	0	0.0	n/a	4	51	ISIslide	Neutral	False
494.621	0.25	Control	0.6225999999999999	0.001	Yes	2.629	0.021	n/a	GoodResponse	0	n/a	n/a	4	52	Cue	Neutral	True
494.871	4.05	Control	0.6225999999999999	0.0	Yes	2.629	0.0	n/a	GoodResponse	0	n/a	n/a	4	52	Fixation	Neutral	True
498.92	0.44	Control	0.6225999999999999	0.001	Yes	2.629	-0.001	4.0	GoodResponse	0	0.279	498.199	4	52	Target	Neutral	True
499.199	0.3	Control	0.6225999999999999	0.001	Yes	2.629	-0.001	4.0	GoodResponse	0	0.279	n/a	4	52	ButtonPress	Neutral	True
499.37	0.26	Control	0.6225999999999999	n/a	Yes	2.629	n/a	n/a	GoodResponse	0	n/a	n/a	4	52	Blank	Neutral	True
499.62	1.45	Control	0.6225999999999999	n/a	Yes	2.629	n/a	5.0	GoodResponse	0	0.013	498.633	4	52	Feedback	Neutral	True
501.069	2.629	Control	0.6225999999999999	n/a	Yes	2.629	n/a	n/a	GoodResponse	0	0.0	n/a	4	52	ISIslide	Neutral	True
503.718	0.25	Win2	0.6111	0.0	No	2.932	0.018	n/a	NoResponse	0	n/a	n/a	4	53	Cue	MissedWin	False
503.968	4.05	Win2	0.6111	0.0	No	2.932	0.0	n/a	NoResponse	0	n/a	n/a	4	53	Fixation	MissedWin	False
508.017	0.45	Win2	0.6111	0.001	No	2.932	-0.001	n/a	NoResponse	0	n/a	n/a	4	53	Target	MissedWin	False
508.467	0.25	Win2	0.6111	n/a	No	2.932	n/a	n/a	NoResponse	0	n/a	n/a	4	53	Blank	MissedWin	False
508.717	1.45	Win2	0.6111	n/a	No	2.932	n/a	5.0	NoResponse	0	0.039	507.756	4	53	Feedback	MissedWin	False
510.166	2.932	Win2	0.6111	n/a	No	2.932	n/a	n/a	NoResponse	0	0.0	n/a	4	53	ISIslide	MissedWin	False
513.132	0.25	Win2	0.6182	0.0	Yes	2.718	0.032	n/a	GoodResponse	1	n/a	n/a	5	54	Cue	Win	True
513.382	3.95	Win2	0.6182	0.0	Yes	2.718	0.0	n/a	GoodResponse	1	n/a	n/a	5	54	Fixation	Win	True
517.33	0.46	Win2	0.6182	0.002	Yes	2.718	-0.002	4.0	GoodResponse	1	0.263	516.593	5	54	Target	Win	True
517.593	0.3	Win2	0.6182	0.002	Yes	2.718	-0.002	4.0	GoodResponse	1	0.263	n/a	5	54	ButtonPress	Win	True
517.797	0.24	Win2	0.6182	n/a	Yes	2.718	n/a	n/a	GoodResponse	1	n/a	n/a	5	54	Blank	Win	True
518.03	1.45	Win2	0.6182	n/a	Yes	2.718	n/a	5.0	GoodResponse	1	0.043	517.073	5	54	Feedback	Win	True
519.479	2.718	Win2	0.6182	n/a	Yes	2.718	n/a	n/a	GoodResponse	1	0.0	n/a	5	54	ISIslide	Win	True
522.212	0.25	Control	0.6071	0.0	No	3.038	0.012	n/a	NoResponse	0	n/a	n/a	5	55	Cue	Neutral	False
522.462	3.95	Control	0.6071	0.0	No	3.038	0.0	n/a	NoResponse	0	n/a	n/a	5	55	Fixation	Neutral	False
526.41	0.47	Control	0.6071	0.002	No	3.038	-0.002	n/a	NoResponse	0	n/a	n/a	5	55	Target	Neutral	False
526.894	0.23	Control	0.6071	n/a	No	3.038	n/a	n/a	NoResponse	0	n/a	n/a	5	55	Blank	Neutral	False
527.11	1.45	Control	0.6071	n/a	No	3.038	n/a	5.0	NoResponse	0	0.035	526.145	5	55	Feedback	Neutral	False
528.56	3.038	Control	0.6071	n/a	No	3.038	n/a	n/a	NoResponse	0	0.0	n/a	5	55	ISIslide	Neutral	False
531.625	0.25	Control	0.614	0.0	Yes	2.825	0.025	n/a	GoodResponse	0	n/a	n/a	5	56	Cue	Neutral	True
531.875	3.95	Control	0.614	0.0	Yes	2.825	0.0	n/a	GoodResponse	0	n/a	n/a	5	56	Fixation	Neutral	True
535.824	0.48	Control	0.614	0.001	Yes	2.825	-0.001	4.0	GoodResponse	0	0.372	535.196	5	56	Target	Neutral	True
536.196	0.3	Control	0.614	0.001	Yes	2.825	-0.001	4.0	GoodResponse	0	0.372	n/a	5	56	ButtonPress	Neutral	True
536.307	0.22	Control	0.614	n/a	Yes	2.825	n/a	n/a	GoodResponse	0	n/a	n/a	5	56	Blank	Neutral	True
536.524	1.45	Control	0.614	n/a	Yes	2.825	n/a	5.0	GoodResponse	0	0.036	535.56	5	56	Feedback	Neutral	True
537.973	2.825	Control	0.614	n/a	Yes	2.825	n/a	n/a	GoodResponse	0	0.0	n/a	5	56	ISIslide	Neutral	True
540.822	0.25	Control	0.6034	0.0	No	3.478	0.022	n/a	NoResponse	0	n/a	n/a	5	57	Cue	Neutral	False
541.072	4.0	Control	0.6034	0.0	No	3.478	0.0	n/a	NoResponse	0	n/a	n/a	5	57	Fixation	Neutral	False
545.071	0.49	Control	0.6034	0.001	No	3.478	-0.001	n/a	NoResponse	0	n/a	n/a	5	57	Target	Neutral	False
545.57	0.21	Control	0.6034	n/a	No	3.478	n/a	n/a	NoResponse	0	n/a	n/a	5	57	Blank	Neutral	False
545.77	1.45	Control	0.6034	n/a	No	3.478	n/a	5.0	NoResponse	0	0.009	544.779	5	57	Feedback	Neutral	False
547.22	3.478	Control	0.6034	n/a	No	3.478	n/a	n/a	NoResponse	0	0.0	n/a	5	57	ISIslide	Neutral	False
550.719	0.25	Win2	0.5932	0.0	No	2.731	0.019	n/a	NoResponse	0	n/a	n/a	5	58	Cue	MissedWin	False
550.968	4.05	Win2	0.5932	0.001	No	2.731	-0.001	n/a	NoResponse	0	n/a	n/a	5	58	Fixation	MissedWin	False
555.017	0.5	Win2	0.5932	0.002	No	2.731	-0.002	n/a	NoResponse	0	n/a	n/a	5	58	Target	MissedWin	False
555.517	0.2	Win2	0.5932	n/a	No	2.731	n/a	n/a	NoResponse	0	n/a	n/a	5	58	Blank	MissedWin	False
555.717	1.45	Win2	0.5932	n/a	No	2.731	n/a	5.0	NoResponse	0	0.014	554.731	5	58	Feedback	MissedWin	False
557.166	2.731	Win2	0.5932	n/a	No	2.731	n/a	n/a	NoResponse	0	0.0	n/a	5	58	ISIslide	MissedWin	False
559.915	0.25	Lose2	0.5832999999999999	0.0	No	2.685	0.015	n/a	NoResponse	-1	n/a	n/a	4	59	Cue	Loss	False
560.165	4.0	Lose2	0.5832999999999999	0.0	No	2.685	0.0	n/a	NoResponse	-1	n/a	n/a	4	59	Fixation	Loss	False
564.164	0.5	Lose2	0.5832999999999999	0.001	No	2.685	-0.001	n/a	NoResponse	-1	n/a	n/a	4	59	Target	Loss	False
564.664	0.2	Lose2	0.5832999999999999	n/a	No	2.685	n/a	n/a	NoResponse	-1	n/a	n/a	4	59	Blank	Loss	False
564.864	1.45	Lose2	0.5832999999999999	n/a	No	2.685	n/a	5.0	NoResponse	-1	0.038	563.902	4	59	Feedback	Loss	False
566.313	2.685	Lose2	0.5832999999999999	n/a	No	2.685	n/a	n/a	NoResponse	-1	0.0	n/a	4	59	ISIslide	Loss	False
569.012	0.25	Control	0.5902000000000001	0.0	Yes	2.688	0.012	n/a	GoodResponse	0	n/a	n/a	4	60	Cue	Neutral	True
569.262	4.0	Control	0.5902000000000001	0.0	Yes	2.688	0.0	n/a	GoodResponse	0	n/a	n/a	4	60	Fixation	Neutral	True
573.261	0.5	Control	0.5902000000000001	0.001	Yes	2.688	-0.001	4.0	GoodResponse	0	0.255	572.516	4	60	Target	Neutral	True
573.516	0.3	Control	0.5902000000000001	0.001	Yes	2.688	-0.001	4.0	GoodResponse	0	0.255	n/a	4	60	ButtonPress	Neutral	True
573.761	0.2	Control	0.5902000000000001	n/a	Yes	2.688	n/a	n/a	GoodResponse	0	n/a	n/a	4	60	Blank	Neutral	True
573.96	1.45	Control	0.5902000000000001	n/a	Yes	2.688	n/a	5.0	GoodResponse	0	0.014	572.974	4	60	Feedback	Neutral	True
575.41	2.688	Control	0.5902000000000001	n/a	Yes	2.688	n/a	n/a	GoodResponse	0	0.0	n/a	4	60	ISIslide	Neutral	True
578.126	0.25	Lose2	0.5968	0.0	Yes	2.974	0.026	n/a	GoodResponse	0	n/a	n/a	4	61	Cue	AvoidedLoss	True
578.376	4.0	Lose2	0.5968	0.0	Yes	2.974	0.0	n/a	GoodResponse	0	n/a	n/a	4	61	Fixation	AvoidedLoss	True
582.374	0.5	Lose2	0.5968	0.002	Yes	2.974	-0.002	4.0	GoodResponse	0	0.232	581.606	4	61	Target	AvoidedLoss	True
582.606	0.3	Lose2	0.5968	0.002	Yes	2.974	-0.002	4.0	GoodResponse	0	0.232	n/a	4	61	ButtonPress	AvoidedLoss	True
582.874	0.2	Lose2	0.5968	n/a	Yes	2.974	n/a	n/a	GoodResponse	0	n/a	n/a	4	61	Blank	AvoidedLoss	True
583.074	1.45	Lose2	0.5968	n/a	Yes	2.974	n/a	5.0	GoodResponse	0	0.022	582.096	4	61	Feedback	AvoidedLoss	True
584.523	2.974	Lose2	0.5968	n/a	Yes	2.974	n/a	n/a	GoodResponse	0	0.0	n/a	4	61	ISIslide	AvoidedLoss	True
587.522	0.25	Lose2	0.6032	0.0	Yes	2.878	0.022	n/a	GoodResponse	0	n/a	n/a	4	62	Cue	AvoidedLoss	False
587.772	3.9	Lose2	0.6032	0.0	Yes	2.878	0.0	4.0	GoodResponse	0	3.687	590.459	4	62	Fixation	AvoidedLoss	False
591.459	0.3	Lose2	0.6032	0.0	Yes	2.878	0.0	4.0	GoodResponse	0	3.687	n/a	4	62	ButtonPress	AvoidedLoss	False
591.671	0.5	Lose2	0.6032	0.001	Yes	2.878	-0.001	4.0	GoodResponse	0	0.215	590.886	4	62	Target	AvoidedLoss	False
591.886	0.3	Lose2	0.6032	0.001	Yes	2.878	-0.001	4.0	GoodResponse	0	0.215	n/a	4	62	ButtonPress	AvoidedLoss	False
592.171	0.2	Lose2	0.6032	n/a	Yes	2.878	n/a	n/a	GoodResponse	0	n/a	n/a	4	62	Blank	AvoidedLoss	False
592.371	1.45	Lose2	0.6032	n/a	Yes	2.878	n/a	5.0	GoodResponse	0	0.042	591.413	4	62	Feedback	AvoidedLoss	False
593.82	2.878	Lose2	0.6032	n/a	Yes	2.878	n/a	n/a	GoodResponse	0	0.0	n/a	4	62	ISIslide	AvoidedLoss	False
596.719	0.25	Lose2	0.5938	0.0	No	2.631	0.019	n/a	NoResponse	-1	n/a	n/a	3	63	Cue	Loss	False
596.969	4.05	Lose2	0.5938	0.0	No	2.631	0.0	n/a	NoResponse	-1	n/a	n/a	3	63	Fixation	Loss	False
601.018	0.5	Lose2	0.5938	0.001	No	2.631	-0.001	n/a	NoResponse	-1	n/a	n/a	3	63	Target	Loss	False
601.518	0.2	Lose2	0.5938	n/a	No	2.631	n/a	n/a	NoResponse	-1	n/a	n/a	3	63	Blank	Loss	False
601.717	1.45	Lose2	0.5938	n/a	No	2.631	n/a	5.0	NoResponse	-1	0.013	600.73	3	63	Feedback	Loss	False
603.167	2.631	Lose2	0.5938	n/a	No	2.631	n/a	n/a	NoResponse	-1	0.0	n/a	3	63	ISIslide	Loss	False
605.816	0.25	Win2	0.6	0.0	Yes	3.134	0.016	n/a	GoodResponse	1	n/a	n/a	4	64	Cue	Win	True
606.066	4.15	Win2	0.6	0.0	Yes	3.134	0.0	n/a	GoodResponse	1	n/a	n/a	4	64	Fixation	Win	True
610.214	0.5	Win2	0.6	0.002	Yes	3.134	-0.002	4.0	GoodResponse	1	0.412	609.626	4	64	Target	Win	True
610.626	0.3	Win2	0.6	0.002	Yes	3.134	-0.002	4.0	GoodResponse	1	0.412	n/a	4	64	ButtonPress	Win	True
610.714	0.2	Win2	0.6	n/a	Yes	3.134	n/a	n/a	GoodResponse	1	n/a	n/a	4	64	Blank	Win	True
610.914	1.45	Win2	0.6	n/a	Yes	3.134	n/a	5.0	GoodResponse	1	0.036	609.95	4	64	Feedback	Win	True
612.364	3.134	Win2	0.6	n/a	Yes	3.134	n/a	n/a	GoodResponse	1	0.0	n/a	4	64	ISIslide	Win	True
615.513	0.25	Control	0.5909	0.0	No	2.787	0.013	n/a	NoResponse	0	n/a	n/a	4	65	Cue	Neutral	False
615.763	4.0	Control	0.5909	0.0	No	2.787	0.0	n/a	NoResponse	0	n/a	n/a	4	65	Fixation	Neutral	False
619.761	0.5	Control	0.5909	0.002	No	2.787	-0.002	n/a	NoResponse	0	n/a	n/a	4	65	Target	Neutral	False
620.261	0.2	Control	0.5909	n/a	No	2.787	n/a	n/a	NoResponse	0	n/a	n/a	4	65	Blank	Neutral	False
620.461	1.45	Control	0.5909	n/a	No	2.787	n/a	5.0	NoResponse	0	0.001	619.462	4	65	Feedback	Neutral	False
621.91	2.787	Control	0.5909	n/a	No	2.787	n/a	n/a	NoResponse	0	0.0	n/a	4	65	ISIslide	Neutral	False
624.726	0.25	Win2	0.597	0.0	Yes	2.774	0.026	n/a	GoodResponse	1	n/a	n/a	5	66	Cue	Win	True
624.976	3.9	Win2	0.597	0.0	Yes	2.774	0.0	n/a	GoodResponse	1	n/a	n/a	5	66	Fixation	Win	True
628.875	0.5	Win2	0.597	0.001	Yes	2.774	-0.001	4.0	GoodResponse	1	0.237	628.112	5	66	Target	Win	True
629.112	0.3	Win2	0.597	0.001	Yes	2.774	-0.001	4.0	GoodResponse	1	0.237	n/a	5	66	ButtonPress	Win	True
629.374	0.2	Win2	0.597	n/a	Yes	2.774	n/a	n/a	GoodResponse	1	n/a	n/a	5	66	Blank	Win	True
629.574	1.45	Win2	0.597	n/a	Yes	2.774	n/a	5.0	GoodResponse	1	0.009	628.583	5	66	Feedback	Win	True
631.024	2.774	Win2	0.597	n/a	Yes	2.774	n/a	n/a	GoodResponse	1	0.0	n/a	5	66	ISIslide	Win	True
633.823	0.25	Control	0.5882000000000001	0.0	No	2.727	0.023	n/a	NoResponse	0	n/a	n/a	5	67	Cue	Neutral	False
634.073	3.95	Control	0.5882000000000001	0.0	No	2.727	0.0	n/a	NoResponse	0	n/a	n/a	5	67	Fixation	Neutral	False
638.021	0.5	Control	0.5882000000000001	0.002	No	2.727	-0.002	n/a	NoResponse	0	n/a	n/a	5	67	Target	Neutral	False
638.521	0.2	Control	0.5882000000000001	n/a	No	2.727	n/a	n/a	NoResponse	0	n/a	n/a	5	67	Blank	Neutral	False
638.721	1.45	Control	0.5882000000000001	n/a	No	2.727	n/a	5.0	NoResponse	0	0.033	637.754	5	67	Feedback	Neutral	False
640.171	2.727	Control	0.5882000000000001	n/a	No	2.727	n/a	n/a	NoResponse	0	0.0	n/a	5	67	ISIslide	Neutral	False
642.92	0.25	Win2	0.5797	0.0	No	3.08	0.02	n/a	NoResponse	0	n/a	n/a	5	68	Cue	MissedWin	False
643.17	4.0	Win2	0.5797	0.0	No	3.08	0.0	n/a	NoResponse	0	n/a	n/a	5	68	Fixation	MissedWin	False
647.168	0.5	Win2	0.5797	0.002	No	3.08	-0.002	n/a	NoResponse	0	n/a	n/a	5	68	Target	MissedWin	False
647.668	0.2	Win2	0.5797	n/a	No	3.08	n/a	n/a	NoResponse	0	n/a	n/a	5	68	Blank	MissedWin	False
647.868	1.45	Win2	0.5797	n/a	No	3.08	n/a	5.0	NoResponse	0	0.008	646.876	5	68	Feedback	MissedWin	False
649.318	3.08	Win2	0.5797	n/a	No	3.08	n/a	n/a	NoResponse	0	0.0	n/a	5	68	ISIslide	MissedWin	False
652.416	0.25	Win2	0.5714	0.001	No	3.234	0.016	n/a	NoResponse	0	n/a	n/a	5	69	Cue	MissedWin	False
652.666	3.95	Win2	0.5714	0.0	No	3.234	0.0	n/a	NoResponse	0	n/a	n/a	5	69	Fixation	MissedWin	False
656.615	0.5	Win2	0.5714	0.001	No	3.234	-0.001	n/a	NoResponse	0	n/a	n/a	5	69	Target	MissedWin	False
657.115	0.2	Win2	0.5714	n/a	No	3.234	n/a	n/a	NoResponse	0	n/a	n/a	5	69	Blank	MissedWin	False
657.315	1.45	Win2	0.5714	n/a	No	3.234	n/a	5.0	NoResponse	0	0.025	656.34	5	69	Feedback	MissedWin	False
658.764	3.234	Win2	0.5714	n/a	No	3.234	n/a	n/a	NoResponse	0	0.0	n/a	5	69	ISIslide	MissedWin	False
662.03	0.25	Lose2	0.5634	0.0	No	3.02	0.03	n/a	NoResponse	-1	n/a	n/a	4	70	Cue	Loss	False
662.28	4.05	Lose2	0.5634	0.0	No	3.02	0.0	n/a	NoResponse	-1	n/a	n/a	4	70	Fixation	Loss	False
666.328	0.5	Lose2	0.5634	0.002	No	3.02	-0.002	n/a	NoResponse	-1	n/a	n/a	4	70	Target	Loss	False
666.828	0.2	Lose2	0.5634	n/a	No	3.02	n/a	n/a	NoResponse	-1	n/a	n/a	4	70	Blank	Loss	False
667.028	1.45	Lose2	0.5634	n/a	No	3.02	n/a	5.0	NoResponse	-1	0.019	666.047	4	70	Feedback	Loss	False
668.477	3.02	Lose2	0.5634	n/a	No	3.02	n/a	n/a	NoResponse	-1	0.0	n/a	4	70	ISIslide	Loss	False
671.526	0.25	Win2	0.5694	0.0	Yes	2.724	0.026	n/a	GoodResponse	1	n/a	n/a	5	71	Cue	Win	False
671.776	4.05	Win2	0.5694	0.0	Yes	2.724	0.0	4.0	GoodResponse	1	0.219	670.995	5	71	Fixation	Win	False
671.995	0.3	Win2	0.5694	0.0	Yes	2.724	0.0	4.0	GoodResponse	1	0.219	n/a	5	71	ButtonPress	Win	False
675.825	0.5	Win2	0.5694	0.001	Yes	2.724	-0.001	4.0	GoodResponse	1	0.235	675.06	5	71	Target	Win	False
676.06	0.3	Win2	0.5694	0.001	Yes	2.724	-0.001	4.0	GoodResponse	1	0.235	n/a	5	71	ButtonPress	Win	False
676.325	0.2	Win2	0.5694	n/a	Yes	2.724	n/a	n/a	GoodResponse	1	n/a	n/a	5	71	Blank	Win	False
676.525	1.45	Win2	0.5694	n/a	Yes	2.724	n/a	5.0	GoodResponse	1	0.034	675.559	5	71	Feedback	Win	False
677.974	2.724	Win2	0.5694	n/a	Yes	2.724	n/a	n/a	GoodResponse	1	0.0	n/a	5	71	ISIslide	Win	False
680.723	0.25	Win2	0.5753	0.0	Yes	2.777	0.023	n/a	GoodResponse	1	n/a	n/a	6	72	Cue	Win	True
680.973	4.1	Win2	0.5753	0.0	Yes	2.777	0.0	n/a	GoodResponse	1	n/a	n/a	6	72	Fixation	Win	True
685.072	0.5	Win2	0.5753	0.001	Yes	2.777	-0.001	4.0	GoodResponse	1	0.223	684.295	6	72	Target	Win	True
685.295	0.3	Win2	0.5753	0.001	Yes	2.777	-0.001	4.0	GoodResponse	1	0.223	n/a	6	72	ButtonPress	Win	True
685.572	0.2	Win2	0.5753	n/a	Yes	2.777	n/a	n/a	GoodResponse	1	n/a	n/a	6	72	Blank	Win	True
685.771	1.45	Win2	0.5753	n/a	Yes	2.777	n/a	5.0	GoodResponse	1	0.008	684.779	6	72	Feedback	Win	True
687.221	2.777	Win2	0.5753	n/a	Yes	2.777	n/a	n/a	GoodResponse	1	0.0	n/a	6	72	ISIslide	Win	True
690.02	0.25	Win2	0.5676	0.0	No	2.68	0.02	n/a	NoResponse	0	n/a	n/a	6	73	Cue	MissedWin	False
690.27	4.0	Win2	0.5676	0.0	No	2.68	0.0	n/a	NoResponse	0	n/a	n/a	6	73	Fixation	MissedWin	False
694.268	0.5	Win2	0.5676	0.002	No	2.68	-0.002	n/a	NoResponse	0	n/a	n/a	6	73	Target	MissedWin	False
694.768	0.2	Win2	0.5676	n/a	No	2.68	n/a	n/a	NoResponse	0	n/a	n/a	6	73	Blank	MissedWin	False
694.968	1.45	Win2	0.5676	n/a	No	2.68	n/a	5.0	NoResponse	0	0.03	693.998	6	73	Feedback	MissedWin	False
696.418	2.68	Win2	0.5676	n/a	No	2.68	n/a	n/a	NoResponse	0	0.0	n/a	6	73	ISIslide	MissedWin	False
699.117	0.25	Lose2	0.56	0.0	No	2.633	0.017	n/a	NoResponse	-1	n/a	n/a	5	74	Cue	Loss	False
699.367	4.05	Lose2	0.56	0.0	No	2.633	0.0	n/a	NoResponse	-1	n/a	n/a	5	74	Fixation	Loss	False
703.415	0.5	Lose2	0.56	0.002	No	2.633	-0.002	n/a	NoResponse	-1	n/a	n/a	5	74	Target	Loss	False
703.915	0.2	Lose2	0.56	n/a	No	2.633	n/a	n/a	NoResponse	-1	n/a	n/a	5	74	Blank	Loss	False
704.115	1.45	Lose2	0.56	n/a	No	2.633	n/a	5.0	NoResponse	-1	0.008	703.123	5	74	Feedback	Loss	False
705.565	2.633	Lose2	0.56	n/a	No	2.633	n/a	n/a	NoResponse	-1	0.0	n/a	5	74	ISIslide	Loss	False
708.214	0.25	Lose2	0.5526	0.0	No	2.936	0.014	n/a	NoResponse	-1	n/a	n/a	4	75	Cue	Loss	False
708.464	3.95	Lose2	0.5526	0.0	No	2.936	0.0	n/a	NoResponse	-1	n/a	n/a	4	75	Fixation	Loss	False
712.412	0.5	Lose2	0.5526	0.002	No	2.936	-0.002	n/a	NoResponse	-1	n/a	n/a	4	75	Target	Loss	False
712.912	0.2	Lose2	0.5526	n/a	No	2.936	n/a	n/a	NoResponse	-1	n/a	n/a	4	75	Blank	Loss	False
713.112	1.45	Lose2	0.5526	n/a	No	2.936	n/a	5.0	NoResponse	-1	0.032	712.144	4	75	Feedback	Loss	False
714.561	2.936	Lose2	0.5526	n/a	No	2.936	n/a	n/a	NoResponse	-1	0.0	n/a	4	75	ISIslide	Loss	False
717.527	0.25	Control	0.5584	0.0	Yes	3.223	0.027	n/a	GoodResponse	0	n/a	n/a	4	76	Cue	Neutral	True
717.777	4.05	Control	0.5584	0.0	Yes	3.223	0.0	n/a	GoodResponse	0	n/a	n/a	4	76	Fixation	Neutral	True
721.826	0.5	Control	0.5584	0.001	Yes	3.223	-0.001	4.0	GoodResponse	0	0.291	721.117	4	76	Target	Neutral	True
722.117	0.3	Control	0.5584	0.001	Yes	3.223	-0.001	4.0	GoodResponse	0	0.291	n/a	4	76	ButtonPress	Neutral	True
722.325	0.2	Control	0.5584	n/a	Yes	3.223	n/a	n/a	GoodResponse	0	n/a	n/a	4	76	Blank	Neutral	True
722.525	1.45	Control	0.5584	n/a	Yes	3.223	n/a	5.0	GoodResponse	0	0.033	721.558	4	76	Feedback	Neutral	True
723.975	3.223	Control	0.5584	n/a	Yes	3.223	n/a	n/a	GoodResponse	0	0.0	n/a	4	76	ISIslide	Neutral	True
727.224	0.25	Lose2	0.5640999999999999	0.0	Yes	2.576	0.024	n/a	GoodResponse	0	n/a	n/a	4	77	Cue	AvoidedLoss	True
727.474	3.95	Lose2	0.5640999999999999	0.0	Yes	2.576	0.0	n/a	GoodResponse	0	n/a	n/a	4	77	Fixation	AvoidedLoss	True
731.422	0.5	Lose2	0.5640999999999999	0.002	Yes	2.576	-0.002	4.0	GoodResponse	0	0.259	730.681	4	77	Target	AvoidedLoss	True
731.681	0.3	Lose2	0.5640999999999999	0.002	Yes	2.576	-0.002	4.0	GoodResponse	0	0.259	n/a	4	77	ButtonPress	AvoidedLoss	True
731.922	0.2	Lose2	0.5640999999999999	n/a	Yes	2.576	n/a	n/a	GoodResponse	0	n/a	n/a	4	77	Blank	AvoidedLoss	True
732.122	1.45	Lose2	0.5640999999999999	n/a	Yes	2.576	n/a	5.0	GoodResponse	0	0.046	731.168	4	77	Feedback	AvoidedLoss	True
733.571	2.576	Lose2	0.5640999999999999	n/a	Yes	2.576	n/a	n/a	GoodResponse	0	0.0	n/a	4	77	ISIslide	AvoidedLoss	True
