onset	duration	cue_type	current_mean_accuracy	duration_error	is_hit	isi_adjusted	onset_delay	response	response_type	reward	rt	rt_time	total_reward	trial_number	trial_phase	trial_type	one_press
11.1	0.25	Control	1.0	0.0	Yes	2.95	0.0	n/a	GoodResponse	0	n/a	n/a	0	0	Cue	Neutral	True
11.351	3.85	Control	1.0	0.0	Yes	2.95	0.001	n/a	GoodResponse	0	n/a	n/a	0	0	Fixation	Neutral	True
15.196	0.4	Control	1.0	0.004	Yes	2.95	-0.004	4.0	GoodResponse	0	0.218	14.414	0	0	Target	Neutral	True
15.414	0.3	Control	1.0	0.004	Yes	2.95	-0.004	4.0	GoodResponse	0	0.218	n/a	0	0	ButtonPress	Neutral	True
15.597	0.3	Control	1.0	n/a	Yes	2.95	n/a	n/a	GoodResponse	0	n/a	n/a	0	0	Blank	Neutral	True
15.898	1.45	Control	1.0	n/a	Yes	2.95	n/a	5.0	GoodResponse	0	0.029	14.927	0	0	Feedback	Neutral	True
17.352	2.95	Control	1.0	n/a	Yes	2.95	n/a	n/a	GoodResponse	0	0.0	n/a	0	0	ISIslide	Neutral	True
20.328	0.25	Lose2	1.0	0.0	Yes	2.772	0.028	n/a	GoodResponse	0	n/a	n/a	0	1	Cue	AvoidedLoss	True
20.578	4.0	Lose2	1.0	0.0	Yes	2.772	0.0	n/a	GoodResponse	0	n/a	n/a	0	1	Fixation	AvoidedLoss	True
24.574	0.39	Lose2	1.0	0.004	Yes	2.772	-0.004	4.0	GoodResponse	0	0.202	23.776	0	1	Target	AvoidedLoss	True
24.776	0.3	Lose2	1.0	0.004	Yes	2.772	-0.004	4.0	GoodResponse	0	0.202	n/a	0	1	ButtonPress	AvoidedLoss	True
24.975	0.31	Lose2	1.0	n/a	Yes	2.772	n/a	n/a	GoodResponse	0	n/a	n/a	0	1	Blank	AvoidedLoss	True
25.276	1.45	Lose2	1.0	n/a	Yes	2.772	n/a	5.0	GoodResponse	0	0.016	24.292	0	1	Feedback	AvoidedLoss	True
26.73	2.772	Lose2	1.0	n/a	Yes	2.772	n/a	n/a	GoodResponse	0	0.0	n/a	0	1	ISIslide	AvoidedLoss	True
29.522	0.25	Control	1.0	0.0	Yes	2.578	0.022	n/a	GoodResponse	0	n/a	n/a	0	2	Cue	Neutral	True
29.773	4.1	Control	1.0	0.0	Yes	2.578	0.001	n/a	GoodResponse	0	n/a	n/a	0	2	Fixation	Neutral	True
33.868	0.38	Control	1.0	0.004	Yes	2.578	-0.004	4.0	GoodResponse	0	0.221	33.089	0	2	Target	Neutral	True
34.089	0.3	Control	1.0	0.004	Yes	2.578	-0.004	4.0	GoodResponse	0	0.221	n/a	0	2	ButtonPress	Neutral	True
34.253	0.32	Control	1.0	n/a	Yes	2.578	n/a	n/a	GoodResponse	0	n/a	n/a	0	2	Blank	Neutral	True
34.57	1.45	Control	1.0	n/a	Yes	2.578	n/a	5.0	GoodResponse	0	0.039	33.609	0	2	Feedback	Neutral	True
36.025	2.578	Control	1.0	n/a	Yes	2.578	n/a	n/a	GoodResponse	0	0.0	n/a	0	2	ISIslide	Neutral	True
38.616	0.25	Win2	1.0	0.0	Yes	2.834	0.016	n/a	GoodResponse	1	n/a	n/a	1	3	Cue	Win	False
38.866	3.95	Win2	1.0	0.0	Yes	2.834	0.0	4.0	GoodResponse	1	3.142	41.008	1	3	Fixation	Win	False
42.008	0.3	Win2	1.0	0.0	Yes	2.834	0.0	4.0	GoodResponse	1	3.142	n/a	1	3	ButtonPress	Win	False
42.812	0.37	Win2	1.0	0.004	Yes	2.834	-0.004	4.0	GoodResponse	1	0.291	42.103	1	3	Target	Win	False
43.103	0.3	Win2	1.0	0.004	Yes	2.834	-0.004	4.0	GoodResponse	1	0.291	n/a	1	3	ButtonPress	Win	False
43.196	0.33	Win2	1.0	n/a	Yes	2.834	n/a	n/a	GoodResponse	1	n/a	n/a	1	3	Blank	Win	False
43.514	1.45	Win2	1.0	n/a	Yes	2.834	n/a	5.0	GoodResponse	1	0.022	42.536	1	3	Feedback	Win	False
44.968	2.834	Win2	1.0	n/a	Yes	2.834	n/a	n/a	GoodResponse	1	0.0	n/a	1	3	ISIslide	Win	False
47.827	0.25	Win2	1.0	0.0	Yes	3.273	0.027	n/a	GoodResponse	1	n/a	n/a	2	4	Cue	Win	True
48.077	4.0	Win2	1.0	0.0	Yes	3.273	0.0	n/a	GoodResponse	1	n/a	n/a	2	4	Fixation	Win	True
52.073	0.36	Win2	1.0	0.004	Yes	3.273	-0.004	4.0	GoodResponse	1	0.278	51.351	2	4	Target	Win	True
52.351	0.3	Win2	1.0	0.004	Yes	3.273	-0.004	4.0	GoodResponse	1	0.278	n/a	2	4	ButtonPress	Win	True
52.44	0.34	Win2	1.0	n/a	Yes	3.273	n/a	n/a	GoodResponse	1	n/a	n/a	2	4	Blank	Win	True
52.775	1.45	Win2	1.0	n/a	Yes	3.273	n/a	5.0	GoodResponse	1	0.03	51.805	2	4	Feedback	Win	True
54.229	3.273	Win2	1.0	n/a	Yes	3.273	n/a	n/a	GoodResponse	1	0.0	n/a	2	4	ISIslide	Win	True
57.522	0.25	Win2	1.0	0.0	Yes	2.778	0.022	n/a	GoodResponse	1	n/a	n/a	3	5	Cue	Win	True
57.773	4.0	Win2	1.0	0.0	Yes	2.778	0.001	n/a	GoodResponse	1	n/a	n/a	3	5	Fixation	Win	True
61.768	0.35	Win2	1.0	0.004	Yes	2.778	-0.004	4.0	GoodResponse	1	0.245	61.013	3	5	Target	Win	True
62.013	0.3	Win2	1.0	0.004	Yes	2.778	-0.004	4.0	GoodResponse	1	0.245	n/a	3	5	ButtonPress	Win	True
62.119	0.35	Win2	1.0	n/a	Yes	2.778	n/a	n/a	GoodResponse	1	n/a	n/a	3	5	Blank	Win	True
62.47	1.45	Win2	1.0	n/a	Yes	2.778	n/a	5.0	GoodResponse	1	0.042	61.512	3	5	Feedback	Win	True
63.925	2.778	Win2	1.0	n/a	Yes	2.778	n/a	n/a	GoodResponse	1	0.0	n/a	3	5	ISIslide	Win	True
66.716	0.25	Lose2	1.0	0.001	Yes	2.734	0.016	n/a	GoodResponse	0	n/a	n/a	3	6	Cue	AvoidedLoss	True
66.967	3.95	Lose2	1.0	0.0	Yes	2.734	0.001	n/a	GoodResponse	0	n/a	n/a	3	6	Fixation	AvoidedLoss	True
70.912	0.34	Lose2	1.0	0.004	Yes	2.734	-0.004	4.0	GoodResponse	0	0.302	70.214	3	6	Target	AvoidedLoss	True
71.214	0.3	Lose2	1.0	0.004	Yes	2.734	-0.004	4.0	GoodResponse	0	0.302	n/a	3	6	ButtonPress	AvoidedLoss	True
71.263	0.36	Lose2	1.0	n/a	Yes	2.734	n/a	n/a	GoodResponse	0	n/a	n/a	3	6	Blank	AvoidedLoss	True
71.614	1.45	Lose2	1.0	n/a	Yes	2.734	n/a	5.0	GoodResponse	0	0.02	70.634	3	6	Feedback	AvoidedLoss	True
73.069	2.734	Lose2	1.0	n/a	Yes	2.734	n/a	n/a	GoodResponse	0	0.0	n/a	3	6	ISIslide	AvoidedLoss	True
75.827	0.25	Lose2	1.0	0.0	Yes	4.023	0.027	n/a	GoodResponse	0	n/a	n/a	3	7	Cue	AvoidedLoss	True
76.078	4.05	Lose2	1.0	0.0	Yes	4.023	0.001	n/a	GoodResponse	0	n/a	n/a	3	7	Fixation	AvoidedLoss	True
80.123	0.33	Lose2	1.0	0.004	Yes	4.023	-0.004	4.0	GoodResponse	0	0.252	79.375	3	7	Target	AvoidedLoss	True
80.375	0.3	Lose2	1.0	0.004	Yes	4.023	-0.004	4.0	GoodResponse	0	0.252	n/a	3	7	ButtonPress	AvoidedLoss	True
80.458	0.37	Lose2	1.0	n/a	Yes	4.023	n/a	n/a	GoodResponse	0	n/a	n/a	3	7	Blank	AvoidedLoss	True
80.825	1.45	Lose2	1.0	n/a	Yes	4.023	n/a	5.0	GoodResponse	0	0.028	79.853	3	7	Feedback	AvoidedLoss	True
82.28	4.023	Lose2	1.0	n/a	Yes	4.023	n/a	n/a	GoodResponse	0	0.0	n/a	3	7	ISIslide	AvoidedLoss	True
86.325	0.25	Lose2	1.0	0.0	Yes	3.025	0.025	n/a	GoodResponse	0	n/a	n/a	3	8	Cue	AvoidedLoss	True
86.576	3.95	Lose2	1.0	0.0	Yes	3.025	0.001	n/a	GoodResponse	0	n/a	n/a	3	8	Fixation	AvoidedLoss	True
90.521	0.32	Lose2	1.0	0.004	Yes	3.025	-0.004	4.0	GoodResponse	0	0.261	89.782	3	8	Target	AvoidedLoss	True
90.782	0.3	Lose2	1.0	0.004	Yes	3.025	-0.004	4.0	GoodResponse	0	0.261	n/a	3	8	ButtonPress	AvoidedLoss	True
90.855	0.38	Lose2	1.0	n/a	Yes	3.025	n/a	n/a	GoodResponse	0	n/a	n/a	3	8	Blank	AvoidedLoss	True
91.223	1.45	Lose2	1.0	n/a	Yes	3.025	n/a	5.0	GoodResponse	0	0.02	90.243	3	8	Feedback	AvoidedLoss	True
92.677	3.025	Lose2	1.0	n/a	Yes	3.025	n/a	n/a	GoodResponse	0	0.0	n/a	3	8	ISIslide	AvoidedLoss	True
95.72	0.25	Lose2	1.0	0.0	Yes	3.13	0.02	n/a	GoodResponse	0	n/a	n/a	3	9	Cue	AvoidedLoss	True
95.971	3.95	Lose2	1.0	0.0	Yes	3.13	0.001	n/a	GoodResponse	0	n/a	n/a	3	9	Fixation	AvoidedLoss	True
99.916	0.31	Lose2	1.0	0.004	Yes	3.13	-0.004	4.0	GoodResponse	0	0.285	99.201	3	9	Target	AvoidedLoss	True
100.201	0.3	Lose2	1.0	0.004	Yes	3.13	-0.004	4.0	GoodResponse	0	0.285	n/a	3	9	ButtonPress	AvoidedLoss	True
100.233	0.39	Lose2	1.0	n/a	Yes	3.13	n/a	n/a	GoodResponse	0	n/a	n/a	3	9	Blank	AvoidedLoss	True
100.618	1.45	Lose2	1.0	n/a	Yes	3.13	n/a	5.0	GoodResponse	0	0.04	99.658	3	9	Feedback	AvoidedLoss	True
102.072	3.13	Lose2	1.0	n/a	Yes	3.13	n/a	n/a	GoodResponse	0	0.0	n/a	3	9	ISIslide	AvoidedLoss	True
105.215	0.25	Control	1.0	0.0	Yes	3.285	0.015	n/a	GoodResponse	0	n/a	n/a	3	10	Cue	Neutral	True
105.466	4.0	Control	1.0	0.0	Yes	3.285	0.001	n/a	GoodResponse	0	n/a	n/a	3	10	Fixation	Neutral	True
109.461	0.3	Control	1.0	0.004	Yes	3.285	-0.004	4.0	GoodResponse	0	0.249	108.71	3	10	Target	Neutral	True
109.71	0.3	Control	1.0	0.004	Yes	3.285	-0.004	4.0	GoodResponse	0	0.249	n/a	3	10	ButtonPress	Neutral	True
109.762	0.4	Control	1.0	n/a	Yes	3.285	n/a	n/a	GoodResponse	0	n/a	n/a	3	10	Blank	Neutral	True
110.163	1.45	Control	1.0	n/a	Yes	3.285	n/a	5.0	GoodResponse	0	0.007	109.17	3	10	Feedback	Neutral	True
111.618	3.285	Control	1.0	n/a	Yes	3.285	n/a	n/a	GoodResponse	0	0.0	n/a	3	10	ISIslide	Neutral	True
114.927	0.25	Lose2	1.0	0.001	Yes	2.723	0.027	n/a	GoodResponse	0	n/a	n/a	3	11	Cue	AvoidedLoss	True
115.178	4.05	Lose2	1.0	0.0	Yes	2.723	0.001	n/a	GoodResponse	0	n/a	n/a	3	11	Fixation	AvoidedLoss	True
119.224	0.29	Lose2	1.0	0.003	Yes	2.723	-0.003	4.0	GoodResponse	0	0.245	118.469	3	11	Target	AvoidedLoss	True
119.469	0.3	Lose2	1.0	0.003	Yes	2.723	-0.003	4.0	GoodResponse	0	0.245	n/a	3	11	ButtonPress	AvoidedLoss	True
119.525	0.41	Lose2	1.0	n/a	Yes	2.723	n/a	n/a	GoodResponse	0	n/a	n/a	3	11	Blank	AvoidedLoss	True
119.926	1.45	Lose2	1.0	n/a	Yes	2.723	n/a	5.0	GoodResponse	0	0.049	118.975	3	11	Feedback	AvoidedLoss	True
121.38	2.723	Lose2	1.0	n/a	Yes	2.723	n/a	n/a	GoodResponse	0	0.0	n/a	3	11	ISIslide	AvoidedLoss	True
124.122	0.25	Control	0.9231	0.0	No	2.978	0.022	n/a	NoResponse	0	n/a	n/a	3	12	Cue	Neutral	True
124.372	3.9	Control	0.9231	0.0	No	2.978	0.0	n/a	NoResponse	0	n/a	n/a	3	12	Fixation	Neutral	True
128.284	0.28	Control	0.9231	0.0	No	2.978	0.012	4.0	NoResponse	0	0.306	127.59	3	12	Target	Neutral	True
128.552	0.42	Control	0.9231	n/a	No	2.978	n/a	n/a	NoResponse	0	n/a	n/a	3	12	Blank	Neutral	True
128.59	0.3	Control	0.9231	0.0	No	2.978	0.012	4.0	NoResponse	0	0.306	n/a	3	12	ButtonPress	Neutral	True
128.969	1.45	Control	0.9231	n/a	No	2.978	n/a	5.0	NoResponse	0	0.03	127.999	3	12	Feedback	Neutral	True
130.424	2.978	Control	0.9231	n/a	No	2.978	n/a	n/a	NoResponse	0	0.0	n/a	3	12	ISIslide	Neutral	True
133.416	0.25	Control	0.9286	0.0	Yes	2.784	0.016	n/a	GoodResponse	0	n/a	n/a	3	13	Cue	Neutral	True
133.667	4.0	Control	0.9286	0.0	Yes	2.784	0.001	n/a	GoodResponse	0	n/a	n/a	3	13	Fixation	Neutral	True
137.662	0.27	Control	0.9286	0.004	Yes	2.784	-0.004	4.0	GoodResponse	0	0.189	136.851	3	13	Target	Neutral	True
137.851	0.3	Control	0.9286	0.004	Yes	2.784	-0.004	4.0	GoodResponse	0	0.189	n/a	3	13	ButtonPress	Neutral	True
137.946	0.43	Control	0.9286	n/a	Yes	2.784	n/a	n/a	GoodResponse	0	n/a	n/a	3	13	Blank	Neutral	True
138.364	1.45	Control	0.9286	n/a	Yes	2.784	n/a	5.0	GoodResponse	0	0.001	137.365	3	13	Feedback	Neutral	True
139.819	2.784	Control	0.9286	n/a	Yes	2.784	n/a	n/a	GoodResponse	0	0.0	n/a	3	13	ISIslide	Neutral	True
142.627	0.25	Win2	0.9333	0.0	Yes	2.673	0.027	n/a	GoodResponse	1	n/a	n/a	4	14	Cue	Win	True
142.878	4.1	Win2	0.9333	0.0	Yes	2.673	0.001	n/a	GoodResponse	1	n/a	n/a	4	14	Fixation	Win	True
146.973	0.26	Win2	0.9333	0.004	Yes	2.673	-0.004	4.0	GoodResponse	1	0.209	146.182	4	14	Target	Win	True
147.182	0.3	Win2	0.9333	0.004	Yes	2.673	-0.004	4.0	GoodResponse	1	0.209	n/a	4	14	ButtonPress	Win	True
147.241	0.44	Win2	0.9333	n/a	Yes	2.673	n/a	n/a	GoodResponse	1	n/a	n/a	4	14	Blank	Win	True
147.675	1.45	Win2	0.9333	n/a	Yes	2.673	n/a	5.0	GoodResponse	1	0.007	146.682	4	14	Feedback	Win	True
149.13	2.673	Win2	0.9333	n/a	Yes	2.673	n/a	n/a	GoodResponse	1	0.0	n/a	4	14	ISIslide	Win	True
151.821	0.25	Control	0.875	0.0	No	2.979	0.021	n/a	NoResponse	0	n/a	n/a	4	15	Cue	Neutral	False
152.072	4.0	Control	0.875	0.0	No	2.979	0.001	4.0	NoResponse	0	3.711	154.783	4	15	Fixation	Neutral	False
155.783	0.3	Control	0.875	0.0	No	2.979	0.001	4.0	NoResponse	0	3.711	n/a	4	15	ButtonPress	Neutral	False
156.067	0.25	Control	0.875	0.004	No	2.979	-0.004	4.0	NoResponse	0	0.302	155.369	4	15	Target	Neutral	False
156.318	0.45	Control	0.875	n/a	No	2.979	n/a	n/a	NoResponse	0	n/a	n/a	4	15	Blank	Neutral	False
156.369	0.3	Control	0.875	0.004	No	2.979	-0.004	4.0	NoResponse	0	0.302	n/a	4	15	ButtonPress	Neutral	False
156.769	1.45	Control	0.875	n/a	No	2.979	n/a	5.0	NoResponse	0	0.035	155.804	4	15	Feedback	Neutral	False
158.224	2.979	Control	0.875	n/a	No	2.979	n/a	n/a	NoResponse	0	0.0	n/a	4	15	ISIslide	Neutral	False
161.216	0.25	Win2	0.8234999999999999	0.0	No	2.884	0.016	n/a	NoResponse	0	n/a	n/a	4	16	Cue	MissedWin	True
161.467	4.0	Win2	0.8234999999999999	0.0	No	2.884	0.001	n/a	NoResponse	0	n/a	n/a	4	16	Fixation	MissedWin	True
165.462	0.24	Win2	0.8234999999999999	0.004	No	2.884	-0.004	4.0	NoResponse	0	0.314	164.776	4	16	Target	MissedWin	True
165.713	0.46	Win2	0.8234999999999999	n/a	No	2.884	n/a	n/a	NoResponse	0	n/a	n/a	4	16	Blank	MissedWin	True
165.776	0.3	Win2	0.8234999999999999	0.004	No	2.884	-0.004	4.0	NoResponse	0	0.314	n/a	4	16	ButtonPress	MissedWin	True
166.164	1.45	Win2	0.8234999999999999	n/a	No	2.884	n/a	5.0	NoResponse	0	0.006	165.17	4	16	Feedback	MissedWin	True
167.618	2.884	Win2	0.8234999999999999	n/a	No	2.884	n/a	n/a	NoResponse	0	0.0	n/a	4	16	ISIslide	MissedWin	True
170.527	0.25	Lose2	0.7778	0.0	No	2.723	0.027	n/a	NoResponse	-1	n/a	n/a	3	17	Cue	Loss	True
170.778	3.95	Lose2	0.7778	0.0	No	2.723	0.001	n/a	NoResponse	-1	n/a	n/a	3	17	Fixation	Loss	True
174.723	0.23	Lose2	0.7778	0.004	No	2.723	-0.004	4.0	NoResponse	-1	0.242	173.965	3	17	Target	Loss	True
174.957	0.47	Lose2	0.7778	n/a	No	2.723	n/a	n/a	NoResponse	-1	n/a	n/a	3	17	Blank	Loss	True
174.965	0.3	Lose2	0.7778	0.004	No	2.723	-0.004	4.0	NoResponse	-1	0.242	n/a	3	17	ButtonPress	Loss	True
175.425	1.45	Lose2	0.7778	n/a	No	2.723	n/a	5.0	NoResponse	-1	0.012	174.437	3	17	Feedback	Loss	True
176.88	2.723	Lose2	0.7778	n/a	No	2.723	n/a	n/a	NoResponse	-1	0.0	n/a	3	17	ISIslide	Loss	True
179.621	0.25	Lose2	0.7895	0.0	Yes	2.729	0.021	n/a	GoodResponse	0	n/a	n/a	3	18	Cue	AvoidedLoss	True
179.872	4.05	Lose2	0.7895	0.0	Yes	2.729	0.001	n/a	GoodResponse	0	n/a	n/a	3	18	Fixation	AvoidedLoss	True
183.917	0.22	Lose2	0.7895	0.004	Yes	2.729	-0.004	4.0	GoodResponse	0	0.191	183.108	3	18	Target	AvoidedLoss	True
184.108	0.3	Lose2	0.7895	0.004	Yes	2.729	-0.004	4.0	GoodResponse	0	0.191	n/a	3	18	ButtonPress	AvoidedLoss	True
184.151	0.48	Lose2	0.7895	n/a	Yes	2.729	n/a	n/a	GoodResponse	0	n/a	n/a	3	18	Blank	AvoidedLoss	True
184.619	1.45	Lose2	0.7895	n/a	Yes	2.729	n/a	5.0	GoodResponse	0	0.038	183.657	3	18	Feedback	AvoidedLoss	True
186.074	2.729	Lose2	0.7895	n/a	Yes	2.729	n/a	n/a	GoodResponse	0	0.0	n/a	3	18	ISIslide	AvoidedLoss	True
188.815	0.25	Control	0.8	0.0	Yes	2.935	0.015	n/a	GoodResponse	0	n/a	n/a	3	19	Cue	Neutral	True
189.066	3.95	Control	0.8	0.0	Yes	2.935	0.001	n/a	GoodResponse	0	n/a	n/a	3	19	Fixation	Neutral	True
193.011	0.21	Control	0.8	0.004	Yes	2.935	-0.004	4.0	GoodResponse	0	0.191	192.202	3	19	Target	Neutral	True
193.202	0.3	Control	0.8	0.004	Yes	2.935	-0.004	4.0	GoodResponse	0	0.191	n/a	3	19	ButtonPress	Neutral	True
193.228	0.49	Control	0.8	n/a	Yes	2.935	n/a	n/a	GoodResponse	0	n/a	n/a	3	19	Blank	Neutral	True
193.713	1.45	Control	0.8	n/a	Yes	2.935	n/a	5.0	GoodResponse	0	0.017	192.73	3	19	Feedback	Neutral	True
195.168	2.935	Control	0.8	n/a	Yes	2.935	n/a	n/a	GoodResponse	0	0.0	n/a	3	19	ISIslide	Neutral	True
198.126	0.25	Control	0.8095	0.001	Yes	2.624	0.026	n/a	GoodResponse	0	n/a	n/a	3	20	Cue	Neutral	True
198.377	4.05	Control	0.8095	0.0	Yes	2.624	0.001	n/a	GoodResponse	0	n/a	n/a	3	20	Fixation	Neutral	True
202.423	0.2	Control	0.8095	0.003	Yes	2.624	-0.003	4.0	GoodResponse	0	0.187	201.61	3	20	Target	Neutral	True
202.61	0.3	Control	0.8095	0.003	Yes	2.624	-0.003	4.0	GoodResponse	0	0.187	n/a	3	20	ButtonPress	Neutral	True
202.623	0.5	Control	0.8095	n/a	Yes	2.624	n/a	n/a	GoodResponse	0	n/a	n/a	3	20	Blank	Neutral	True
203.125	1.45	Control	0.8095	n/a	Yes	2.624	n/a	5.0	GoodResponse	0	0.02	202.145	3	20	Feedback	Neutral	True
204.579	2.624	Control	0.8095	n/a	Yes	2.624	n/a	n/a	GoodResponse	0	0.0	n/a	3	20	ISIslide	Neutral	True
207.22	0.25	Control	0.8181999999999999	0.0	Yes	2.78	0.02	n/a	GoodResponse	0	n/a	n/a	3	21	Cue	Neutral	True
207.471	4.1	Control	0.8181999999999999	0.0	Yes	2.78	0.001	n/a	GoodResponse	0	n/a	n/a	3	21	Fixation	Neutral	True
211.567	0.19	Control	0.8181999999999999	0.003	Yes	2.78	-0.003	4.0	GoodResponse	0	0.189	210.756	3	21	Target	Neutral	True
211.756	0.3	Control	0.8181999999999999	0.003	Yes	2.78	-0.003	4.0	GoodResponse	0	0.189	n/a	3	21	ButtonPress	Neutral	True
211.767	0.51	Control	0.8181999999999999	n/a	Yes	2.78	n/a	n/a	GoodResponse	0	n/a	n/a	3	21	Blank	Neutral	True
212.269	1.45	Control	0.8181999999999999	n/a	Yes	2.78	n/a	5.0	GoodResponse	0	0.047	211.316	3	21	Feedback	Neutral	True
213.723	2.78	Control	0.8181999999999999	n/a	Yes	2.78	n/a	n/a	GoodResponse	0	0.0	n/a	3	21	ISIslide	Neutral	True
216.515	0.25	Control	0.7826000000000001	0.0	No	2.785	0.015	n/a	NoResponse	0	n/a	n/a	3	22	Cue	Neutral	False
216.766	4.0	Control	0.7826000000000001	0.0	No	2.785	0.001	4.0	NoResponse	0	3.901	219.667	3	22	Fixation	Neutral	False
220.667	0.3	Control	0.7826000000000001	0.0	No	2.785	0.001	4.0	NoResponse	0	3.901	n/a	3	22	ButtonPress	Neutral	False
220.761	0.18	Control	0.7826000000000001	0.004	No	2.785	-0.004	4.0	NoResponse	0	0.335	220.096	3	22	Target	Neutral	False
220.945	0.52	Control	0.7826000000000001	n/a	No	2.785	n/a	n/a	NoResponse	0	n/a	n/a	3	22	Blank	Neutral	False
221.096	0.3	Control	0.7826000000000001	0.004	No	2.785	-0.004	4.0	NoResponse	0	0.335	n/a	3	22	ButtonPress	Neutral	False
221.463	1.45	Control	0.7826000000000001	n/a	No	2.785	n/a	5.0	NoResponse	0	0.024	220.487	3	22	Feedback	Neutral	False
222.917	2.785	Control	0.7826000000000001	n/a	No	2.785	n/a	n/a	NoResponse	0	0.0	n/a	3	22	ISIslide	Neutral	False
225.726	0.25	Control	0.75	0.0	No	2.774	0.026	n/a	NoResponse	0	n/a	n/a	3	23	Cue	Neutral	True
225.976	3.9	Control	0.75	0.001	No	2.774	0.0	n/a	NoResponse	0	n/a	n/a	3	23	Fixation	Neutral	True
229.871	0.17	Control	0.75	0.005	No	2.774	-0.005	4.0	NoResponse	0	0.257	229.128	3	23	Target	Neutral	True
230.055	0.53	Control	0.75	n/a	No	2.774	n/a	n/a	NoResponse	0	n/a	n/a	3	23	Blank	Neutral	True
230.128	0.3	Control	0.75	0.005	No	2.774	-0.005	4.0	NoResponse	0	0.257	n/a	3	23	ButtonPress	Neutral	True
230.574	1.45	Control	0.75	n/a	No	2.774	n/a	5.0	NoResponse	0	0.034	229.608	3	23	Feedback	Neutral	True
232.028	2.774	Control	0.75	n/a	No	2.774	n/a	n/a	NoResponse	0	0.0	n/a	3	23	ISIslide	Neutral	True
234.82	0.25	Win2	0.72	0.0	No	3.13	0.02	n/a	NoResponse	0	n/a	n/a	3	24	Cue	MissedWin	True
235.07	3.95	Win2	0.72	0.0	No	3.13	0.0	n/a	NoResponse	0	n/a	n/a	3	24	Fixation	MissedWin	True
239.016	0.16	Win2	0.72	0.004	No	3.13	-0.004	4.0	NoResponse	0	0.252	238.268	3	24	Target	MissedWin	True
239.183	0.54	Win2	0.72	n/a	No	3.13	n/a	n/a	NoResponse	0	n/a	n/a	3	24	Blank	MissedWin	True
239.268	0.3	Win2	0.72	0.004	No	3.13	-0.004	4.0	NoResponse	0	0.252	n/a	3	24	ButtonPress	MissedWin	True
239.718	1.45	Win2	0.72	n/a	No	3.13	n/a	5.0	NoResponse	0	0.012	238.73	3	24	Feedback	MissedWin	True
241.172	3.13	Win2	0.72	n/a	No	3.13	n/a	n/a	NoResponse	0	0.0	n/a	3	24	ISIslide	MissedWin	True
244.331	0.25	Win2	0.6923	0.001	No	3.069	0.031	n/a	NoResponse	0	n/a	n/a	3	25	Cue	MissedWin	True
244.582	4.0	Win2	0.6923	0.0	No	3.069	0.001	n/a	NoResponse	0	n/a	n/a	3	25	Fixation	MissedWin	True
248.577	0.15	Win2	0.6923	0.004	No	3.069	-0.004	4.0	NoResponse	0	0.313	247.89	3	25	Target	MissedWin	True
248.728	0.55	Win2	0.6923	n/a	No	3.069	n/a	n/a	NoResponse	0	n/a	n/a	3	25	Blank	MissedWin	True
248.89	0.3	Win2	0.6923	0.004	No	3.069	-0.004	4.0	NoResponse	0	0.313	n/a	3	25	ButtonPress	MissedWin	True
249.28	1.45	Win2	0.6923	n/a	No	3.069	n/a	5.0	NoResponse	0	0.011	248.291	3	25	Feedback	MissedWin	True
250.734	3.069	Win2	0.6923	n/a	No	3.069	n/a	n/a	NoResponse	0	0.0	n/a	3	25	ISIslide	MissedWin	True
253.827	0.25	Win2	0.6667000000000001	0.0	No	2.923	0.027	n/a	NoResponse	0	n/a	n/a	3	26	Cue	MissedWin	True
254.077	3.95	Win2	0.6667000000000001	0.0	No	2.923	0.0	n/a	NoResponse	0	n/a	n/a	3	26	Fixation	MissedWin	True
258.039	0.15	Win2	0.6667000000000001	0.0	No	2.923	0.012	4.0	NoResponse	0	0.239	257.278	3	26	Target	MissedWin	True
258.173	0.55	Win2	0.6667000000000001	n/a	No	2.923	n/a	n/a	NoResponse	0	n/a	n/a	3	26	Blank	MissedWin	True
258.278	0.3	Win2	0.6667000000000001	0.0	No	2.923	0.012	4.0	NoResponse	0	0.239	n/a	3	26	ButtonPress	MissedWin	True
258.725	1.45	Win2	0.6667000000000001	n/a	No	2.923	n/a	5.0	NoResponse	0	0.03	257.755	3	26	Feedback	MissedWin	True
260.179	2.923	Win2	0.6667000000000001	n/a	No	2.923	n/a	n/a	NoResponse	0	0.0	n/a	3	26	ISIslide	MissedWin	True
263.121	0.25	Lose2	0.6429	0.0	No	2.829	0.021	n/a	NoResponse	-1	n/a	n/a	2	27	Cue	Loss	False
263.372	4.05	Lose2	0.6429	0.0	No	2.829	0.001	4.0	NoResponse	-1	3.947	266.319	2	27	Fixation	Loss	False
267.319	0.3	Lose2	0.6429	0.0	No	2.829	0.001	4.0	NoResponse	-1	3.947	n/a	2	27	ButtonPress	Loss	False
267.417	0.15	Lose2	0.6429	0.004	No	2.829	-0.004	4.0	NoResponse	-1	0.235	266.652	2	27	Target	Loss	False
267.568	0.55	Lose2	0.6429	n/a	No	2.829	n/a	n/a	NoResponse	-1	n/a	n/a	2	27	Blank	Loss	False
267.652	0.3	Lose2	0.6429	0.004	No	2.829	-0.004	4.0	NoResponse	-1	0.235	n/a	2	27	ButtonPress	Loss	False
268.119	1.45	Lose2	0.6429	n/a	No	2.829	n/a	5.0	NoResponse	-1	0.002	267.121	2	27	Feedback	Loss	False
269.574	2.829	Lose2	0.6429	n/a	No	2.829	n/a	n/a	NoResponse	-1	0.0	n/a	2	27	ISIslide	Loss	False
272.415	0.25	Control	0.6207	0.001	No	2.835	0.015	n/a	NoResponse	0	n/a	n/a	2	28	Cue	Neutral	True
272.666	4.05	Control	0.6207	0.0	No	2.835	0.001	n/a	NoResponse	0	n/a	n/a	2	28	Fixation	Neutral	True
276.712	0.16	Control	0.6207	0.003	No	2.835	-0.003	4.0	NoResponse	0	0.22	275.932	2	28	Target	Neutral	True
276.879	0.54	Control	0.6207	n/a	No	2.835	n/a	n/a	NoResponse	0	n/a	n/a	2	28	Blank	Neutral	True
276.932	0.3	Control	0.6207	0.003	No	2.835	-0.003	4.0	NoResponse	0	0.22	n/a	2	28	ButtonPress	Neutral	True
277.414	1.45	Control	0.6207	n/a	No	2.835	n/a	5.0	NoResponse	0	0.023	276.437	2	28	Feedback	Neutral	True
278.868	2.835	Control	0.6207	n/a	No	2.835	n/a	n/a	NoResponse	0	0.0	n/a	2	28	ISIslide	Neutral	True
281.727	0.25	Lose2	0.6	0.0	No	2.823	0.027	n/a	NoResponse	-1	n/a	n/a	1	29	Cue	Loss	True
281.977	3.95	Lose2	0.6	0.001	No	2.823	0.0	n/a	NoResponse	-1	n/a	n/a	1	29	Fixation	Loss	True
285.923	0.17	Lose2	0.6	0.004	No	2.823	-0.004	4.0	NoResponse	-1	0.218	285.141	1	29	Target	Loss	True
286.106	0.53	Lose2	0.6	n/a	No	2.823	n/a	n/a	NoResponse	-1	n/a	n/a	1	29	Blank	Loss	True
286.141	0.3	Lose2	0.6	0.004	No	2.823	-0.004	4.0	NoResponse	-1	0.218	n/a	1	29	ButtonPress	Loss	True
286.625	1.45	Lose2	0.6	n/a	No	2.823	n/a	5.0	NoResponse	-1	0.031	285.656	1	29	Feedback	Loss	True
288.079	2.823	Lose2	0.6	n/a	No	2.823	n/a	n/a	NoResponse	-1	0.0	n/a	1	29	ISIslide	Loss	True
290.921	0.25	Win2	0.5806	0.0	No	2.779	0.021	n/a	NoResponse	0	n/a	n/a	1	30	Cue	MissedWin	True
291.172	3.9	Win2	0.5806	0.0	No	2.779	0.001	n/a	NoResponse	0	n/a	n/a	1	30	Fixation	MissedWin	True
295.067	0.18	Win2	0.5806	0.004	No	2.779	-0.004	4.0	NoResponse	0	0.192	294.259	1	30	Target	MissedWin	True
295.251	0.52	Win2	0.5806	n/a	No	2.779	n/a	n/a	NoResponse	0	n/a	n/a	1	30	Blank	MissedWin	True
295.259	0.3	Win2	0.5806	0.004	No	2.779	-0.004	4.0	NoResponse	0	0.192	n/a	1	30	ButtonPress	MissedWin	True
295.769	1.45	Win2	0.5806	n/a	No	2.779	n/a	5.0	NoResponse	0	0.009	294.778	1	30	Feedback	MissedWin	True
297.223	2.779	Win2	0.5806	n/a	No	2.779	n/a	n/a	NoResponse	0	0.0	n/a	1	30	ISIslide	MissedWin	True
300.031	0.25	Lose2	0.5625	0.001	No	2.819	0.031	n/a	NoResponse	-1	n/a	n/a	0	31	Cue	Loss	True
300.282	4.05	Lose2	0.5625	0.0	No	2.819	0.001	n/a	NoResponse	-1	n/a	n/a	0	31	Fixation	Loss	True
304.328	0.19	Lose2	0.5625	0.003	No	2.819	-0.003	4.0	NoResponse	-1	0.21	303.538	0	31	Target	Loss	True
304.528	0.51	Lose2	0.5625	n/a	No	2.819	n/a	n/a	NoResponse	-1	n/a	n/a	0	31	Blank	Loss	True
304.538	0.3	Lose2	0.5625	0.003	No	2.819	-0.003	4.0	NoResponse	-1	0.21	n/a	0	31	ButtonPress	Loss	True
305.03	1.45	Lose2	0.5625	n/a	No	2.819	n/a	5.0	NoResponse	-1	0.017	304.047	0	31	Feedback	Loss	True
306.484	2.819	Lose2	0.5625	n/a	No	2.819	n/a	n/a	NoResponse	-1	0.0	n/a	0	31	ISIslide	Loss	True
309.326	0.25	Lose2	0.5455	0.0	No	2.624	0.026	n/a	LatePress	-1	n/a	n/a	-1	32	Cue	Loss	True
309.577	4.15	Lose2	0.5455	0.0	No	2.624	0.001	n/a	LatePress	-1	n/a	n/a	-1	32	Fixation	Loss	True
313.722	0.2	Lose2	0.5455	0.004	No	2.624	-0.004	4.0	LatePress	-1	0.2	312.922	-1	32	Target	Loss	True
313.922	0.3	Lose2	0.5455	0.004	No	2.624	-0.004	4.0	LatePress	-1	0.2	n/a	-1	32	ButtonPress	Loss	True
313.923	0.5	Lose2	0.5455	n/a	No	2.624	n/a	n/a	LatePress	-1	n/a	n/a	-1	32	Blank	Loss	True
314.425	1.45	Lose2	0.5455	n/a	No	2.624	n/a	5.0	LatePress	-1	0.037	313.462	-1	32	Feedback	Loss	True
315.879	2.624	Lose2	0.5455	n/a	No	2.624	n/a	n/a	LatePress	-1	0.0	n/a	-1	32	ISIslide	Loss	True
318.52	0.25	Win2	0.5294	0.0	No	2.68	0.02	n/a	LatePress	0	n/a	n/a	-1	33	Cue	MissedWin	True
318.771	4.0	Win2	0.5294	0.0	No	2.68	0.001	n/a	LatePress	0	n/a	n/a	-1	33	Fixation	MissedWin	True
322.766	0.21	Win2	0.5294	0.004	No	2.68	-0.004	4.0	LatePress	0	0.213	321.979	-1	33	Target	MissedWin	True
322.979	0.3	Win2	0.5294	0.004	No	2.68	-0.004	4.0	LatePress	0	0.213	n/a	-1	33	ButtonPress	MissedWin	True
322.984	0.49	Win2	0.5294	n/a	No	2.68	n/a	n/a	LatePress	0	n/a	n/a	-1	33	Blank	MissedWin	True
323.468	1.45	Win2	0.5294	n/a	No	2.68	n/a	5.0	LatePress	0	0.018	322.486	-1	33	Feedback	MissedWin	True
324.923	2.68	Win2	0.5294	n/a	No	2.68	n/a	n/a	LatePress	0	0.0	n/a	-1	33	ISIslide	MissedWin	True
327.631	0.25	Lose2	0.5143	0.0	No	2.619	0.031	n/a	LatePress	-1	n/a	n/a	-2	34	Cue	Loss	True
327.882	4.05	Lose2	0.5143	0.0	No	2.619	0.001	n/a	LatePress	-1	n/a	n/a	-2	34	Fixation	Loss	True
331.927	0.22	Lose2	0.5143	0.004	No	2.619	-0.004	4.0	LatePress	-1	0.22	331.147	-2	34	Target	Loss	True
332.147	0.3	Lose2	0.5143	0.004	No	2.619	-0.004	4.0	LatePress	-1	0.22	n/a	-2	34	ButtonPress	Loss	True
332.161	0.48	Lose2	0.5143	n/a	No	2.619	n/a	n/a	LatePress	-1	n/a	n/a	-2	34	Blank	Loss	True
332.629	1.45	Lose2	0.5143	n/a	No	2.619	n/a	5.0	LatePress	-1	0.027	331.656	-2	34	Feedback	Loss	True
334.083	2.619	Lose2	0.5143	n/a	No	2.619	n/a	n/a	LatePress	-1	0.0	n/a	-2	34	ISIslide	Loss	True
336.725	0.25	Lose2	0.5278	0.0	Yes	2.675	0.025	n/a	GoodResponse	0	n/a	n/a	-2	35	Cue	AvoidedLoss	True
336.975	4.0	Lose2	0.5278	0.0	Yes	2.675	0.0	n/a	GoodResponse	0	n/a	n/a	-2	35	Fixation	AvoidedLoss	True
340.971	0.23	Lose2	0.5278	0.004	Yes	2.675	-0.004	4.0	GoodResponse	0	0.183	340.154	-2	35	Target	AvoidedLoss	True
341.154	0.3	Lose2	0.5278	0.004	Yes	2.675	-0.004	4.0	GoodResponse	0	0.183	n/a	-2	35	ButtonPress	AvoidedLoss	True
341.205	0.47	Lose2	0.5278	n/a	Yes	2.675	n/a	n/a	GoodResponse	0	n/a	n/a	-2	35	Blank	AvoidedLoss	True
341.673	1.45	Lose2	0.5278	n/a	Yes	2.675	n/a	5.0	GoodResponse	0	0.007	340.68	-2	35	Feedback	AvoidedLoss	True
343.127	2.675	Lose2	0.5278	n/a	Yes	2.675	n/a	n/a	GoodResponse	0	0.0	n/a	-2	35	ISIslide	AvoidedLoss	True
345.819	0.25	Control	0.5405	0.0	Yes	2.681	0.019	n/a	GoodResponse	0	n/a	n/a	-2	36	Cue	Neutral	True
346.069	4.0	Control	0.5405	0.0	Yes	2.681	0.0	n/a	GoodResponse	0	n/a	n/a	-2	36	Fixation	Neutral	True
350.065	0.24	Control	0.5405	0.004	Yes	2.681	-0.004	4.0	GoodResponse	0	0.194	349.259	-2	36	Target	Neutral	True
350.259	0.3	Control	0.5405	0.004	Yes	2.681	-0.004	4.0	GoodResponse	0	0.194	n/a	-2	36	ButtonPress	Neutral	True
350.315	0.46	Control	0.5405	n/a	Yes	2.681	n/a	n/a	GoodResponse	0	n/a	n/a	-2	36	Blank	Neutral	True
350.767	1.45	Control	0.5405	n/a	Yes	2.681	n/a	5.0	GoodResponse	0	0.036	349.803	-2	36	Feedback	Neutral	True
352.221	2.681	Control	0.5405	n/a	Yes	2.681	n/a	n/a	GoodResponse	0	0.0	n/a	-2	36	ISIslide	Neutral	True
354.929	0.25	Win2	0.5526	0.0	Yes	2.871	0.029	n/a	GoodResponse	1	n/a	n/a	-1	37	Cue	Win	True
355.18	4.0	Win2	0.5526	0.0	Yes	2.871	0.001	n/a	GoodResponse	1	n/a	n/a	-1	37	Fixation	Win	True
359.175	0.25	Win2	0.5526	0.004	Yes	2.871	-0.004	4.0	GoodResponse	1	0.211	358.386	-1	37	Target	Win	True
359.386	0.3	Win2	0.5526	0.004	Yes	2.871	-0.004	4.0	GoodResponse	1	0.211	n/a	-1	37	ButtonPress	Win	True
359.426	0.45	Win2	0.5526	n/a	Yes	2.871	n/a	n/a	GoodResponse	1	n/a	n/a	-1	37	Blank	Win	True
359.877	1.45	Win2	0.5526	n/a	Yes	2.871	n/a	5.0	GoodResponse	1	0.048	358.925	-1	37	Feedback	Win	True
361.332	2.871	Win2	0.5526	n/a	Yes	2.871	n/a	n/a	GoodResponse	1	0.0	n/a	-1	37	ISIslide	Win	True
364.224	0.25	Lose2	0.5640999999999999	0.0	Yes	2.826	0.024	n/a	GoodResponse	0	n/a	n/a	-1	38	Cue	AvoidedLoss	True
364.474	3.95	Lose2	0.5640999999999999	0.0	Yes	2.826	0.0	n/a	GoodResponse	0	n/a	n/a	-1	38	Fixation	AvoidedLoss	True
368.42	0.26	Lose2	0.5640999999999999	0.004	Yes	2.826	-0.004	4.0	GoodResponse	0	0.209	367.629	-1	38	Target	AvoidedLoss	True
368.629	0.3	Lose2	0.5640999999999999	0.004	Yes	2.826	-0.004	4.0	GoodResponse	0	0.209	n/a	-1	38	ButtonPress	AvoidedLoss	True
368.687	0.44	Lose2	0.5640999999999999	n/a	Yes	2.826	n/a	n/a	GoodResponse	0	n/a	n/a	-1	38	Blank	AvoidedLoss	True
369.122	1.45	Lose2	0.5640999999999999	n/a	Yes	2.826	n/a	5.0	GoodResponse	0	0.022	368.144	-1	38	Feedback	AvoidedLoss	True
370.576	2.826	Lose2	0.5640999999999999	n/a	Yes	2.826	n/a	n/a	GoodResponse	0	0.0	n/a	-1	38	ISIslide	AvoidedLoss	True
373.418	0.25	Win2	0.575	0.0	Yes	2.982	0.018	n/a	GoodResponse	1	n/a	n/a	0	39	Cue	Win	True
373.669	4.1	Win2	0.575	0.0	Yes	2.982	0.001	n/a	GoodResponse	1	n/a	n/a	0	39	Fixation	Win	True
377.764	0.27	Win2	0.575	0.004	Yes	2.982	-0.004	4.0	GoodResponse	1	0.186	376.95	0	39	Target	Win	True
377.95	0.3	Win2	0.575	0.004	Yes	2.982	-0.004	4.0	GoodResponse	1	0.186	n/a	0	39	ButtonPress	Win	True
378.048	0.43	Win2	0.575	n/a	Yes	2.982	n/a	n/a	GoodResponse	1	n/a	n/a	0	39	Blank	Win	True
378.466	1.45	Win2	0.575	n/a	Yes	2.982	n/a	5.0	GoodResponse	1	0.043	377.509	0	39	Feedback	Win	True
379.921	2.982	Win2	0.575	n/a	Yes	2.982	n/a	n/a	GoodResponse	1	0.0	n/a	0	39	ISIslide	Win	True
382.93	0.25	Win2	0.5854	0.0	Yes	2.72	0.03	n/a	GoodResponse	1	n/a	n/a	1	40	Cue	Win	True
383.18	3.95	Win2	0.5854	0.0	Yes	2.72	0.0	n/a	GoodResponse	1	n/a	n/a	1	40	Fixation	Win	True
387.126	0.28	Win2	0.5854	0.004	Yes	2.72	-0.004	4.0	GoodResponse	1	0.194	386.32	1	40	Target	Win	True
387.32	0.3	Win2	0.5854	0.004	Yes	2.72	-0.004	4.0	GoodResponse	1	0.194	n/a	1	40	ButtonPress	Win	True
387.41	0.42	Win2	0.5854	n/a	Yes	2.72	n/a	n/a	GoodResponse	1	n/a	n/a	1	40	Blank	Win	True
387.828	1.45	Win2	0.5854	n/a	Yes	2.72	n/a	5.0	GoodResponse	1	0.047	386.875	1	40	Feedback	Win	True
389.282	2.72	Win2	0.5854	n/a	Yes	2.72	n/a	n/a	GoodResponse	1	0.0	n/a	1	40	ISIslide	Win	True
392.024	0.25	Win2	0.5952000000000001	0.0	Yes	2.776	0.024	n/a	GoodResponse	1	n/a	n/a	2	41	Cue	Win	True
392.274	3.9	Win2	0.5952000000000001	0.0	Yes	2.776	0.0	n/a	GoodResponse	1	n/a	n/a	2	41	Fixation	Win	True
396.186	0.29	Win2	0.5952000000000001	0.0	Yes	2.776	0.012	4.0	GoodResponse	1	0.178	395.364	2	41	Target	Win	True
396.364	0.3	Win2	0.5952000000000001	0.0	Yes	2.776	0.012	4.0	GoodResponse	1	0.178	n/a	2	41	ButtonPress	Win	True
396.47	0.41	Win2	0.5952000000000001	n/a	Yes	2.776	n/a	n/a	GoodResponse	1	n/a	n/a	2	41	Blank	Win	True
396.871	1.45	Win2	0.5952000000000001	n/a	Yes	2.776	n/a	5.0	GoodResponse	1	0.029	395.9	2	41	Feedback	Win	True
398.326	2.776	Win2	0.5952000000000001	n/a	Yes	2.776	n/a	n/a	GoodResponse	1	0.0	n/a	2	41	ISIslide	Win	True
401.117	0.25	Control	0.6047	0.001	Yes	2.933	0.017	n/a	GoodResponse	0	n/a	n/a	2	42	Cue	Neutral	True
401.368	3.85	Control	0.6047	0.0	Yes	2.933	0.001	n/a	GoodResponse	0	n/a	n/a	2	42	Fixation	Neutral	True
405.213	0.3	Control	0.6047	0.004	Yes	2.933	-0.004	4.0	GoodResponse	0	0.232	404.445	2	42	Target	Neutral	True
405.445	0.3	Control	0.6047	0.004	Yes	2.933	-0.004	4.0	GoodResponse	0	0.232	n/a	2	42	ButtonPress	Neutral	True
405.514	0.4	Control	0.6047	n/a	Yes	2.933	n/a	n/a	GoodResponse	0	n/a	n/a	2	42	Blank	Neutral	True
405.915	1.45	Control	0.6047	n/a	Yes	2.933	n/a	5.0	GoodResponse	0	0.009	404.924	2	42	Feedback	Neutral	True
407.369	2.933	Control	0.6047	n/a	Yes	2.933	n/a	n/a	GoodResponse	0	0.0	n/a	2	42	ISIslide	Neutral	True
410.328	0.25	Win2	0.6136	0.0	Yes	3.172	0.028	n/a	GoodResponse	1	n/a	n/a	3	43	Cue	Win	True
410.579	4.0	Win2	0.6136	0.0	Yes	3.172	0.001	n/a	GoodResponse	1	n/a	n/a	3	43	Fixation	Win	True
414.574	0.31	Win2	0.6136	0.004	Yes	3.172	-0.004	4.0	GoodResponse	1	0.206	413.78	3	43	Target	Win	True
414.78	0.3	Win2	0.6136	0.004	Yes	3.172	-0.004	4.0	GoodResponse	1	0.206	n/a	3	43	ButtonPress	Win	True
414.892	0.39	Win2	0.6136	n/a	Yes	3.172	n/a	n/a	GoodResponse	1	n/a	n/a	3	43	Blank	Win	True
415.276	1.45	Win2	0.6136	n/a	Yes	3.172	n/a	5.0	GoodResponse	1	0.014	414.29	3	43	Feedback	Win	True
416.731	3.172	Win2	0.6136	n/a	Yes	3.172	n/a	n/a	GoodResponse	1	0.0	n/a	3	43	ISIslide	Win	True
419.924	0.25	Win2	0.6	0.0	No	2.976	0.024	n/a	LatePress	0	n/a	n/a	3	44	Cue	MissedWin	True
420.174	4.0	Win2	0.6	0.001	No	2.976	0.0	n/a	LatePress	0	n/a	n/a	3	44	Fixation	MissedWin	True
424.17	0.32	Win2	0.6	0.004	No	2.976	-0.004	4.0	LatePress	0	0.32	423.49	3	44	Target	MissedWin	True
424.49	0.3	Win2	0.6	0.004	No	2.976	-0.004	4.0	LatePress	0	0.32	n/a	3	44	ButtonPress	MissedWin	True
424.504	0.38	Win2	0.6	n/a	No	2.976	n/a	n/a	LatePress	0	n/a	n/a	3	44	Blank	MissedWin	True
424.872	1.45	Win2	0.6	n/a	No	2.976	n/a	5.0	LatePress	0	0.028	423.9	3	44	Feedback	MissedWin	True
426.326	2.976	Win2	0.6	n/a	No	2.976	n/a	n/a	LatePress	0	0.0	n/a	3	44	ISIslide	MissedWin	True
429.318	0.25	Control	0.6087	0.001	Yes	2.882	0.018	n/a	GoodResponse	0	n/a	n/a	3	45	Cue	Neutral	True
429.569	4.1	Control	0.6087	0.0	Yes	2.882	0.001	n/a	GoodResponse	0	n/a	n/a	3	45	Fixation	Neutral	True
433.665	0.33	Control	0.6087	0.003	Yes	2.882	-0.003	4.0	GoodResponse	0	0.232	432.897	3	45	Target	Neutral	True
433.897	0.3	Control	0.6087	0.003	Yes	2.882	-0.003	4.0	GoodResponse	0	0.232	n/a	3	45	ButtonPress	Neutral	True
433.999	0.37	Control	0.6087	n/a	Yes	2.882	n/a	n/a	GoodResponse	0	n/a	n/a	3	45	Blank	Neutral	True
434.367	1.45	Control	0.6087	n/a	Yes	2.882	n/a	5.0	GoodResponse	0	0.044	433.411	3	45	Feedback	Neutral	True
435.821	2.882	Control	0.6087	n/a	Yes	2.882	n/a	n/a	GoodResponse	0	0.0	n/a	3	45	ISIslide	Neutral	True
438.73	0.25	Lose2	0.617	0.0	Yes	3.37	0.03	n/a	GoodResponse	0	n/a	n/a	3	46	Cue	AvoidedLoss	True
438.981	4.0	Lose2	0.617	0.0	Yes	3.37	0.001	n/a	GoodResponse	0	n/a	n/a	3	46	Fixation	AvoidedLoss	True
442.976	0.34	Lose2	0.617	0.004	Yes	3.37	-0.004	4.0	GoodResponse	0	0.184	442.16	3	46	Target	AvoidedLoss	True
443.16	0.3	Lose2	0.617	0.004	Yes	3.37	-0.004	4.0	GoodResponse	0	0.184	n/a	3	46	ButtonPress	AvoidedLoss	True
443.327	0.36	Lose2	0.617	n/a	Yes	3.37	n/a	n/a	GoodResponse	0	n/a	n/a	3	46	Blank	AvoidedLoss	True
443.678	1.45	Lose2	0.617	n/a	Yes	3.37	n/a	5.0	GoodResponse	0	0.007	442.685	3	46	Feedback	AvoidedLoss	True
445.132	3.37	Lose2	0.617	n/a	Yes	3.37	n/a	n/a	GoodResponse	0	0.0	n/a	3	46	ISIslide	AvoidedLoss	True
448.526	0.25	Lose2	0.625	0.0	Yes	2.674	0.026	n/a	GoodResponse	0	n/a	n/a	3	47	Cue	AvoidedLoss	True
448.777	4.0	Lose2	0.625	0.0	Yes	2.674	0.001	n/a	GoodResponse	0	n/a	n/a	3	47	Fixation	AvoidedLoss	True
452.772	0.35	Lose2	0.625	0.004	Yes	2.674	-0.004	4.0	GoodResponse	0	0.222	451.994	3	47	Target	AvoidedLoss	True
452.994	0.3	Lose2	0.625	0.004	Yes	2.674	-0.004	4.0	GoodResponse	0	0.222	n/a	3	47	ButtonPress	AvoidedLoss	True
453.123	0.35	Lose2	0.625	n/a	Yes	2.674	n/a	n/a	GoodResponse	0	n/a	n/a	3	47	Blank	AvoidedLoss	True
453.474	1.45	Lose2	0.625	n/a	Yes	2.674	n/a	5.0	GoodResponse	0	0.011	452.485	3	47	Feedback	AvoidedLoss	True
454.928	2.674	Lose2	0.625	n/a	Yes	2.674	n/a	n/a	GoodResponse	0	0.0	n/a	3	47	ISIslide	AvoidedLoss	True
457.62	0.25	Lose2	0.6327	0.0	Yes	3.03	0.02	n/a	GoodResponse	0	n/a	n/a	3	48	Cue	AvoidedLoss	True
457.871	3.95	Lose2	0.6327	0.0	Yes	3.03	0.001	n/a	GoodResponse	0	n/a	n/a	3	48	Fixation	AvoidedLoss	True
461.816	0.36	Lose2	0.6327	0.004	Yes	3.03	-0.004	4.0	GoodResponse	0	0.207	461.023	3	48	Target	AvoidedLoss	True
462.023	0.3	Lose2	0.6327	0.004	Yes	3.03	-0.004	4.0	GoodResponse	0	0.207	n/a	3	48	ButtonPress	AvoidedLoss	True
462.184	0.34	Lose2	0.6327	n/a	Yes	3.03	n/a	n/a	GoodResponse	0	n/a	n/a	3	48	Blank	AvoidedLoss	True
462.518	1.45	Lose2	0.6327	n/a	Yes	3.03	n/a	5.0	GoodResponse	0	0.04	461.558	3	48	Feedback	AvoidedLoss	True
463.972	3.03	Lose2	0.6327	n/a	Yes	3.03	n/a	n/a	GoodResponse	0	0.0	n/a	3	48	ISIslide	AvoidedLoss	True
467.015	0.25	Control	0.64	0.0	Yes	2.885	0.015	n/a	GoodResponse	0	n/a	n/a	3	49	Cue	Neutral	True
467.265	4.0	Control	0.64	0.0	Yes	2.885	0.0	n/a	GoodResponse	0	n/a	n/a	3	49	Fixation	Neutral	True
471.261	0.37	Control	0.64	0.004	Yes	2.885	-0.004	4.0	GoodResponse	0	0.199	470.46	3	49	Target	Neutral	True
471.46	0.3	Control	0.64	0.004	Yes	2.885	-0.004	4.0	GoodResponse	0	0.199	n/a	3	49	ButtonPress	Neutral	True
471.645	0.33	Control	0.64	n/a	Yes	2.885	n/a	n/a	GoodResponse	0	n/a	n/a	3	49	Blank	Neutral	True
471.963	1.45	Control	0.64	n/a	Yes	2.885	n/a	5.0	GoodResponse	0	0.01	470.973	3	49	Feedback	Neutral	True
473.417	2.885	Control	0.64	n/a	Yes	2.885	n/a	n/a	GoodResponse	0	0.0	n/a	3	49	ISIslide	Neutral	True
476.326	0.25	Control	0.6275	0.0	No	2.774	0.026	n/a	NoResponse	0	n/a	n/a	3	50	Cue	Neutral	True
476.577	4.0	Control	0.6275	0.0	No	2.774	0.001	4.0	NoResponse	0	3.982	479.559	3	50	Fixation	Neutral	True
480.559	0.3	Control	0.6275	0.0	No	2.774	0.001	4.0	NoResponse	0	3.982	n/a	3	50	ButtonPress	Neutral	True
480.572	0.38	Control	0.6275	0.004	No	2.774	-0.004	n/a	NoResponse	0	n/a	n/a	3	50	Target	Neutral	True
480.956	0.32	Control	0.6275	n/a	No	2.774	n/a	n/a	NoResponse	0	n/a	n/a	3	50	Blank	Neutral	True
481.274	1.45	Control	0.6275	n/a	No	2.774	n/a	5.0	NoResponse	0	0.015	480.289	3	50	Feedback	Neutral	True
482.728	2.774	Control	0.6275	n/a	No	2.774	n/a	n/a	NoResponse	0	0.0	n/a	3	50	ISIslide	Neutral	True
485.52	0.25	Control	0.6346	0.0	Yes	2.73	0.02	n/a	GoodResponse	0	n/a	n/a	3	51	Cue	Neutral	True
485.771	3.95	Control	0.6346	0.0	Yes	2.73	0.001	n/a	GoodResponse	0	n/a	n/a	3	51	Fixation	Neutral	True
489.716	0.39	Control	0.6346	0.004	Yes	2.73	-0.004	4.0	GoodResponse	0	0.271	488.987	3	51	Target	Neutral	True
489.987	0.3	Control	0.6346	0.004	Yes	2.73	-0.004	4.0	GoodResponse	0	0.271	n/a	3	51	ButtonPress	Neutral	True
490.117	0.31	Control	0.6346	n/a	Yes	2.73	n/a	n/a	GoodResponse	0	n/a	n/a	3	51	Blank	Neutral	True
490.418	1.45	Control	0.6346	n/a	Yes	2.73	n/a	5.0	GoodResponse	0	0.042	489.46	3	51	Feedback	Neutral	True
491.872	2.73	Control	0.6346	n/a	Yes	2.73	n/a	n/a	GoodResponse	0	0.0	n/a	3	51	ISIslide	Neutral	True
494.631	0.25	Control	0.6415000000000001	0.0	Yes	2.619	0.031	n/a	GoodResponse	0	n/a	n/a	3	52	Cue	Neutral	True
494.881	4.05	Control	0.6415000000000001	0.0	Yes	2.619	0.0	n/a	GoodResponse	0	n/a	n/a	3	52	Fixation	Neutral	True
498.927	0.4	Control	0.6415000000000001	0.004	Yes	2.619	-0.004	4.0	GoodResponse	0	0.261	498.188	3	52	Target	Neutral	True
499.188	0.3	Control	0.6415000000000001	0.004	Yes	2.619	-0.004	4.0	GoodResponse	0	0.261	n/a	3	52	ButtonPress	Neutral	True
499.328	0.3	Control	0.6415000000000001	n/a	Yes	2.619	n/a	n/a	GoodResponse	0	n/a	n/a	3	52	Blank	Neutral	True
499.629	1.45	Control	0.6415000000000001	n/a	Yes	2.619	n/a	5.0	GoodResponse	0	0.002	498.631	3	52	Feedback	Neutral	True
501.083	2.619	Control	0.6415000000000001	n/a	Yes	2.619	n/a	n/a	GoodResponse	0	0.0	n/a	3	52	ISIslide	Neutral	True
503.725	0.25	Win2	0.6481	0.0	Yes	2.925	0.025	n/a	GoodResponse	1	n/a	n/a	4	53	Cue	Win	False
503.975	4.05	Win2	0.6481	0.0	Yes	2.925	0.0	4.0	GoodResponse	1	0.237	503.212	4	53	Fixation	Win	False
504.212	0.3	Win2	0.6481	0.0	Yes	2.925	0.0	4.0	GoodResponse	1	0.237	n/a	4	53	ButtonPress	Win	False
508.021	0.41	Win2	0.6481	0.004	Yes	2.925	-0.004	4.0	GoodResponse	1	0.336	507.357	4	53	Target	Win	False
508.357	0.3	Win2	0.6481	0.004	Yes	2.925	-0.004	4.0	GoodResponse	1	0.336	n/a	4	53	ButtonPress	Win	False
508.439	0.29	Win2	0.6481	n/a	Yes	2.925	n/a	n/a	GoodResponse	1	n/a	n/a	4	53	Blank	Win	False
508.723	1.45	Win2	0.6481	n/a	Yes	2.925	n/a	5.0	GoodResponse	1	0.03	507.753	4	53	Feedback	Win	False
510.177	2.925	Win2	0.6481	n/a	Yes	2.925	n/a	n/a	GoodResponse	1	0.0	n/a	4	53	ISIslide	Win	False
513.119	0.25	Win2	0.6545000000000001	0.0	Yes	2.731	0.019	n/a	GoodResponse	1	n/a	n/a	5	54	Cue	Win	True
513.37	3.95	Win2	0.6545000000000001	0.0	Yes	2.731	0.001	n/a	GoodResponse	1	n/a	n/a	5	54	Fixation	Win	True
517.315	0.42	Win2	0.6545000000000001	0.004	Yes	2.731	-0.004	4.0	GoodResponse	1	0.275	516.59	5	54	Target	Win	True
517.59	0.3	Win2	0.6545000000000001	0.004	Yes	2.731	-0.004	4.0	GoodResponse	1	0.275	n/a	5	54	ButtonPress	Win	True
517.75	0.28	Win2	0.6545000000000001	n/a	Yes	2.731	n/a	n/a	GoodResponse	1	n/a	n/a	5	54	Blank	Win	True
518.017	1.45	Win2	0.6545000000000001	n/a	Yes	2.731	n/a	5.0	GoodResponse	1	0.006	517.023	5	54	Feedback	Win	True
519.472	2.731	Win2	0.6545000000000001	n/a	Yes	2.731	n/a	n/a	GoodResponse	1	0.0	n/a	5	54	ISIslide	Win	True
522.23	0.25	Control	0.6607	0.0	Yes	3.02	0.03	n/a	GoodResponse	0	n/a	n/a	5	55	Cue	Neutral	True
522.481	3.95	Control	0.6607	0.0	Yes	3.02	0.001	n/a	GoodResponse	0	n/a	n/a	5	55	Fixation	Neutral	True
526.426	0.43	Control	0.6607	0.004	Yes	3.02	-0.004	4.0	GoodResponse	0	0.288	525.714	5	55	Target	Neutral	True
526.714	0.3	Control	0.6607	0.004	Yes	3.02	-0.004	4.0	GoodResponse	0	0.288	n/a	5	55	ButtonPress	Neutral	True
526.86	0.27	Control	0.6607	n/a	Yes	3.02	n/a	n/a	GoodResponse	0	n/a	n/a	5	55	Blank	Neutral	True
527.128	1.45	Control	0.6607	n/a	Yes	3.02	n/a	5.0	GoodResponse	0	0.015	526.143	5	55	Feedback	Neutral	True
528.582	3.02	Control	0.6607	n/a	Yes	3.02	n/a	n/a	GoodResponse	0	0.0	n/a	5	55	ISIslide	Neutral	True
531.625	0.25	Control	0.6667000000000001	0.0	Yes	2.825	0.025	n/a	GoodResponse	0	n/a	n/a	5	56	Cue	Neutral	True
531.875	3.95	Control	0.6667000000000001	0.001	Yes	2.825	0.0	n/a	GoodResponse	0	n/a	n/a	5	56	Fixation	Neutral	True
535.821	0.43	Control	0.6667000000000001	0.004	Yes	2.825	-0.004	4.0	GoodResponse	0	0.318	535.139	5	56	Target	Neutral	True
536.139	0.3	Control	0.6667000000000001	0.004	Yes	2.825	-0.004	4.0	GoodResponse	0	0.318	n/a	5	56	ButtonPress	Neutral	True
536.255	0.27	Control	0.6667000000000001	n/a	Yes	2.825	n/a	n/a	GoodResponse	0	n/a	n/a	5	56	Blank	Neutral	True
536.523	1.45	Control	0.6667000000000001	n/a	Yes	2.825	n/a	5.0	GoodResponse	0	0.034	535.557	5	56	Feedback	Neutral	True
537.977	2.825	Control	0.6667000000000001	n/a	Yes	2.825	n/a	n/a	GoodResponse	0	0.0	n/a	5	56	ISIslide	Neutral	True
540.819	0.25	Control	0.6552	0.0	No	3.481	0.019	n/a	NoResponse	0	n/a	n/a	5	57	Cue	Neutral	False
541.07	4.0	Control	0.6552	0.0	No	3.481	0.001	n/a	NoResponse	0	n/a	n/a	5	57	Fixation	Neutral	False
545.065	0.42	Control	0.6552	0.004	No	3.481	-0.004	n/a	NoResponse	0	n/a	n/a	5	57	Target	Neutral	False
545.5	0.28	Control	0.6552	n/a	No	3.481	n/a	n/a	NoResponse	0	n/a	n/a	5	57	Blank	Neutral	False
545.767	1.45	Control	0.6552	n/a	No	3.481	n/a	5.0	NoResponse	0	0.01	544.777	5	57	Feedback	Neutral	False
547.221	3.481	Control	0.6552	n/a	No	3.481	n/a	n/a	NoResponse	0	0.0	n/a	5	57	ISIslide	Neutral	False
550.715	0.25	Win2	0.6609999999999999	0.0	Yes	2.735	0.015	n/a	GoodResponse	1	n/a	n/a	6	58	Cue	Win	True
550.966	4.05	Win2	0.6609999999999999	0.0	Yes	2.735	0.001	n/a	GoodResponse	1	n/a	n/a	6	58	Fixation	Win	True
555.011	0.42	Win2	0.6609999999999999	0.004	Yes	2.735	-0.004	4.0	GoodResponse	1	0.195	554.206	6	58	Target	Win	True
555.206	0.3	Win2	0.6609999999999999	0.004	Yes	2.735	-0.004	4.0	GoodResponse	1	0.195	n/a	6	58	ButtonPress	Win	True
555.446	0.28	Win2	0.6609999999999999	n/a	Yes	2.735	n/a	n/a	GoodResponse	1	n/a	n/a	6	58	Blank	Win	True
555.713	1.45	Win2	0.6609999999999999	n/a	Yes	2.735	n/a	5.0	GoodResponse	1	0.015	554.728	6	58	Feedback	Win	True
557.168	2.735	Win2	0.6609999999999999	n/a	Yes	2.735	n/a	n/a	GoodResponse	1	0.0	n/a	6	58	ISIslide	Win	True
559.926	0.25	Lose2	0.6667000000000001	0.0	Yes	2.674	0.026	n/a	GoodResponse	0	n/a	n/a	6	59	Cue	AvoidedLoss	True
560.177	4.0	Lose2	0.6667000000000001	0.0	Yes	2.674	0.001	n/a	GoodResponse	0	n/a	n/a	6	59	Fixation	AvoidedLoss	True
564.172	0.42	Lose2	0.6667000000000001	0.004	Yes	2.674	-0.004	4.0	GoodResponse	0	0.269	563.441	6	59	Target	AvoidedLoss	True
564.441	0.3	Lose2	0.6667000000000001	0.004	Yes	2.674	-0.004	4.0	GoodResponse	0	0.269	n/a	6	59	ButtonPress	AvoidedLoss	True
564.607	0.28	Lose2	0.6667000000000001	n/a	Yes	2.674	n/a	n/a	GoodResponse	0	n/a	n/a	6	59	Blank	AvoidedLoss	True
564.874	1.45	Lose2	0.6667000000000001	n/a	Yes	2.674	n/a	5.0	GoodResponse	0	0.025	563.899	6	59	Feedback	AvoidedLoss	True
566.329	2.674	Lose2	0.6667000000000001	n/a	Yes	2.674	n/a	n/a	GoodResponse	0	0.0	n/a	6	59	ISIslide	AvoidedLoss	True
569.02	0.25	Control	0.6720999999999999	0.0	Yes	2.68	0.02	n/a	GoodResponse	0	n/a	n/a	6	60	Cue	Neutral	True
569.271	4.0	Control	0.6720999999999999	0.0	Yes	2.68	0.001	n/a	GoodResponse	0	n/a	n/a	6	60	Fixation	Neutral	True
573.266	0.41	Control	0.6720999999999999	0.004	Yes	2.68	-0.004	4.0	GoodResponse	0	0.21	572.476	6	60	Target	Neutral	True
573.476	0.3	Control	0.6720999999999999	0.004	Yes	2.68	-0.004	4.0	GoodResponse	0	0.21	n/a	6	60	ButtonPress	Neutral	True
573.684	0.29	Control	0.6720999999999999	n/a	Yes	2.68	n/a	n/a	GoodResponse	0	n/a	n/a	6	60	Blank	Neutral	True
573.968	1.45	Control	0.6720999999999999	n/a	Yes	2.68	n/a	5.0	GoodResponse	0	0.006	572.974	6	60	Feedback	Neutral	True
575.422	2.68	Control	0.6720999999999999	n/a	Yes	2.68	n/a	n/a	GoodResponse	0	0.0	n/a	6	60	ISIslide	Neutral	True
578.131	0.25	Lose2	0.6774	0.0	Yes	2.969	0.031	n/a	GoodResponse	0	n/a	n/a	6	61	Cue	AvoidedLoss	True
578.381	4.0	Lose2	0.6774	0.0	Yes	2.969	0.0	n/a	GoodResponse	0	n/a	n/a	6	61	Fixation	AvoidedLoss	True
582.377	0.4	Lose2	0.6774	0.004	Yes	2.969	-0.004	4.0	GoodResponse	0	0.254	581.631	6	61	Target	AvoidedLoss	True
582.631	0.3	Lose2	0.6774	0.004	Yes	2.969	-0.004	4.0	GoodResponse	0	0.254	n/a	6	61	ButtonPress	AvoidedLoss	True
582.778	0.3	Lose2	0.6774	n/a	Yes	2.969	n/a	n/a	GoodResponse	0	n/a	n/a	6	61	Blank	AvoidedLoss	True
583.079	1.45	Lose2	0.6774	n/a	Yes	2.969	n/a	5.0	GoodResponse	0	0.014	582.093	6	61	Feedback	AvoidedLoss	True
584.533	2.969	Lose2	0.6774	n/a	Yes	2.969	n/a	n/a	GoodResponse	0	0.0	n/a	6	61	ISIslide	AvoidedLoss	True
587.525	0.25	Lose2	0.6825	0.0	Yes	2.875	0.025	n/a	GoodResponse	0	n/a	n/a	6	62	Cue	AvoidedLoss	True
587.776	3.9	Lose2	0.6825	0.0	Yes	2.875	0.001	n/a	GoodResponse	0	n/a	n/a	6	62	Fixation	AvoidedLoss	True
591.671	0.39	Lose2	0.6825	0.004	Yes	2.875	-0.004	4.0	GoodResponse	0	0.282	590.953	6	62	Target	AvoidedLoss	True
591.953	0.3	Lose2	0.6825	0.004	Yes	2.875	-0.004	4.0	GoodResponse	0	0.282	n/a	6	62	ButtonPress	AvoidedLoss	True
592.072	0.31	Lose2	0.6825	n/a	Yes	2.875	n/a	n/a	GoodResponse	0	n/a	n/a	6	62	Blank	AvoidedLoss	True
592.373	1.45	Lose2	0.6825	n/a	Yes	2.875	n/a	5.0	GoodResponse	0	0.037	591.41	6	62	Feedback	AvoidedLoss	True
593.828	2.875	Lose2	0.6825	n/a	Yes	2.875	n/a	n/a	GoodResponse	0	0.0	n/a	6	62	ISIslide	AvoidedLoss	True
596.72	0.25	Lose2	0.6875	0.0	Yes	2.63	0.02	n/a	GoodResponse	0	n/a	n/a	6	63	Cue	AvoidedLoss	True
596.97	4.05	Lose2	0.6875	0.0	Yes	2.63	0.0	n/a	GoodResponse	0	n/a	n/a	6	63	Fixation	AvoidedLoss	True
601.016	0.38	Lose2	0.6875	0.004	Yes	2.63	-0.004	4.0	GoodResponse	0	0.241	600.257	6	63	Target	AvoidedLoss	True
601.257	0.3	Lose2	0.6875	0.004	Yes	2.63	-0.004	4.0	GoodResponse	0	0.241	n/a	6	63	ButtonPress	AvoidedLoss	True
601.4	0.32	Lose2	0.6875	n/a	Yes	2.63	n/a	n/a	GoodResponse	0	n/a	n/a	6	63	Blank	AvoidedLoss	True
601.718	1.45	Lose2	0.6875	n/a	Yes	2.63	n/a	5.0	GoodResponse	0	0.01	600.728	6	63	Feedback	AvoidedLoss	True
603.172	2.63	Lose2	0.6875	n/a	Yes	2.63	n/a	n/a	GoodResponse	0	0.0	n/a	6	63	ISIslide	AvoidedLoss	True
605.83	0.25	Win2	0.6769	0.0	No	3.12	0.03	n/a	NoResponse	0	n/a	n/a	6	64	Cue	MissedWin	True
606.081	4.15	Win2	0.6769	0.0	No	3.12	0.001	n/a	NoResponse	0	n/a	n/a	6	64	Fixation	MissedWin	True
610.227	0.37	Win2	0.6769	0.003	No	3.12	-0.003	4.0	NoResponse	0	0.556	609.783	6	64	Target	MissedWin	True
610.611	0.33	Win2	0.6769	n/a	No	3.12	n/a	n/a	NoResponse	0	n/a	n/a	6	64	Blank	MissedWin	True
610.783	0.3	Win2	0.6769	0.003	No	3.12	-0.003	4.0	NoResponse	0	0.556	n/a	6	64	ButtonPress	MissedWin	True
610.929	1.45	Win2	0.6769	n/a	No	3.12	n/a	5.0	NoResponse	0	0.018	609.947	6	64	Feedback	MissedWin	True
612.383	3.12	Win2	0.6769	n/a	No	3.12	n/a	n/a	NoResponse	0	0.0	n/a	6	64	ISIslide	MissedWin	True
615.526	0.25	Control	0.6818000000000001	0.0	Yes	2.774	0.026	n/a	GoodResponse	0	n/a	n/a	6	65	Cue	Neutral	True
615.777	4.0	Control	0.6818000000000001	0.0	Yes	2.774	0.001	n/a	GoodResponse	0	n/a	n/a	6	65	Fixation	Neutral	True
619.772	0.36	Control	0.6818000000000001	0.004	Yes	2.774	-0.004	4.0	GoodResponse	0	0.189	618.961	6	65	Target	Neutral	True
619.961	0.3	Control	0.6818000000000001	0.004	Yes	2.774	-0.004	4.0	GoodResponse	0	0.189	n/a	6	65	ButtonPress	Neutral	True
620.14	0.34	Control	0.6818000000000001	n/a	Yes	2.774	n/a	n/a	GoodResponse	0	n/a	n/a	6	65	Blank	Neutral	True
620.474	1.45	Control	0.6818000000000001	n/a	Yes	2.774	n/a	5.0	GoodResponse	0	0.034	619.508	6	65	Feedback	Neutral	True
621.928	2.774	Control	0.6818000000000001	n/a	Yes	2.774	n/a	n/a	GoodResponse	0	0.0	n/a	6	65	ISIslide	Neutral	True
624.72	0.25	Win2	0.6866	0.0	Yes	2.78	0.02	n/a	GoodResponse	1	n/a	n/a	7	66	Cue	Win	True
624.971	3.9	Win2	0.6866	0.0	Yes	2.78	0.001	n/a	GoodResponse	1	n/a	n/a	7	66	Fixation	Win	True
628.866	0.35	Win2	0.6866	0.004	Yes	2.78	-0.004	4.0	GoodResponse	1	0.243	628.109	7	66	Target	Win	True
629.109	0.3	Win2	0.6866	0.004	Yes	2.78	-0.004	4.0	GoodResponse	1	0.243	n/a	7	66	ButtonPress	Win	True
629.217	0.35	Win2	0.6866	n/a	Yes	2.78	n/a	n/a	GoodResponse	1	n/a	n/a	7	66	Blank	Win	True
629.568	1.45	Win2	0.6866	n/a	Yes	2.78	n/a	5.0	GoodResponse	1	0.013	628.581	7	66	Feedback	Win	True
631.022	2.78	Win2	0.6866	n/a	Yes	2.78	n/a	n/a	GoodResponse	1	0.0	n/a	7	66	ISIslide	Win	True
633.831	0.25	Control	0.6912	0.0	Yes	2.719	0.031	n/a	GoodResponse	0	n/a	n/a	7	67	Cue	Neutral	True
634.081	3.95	Control	0.6912	0.0	Yes	2.719	0.0	n/a	GoodResponse	0	n/a	n/a	7	67	Fixation	Neutral	True
638.027	0.34	Control	0.6912	0.004	Yes	2.719	-0.004	4.0	GoodResponse	0	0.218	637.245	7	67	Target	Neutral	True
638.245	0.3	Control	0.6912	0.004	Yes	2.719	-0.004	4.0	GoodResponse	0	0.218	n/a	7	67	ButtonPress	Neutral	True
638.378	0.36	Control	0.6912	n/a	Yes	2.719	n/a	n/a	GoodResponse	0	n/a	n/a	7	67	Blank	Neutral	True
638.729	1.45	Control	0.6912	n/a	Yes	2.719	n/a	5.0	GoodResponse	0	0.022	637.751	7	67	Feedback	Neutral	True
640.183	2.719	Control	0.6912	n/a	Yes	2.719	n/a	n/a	GoodResponse	0	0.0	n/a	7	67	ISIslide	Neutral	True
642.925	0.25	Win2	0.6957	0.0	Yes	3.075	0.025	n/a	GoodResponse	1	n/a	n/a	8	68	Cue	Win	True
643.175	4.0	Win2	0.6957	0.0	Yes	3.075	0.0	n/a	GoodResponse	1	n/a	n/a	8	68	Fixation	Win	True
647.171	0.33	Win2	0.6957	0.004	Yes	3.075	-0.004	4.0	GoodResponse	1	0.201	646.372	8	68	Target	Win	True
647.372	0.3	Win2	0.6957	0.004	Yes	3.075	-0.004	4.0	GoodResponse	1	0.201	n/a	8	68	ButtonPress	Win	True
647.505	0.37	Win2	0.6957	n/a	Yes	3.075	n/a	n/a	GoodResponse	1	n/a	n/a	8	68	Blank	Win	True
647.873	1.45	Win2	0.6957	n/a	Yes	3.075	n/a	5.0	GoodResponse	1	0.001	646.874	8	68	Feedback	Win	True
649.327	3.075	Win2	0.6957	n/a	Yes	3.075	n/a	n/a	GoodResponse	1	0.0	n/a	8	68	ISIslide	Win	True
652.42	0.25	Win2	0.7	0.0	Yes	3.23	0.02	n/a	GoodResponse	1	n/a	n/a	9	69	Cue	Win	True
652.67	3.95	Win2	0.7	0.0	Yes	3.23	0.0	n/a	GoodResponse	1	n/a	n/a	9	69	Fixation	Win	True
656.616	0.32	Win2	0.7	0.004	Yes	3.23	-0.004	4.0	GoodResponse	1	0.183	655.799	9	69	Target	Win	True
656.799	0.3	Win2	0.7	0.004	Yes	3.23	-0.004	4.0	GoodResponse	1	0.183	n/a	9	69	ButtonPress	Win	True
656.95	0.38	Win2	0.7	n/a	Yes	3.23	n/a	n/a	GoodResponse	1	n/a	n/a	9	69	Blank	Win	True
657.318	1.45	Win2	0.7	n/a	Yes	3.23	n/a	5.0	GoodResponse	1	0.019	656.337	9	69	Feedback	Win	True
658.772	3.23	Win2	0.7	n/a	Yes	3.23	n/a	n/a	GoodResponse	1	0.0	n/a	9	69	ISIslide	Win	True
662.032	0.25	Lose2	0.7042	0.0	Yes	3.018	0.032	n/a	GoodResponse	0	n/a	n/a	9	70	Cue	AvoidedLoss	True
662.282	4.05	Lose2	0.7042	0.001	Yes	3.018	0.0	n/a	GoodResponse	0	n/a	n/a	9	70	Fixation	AvoidedLoss	True
666.328	0.31	Lose2	0.7042	0.004	Yes	3.018	-0.004	4.0	GoodResponse	0	0.252	665.58	9	70	Target	AvoidedLoss	True
666.58	0.3	Lose2	0.7042	0.004	Yes	3.018	-0.004	4.0	GoodResponse	0	0.252	n/a	9	70	ButtonPress	AvoidedLoss	True
666.646	0.39	Lose2	0.7042	n/a	Yes	3.018	n/a	n/a	GoodResponse	0	n/a	n/a	9	70	Blank	AvoidedLoss	True
667.03	1.45	Lose2	0.7042	n/a	Yes	3.018	n/a	5.0	GoodResponse	0	0.015	666.045	9	70	Feedback	AvoidedLoss	True
668.484	3.018	Lose2	0.7042	n/a	Yes	3.018	n/a	n/a	GoodResponse	0	0.0	n/a	9	70	ISIslide	AvoidedLoss	True
671.527	0.25	Win2	0.6944	0.0	No	2.723	0.027	n/a	NoResponse	0	n/a	n/a	9	71	Cue	MissedWin	False
671.778	4.05	Win2	0.6944	0.0	No	2.723	0.001	n/a	NoResponse	0	n/a	n/a	9	71	Fixation	MissedWin	False
675.823	0.3	Win2	0.6944	0.004	No	2.723	-0.004	n/a	NoResponse	0	n/a	n/a	9	71	Target	MissedWin	False
676.124	0.4	Win2	0.6944	n/a	No	2.723	n/a	n/a	NoResponse	0	n/a	n/a	9	71	Blank	MissedWin	False
676.525	1.45	Win2	0.6944	n/a	No	2.723	n/a	5.0	NoResponse	0	0.032	675.557	9	71	Feedback	MissedWin	False
677.979	2.723	Win2	0.6944	n/a	No	2.723	n/a	n/a	NoResponse	0	0.0	n/a	9	71	ISIslide	MissedWin	False
680.721	0.25	Win2	0.6849	0.0	No	2.779	0.021	n/a	NoResponse	0	n/a	n/a	9	72	Cue	MissedWin	False
680.972	4.1	Win2	0.6849	0.0	No	2.779	0.001	n/a	NoResponse	0	n/a	n/a	9	72	Fixation	MissedWin	False
685.067	0.29	Win2	0.6849	0.004	No	2.779	-0.004	n/a	NoResponse	0	n/a	n/a	9	72	Target	MissedWin	False
685.368	0.41	Win2	0.6849	n/a	No	2.779	n/a	n/a	NoResponse	0	n/a	n/a	9	72	Blank	MissedWin	False
685.769	1.45	Win2	0.6849	n/a	No	2.779	n/a	5.0	NoResponse	0	0.007	684.776	9	72	Feedback	MissedWin	False
687.224	2.779	Win2	0.6849	n/a	No	2.779	n/a	n/a	NoResponse	0	0.0	n/a	9	72	ISIslide	MissedWin	False
690.016	0.25	Win2	0.6892	0.0	Yes	2.684	0.016	4.0	GoodResponse	1	0.224	689.24	10	73	Cue	Win	False
690.24	0.3	Win2	0.6892	0.0	Yes	2.684	0.016	4.0	GoodResponse	1	0.224	n/a	10	73	ButtonPress	Win	False
690.266	4.0	Win2	0.6892	0.0	Yes	2.684	0.0	n/a	GoodResponse	1	n/a	n/a	10	73	Fixation	Win	False
694.262	0.28	Win2	0.6892	0.004	Yes	2.684	-0.004	4.0	GoodResponse	1	0.223	693.485	10	73	Target	Win	False
694.485	0.3	Win2	0.6892	0.004	Yes	2.684	-0.004	4.0	GoodResponse	1	0.223	n/a	10	73	ButtonPress	Win	False
694.546	0.42	Win2	0.6892	n/a	Yes	2.684	n/a	n/a	GoodResponse	1	n/a	n/a	10	73	Blank	Win	False
694.964	1.45	Win2	0.6892	n/a	Yes	2.684	n/a	5.0	GoodResponse	1	0.031	693.995	10	73	Feedback	Win	False
696.418	2.684	Win2	0.6892	n/a	Yes	2.684	n/a	n/a	GoodResponse	1	0.0	n/a	10	73	ISIslide	Win	False
699.126	0.25	Lose2	0.6933	0.0	Yes	2.624	0.026	n/a	GoodResponse	0	n/a	n/a	10	74	Cue	AvoidedLoss	True
699.377	4.05	Lose2	0.6933	0.0	Yes	2.624	0.001	n/a	GoodResponse	0	n/a	n/a	10	74	Fixation	AvoidedLoss	True
703.422	0.27	Lose2	0.6933	0.004	Yes	2.624	-0.004	4.0	GoodResponse	0	0.229	702.651	10	74	Target	AvoidedLoss	True
703.651	0.3	Lose2	0.6933	0.004	Yes	2.624	-0.004	4.0	GoodResponse	0	0.229	n/a	10	74	ButtonPress	AvoidedLoss	True
703.706	0.43	Lose2	0.6933	n/a	Yes	2.624	n/a	n/a	GoodResponse	0	n/a	n/a	10	74	Blank	AvoidedLoss	True
704.124	1.45	Lose2	0.6933	n/a	Yes	2.624	n/a	5.0	GoodResponse	0	0.042	703.166	10	74	Feedback	AvoidedLoss	True
705.579	2.624	Lose2	0.6933	n/a	Yes	2.624	n/a	n/a	GoodResponse	0	0.0	n/a	10	74	ISIslide	AvoidedLoss	True
708.22	0.25	Lose2	0.6973999999999999	0.0	Yes	2.93	0.02	n/a	GoodResponse	0	n/a	n/a	10	75	Cue	AvoidedLoss	True
708.471	3.95	Lose2	0.6973999999999999	0.0	Yes	2.93	0.001	n/a	GoodResponse	0	n/a	n/a	10	75	Fixation	AvoidedLoss	True
712.416	0.26	Lose2	0.6973999999999999	0.004	Yes	2.93	-0.004	4.0	GoodResponse	0	0.23	711.646	10	75	Target	AvoidedLoss	True
712.646	0.3	Lose2	0.6973999999999999	0.004	Yes	2.93	-0.004	4.0	GoodResponse	0	0.23	n/a	10	75	ButtonPress	AvoidedLoss	True
712.683	0.44	Lose2	0.6973999999999999	n/a	Yes	2.93	n/a	n/a	GoodResponse	0	n/a	n/a	10	75	Blank	AvoidedLoss	True
713.118	1.45	Lose2	0.6973999999999999	n/a	Yes	2.93	n/a	5.0	GoodResponse	0	0.024	712.142	10	75	Feedback	AvoidedLoss	True
714.572	2.93	Lose2	0.6973999999999999	n/a	Yes	2.93	n/a	n/a	GoodResponse	0	0.0	n/a	10	75	ISIslide	AvoidedLoss	True
717.514	0.25	Control	0.6883	0.001	No	3.236	0.014	n/a	NoResponse	0	n/a	n/a	10	76	Cue	Neutral	True
717.765	4.05	Control	0.6883	0.0	No	3.236	0.001	n/a	NoResponse	0	n/a	n/a	10	76	Fixation	Neutral	True
721.811	0.25	Control	0.6883	0.003	No	3.236	-0.003	4.0	NoResponse	0	0.665	721.476	10	76	Target	Neutral	True
722.061	0.45	Control	0.6883	n/a	No	3.236	n/a	n/a	NoResponse	0	n/a	n/a	10	76	Blank	Neutral	True
722.476	0.3	Control	0.6883	0.003	No	3.236	-0.003	4.0	NoResponse	0	0.665	n/a	10	76	ButtonPress	Neutral	True
722.513	1.45	Control	0.6883	n/a	No	3.236	n/a	5.0	NoResponse	0	0.043	721.556	10	76	Feedback	Neutral	True
723.967	3.236	Control	0.6883	n/a	No	3.236	n/a	n/a	NoResponse	0	0.0	n/a	10	76	ISIslide	Neutral	True
727.227	0.25	Lose2	0.6795	0.0	No	2.573	0.027	n/a	NoResponse	-1	n/a	n/a	9	77	Cue	Loss	False
727.478	3.95	Lose2	0.6795	0.0	No	2.573	0.001	n/a	NoResponse	-1	n/a	n/a	9	77	Fixation	Loss	False
731.423	0.24	Lose2	0.6795	0.004	No	2.573	-0.004	n/a	NoResponse	-1	n/a	n/a	9	77	Target	Loss	False
731.674	0.46	Lose2	0.6795	n/a	No	2.573	n/a	n/a	NoResponse	-1	n/a	n/a	9	77	Blank	Loss	False
732.125	1.45	Lose2	0.6795	n/a	No	2.573	n/a	5.0	NoResponse	-1	0.04	731.165	9	77	Feedback	Loss	False
733.579	2.573	Lose2	0.6795	n/a	No	2.573	n/a	n/a	NoResponse	-1	0.0	n/a	9	77	ISIslide	Loss	False
