onset	duration	cue_type	current_mean_accuracy	duration_error	is_hit	isi_adjusted	onset_delay	response	response_type	reward	rt	rt_time	total_reward	trial_number	trial_phase	trial_type	one_press
11.11	0.25	Control	1.0	0.0	Yes	2.94	0.01	n/a	GoodResponse	0	n/a	n/a	0	0	Cue	Neutral	True
11.36	3.85	Control	1.0	0.0	Yes	2.94	0.0	n/a	GoodResponse	0	n/a	n/a	0	0	Fixation	Neutral	True
15.208	0.4	Control	1.0	0.002	Yes	2.94	-0.002	3.0	GoodResponse	0	0.278	14.486	0	0	Target	Neutral	True
15.486	0.3	Control	1.0	0.002	Yes	2.94	-0.002	3.0	GoodResponse	0	0.278	n/a	0	0	ButtonPress	Neutral	True
15.608	0.3	Control	1.0	n/a	Yes	2.94	n/a	n/a	GoodResponse	0	n/a	n/a	0	0	Blank	Neutral	True
15.908	1.45	Control	1.0	n/a	Yes	2.94	n/a	5.0	GoodResponse	0	0.017	14.925	0	0	Feedback	Neutral	True
17.358	2.94	Control	1.0	n/a	Yes	2.94	n/a	n/a	GoodResponse	0	0.0	n/a	0	0	ISIslide	Neutral	True
20.323	0.25	Lose2	1.0	0.0	Yes	2.777	0.023	n/a	GoodResponse	0	n/a	n/a	0	1	Cue	AvoidedLoss	True
20.573	4.0	Lose2	1.0	0.0	Yes	2.777	0.0	n/a	GoodResponse	0	n/a	n/a	0	1	Fixation	AvoidedLoss	True
24.572	0.39	Lose2	1.0	0.001	Yes	2.777	-0.001	3.0	GoodResponse	0	0.244	23.816	0	1	Target	AvoidedLoss	True
24.816	0.3	Lose2	1.0	0.001	Yes	2.777	-0.001	3.0	GoodResponse	0	0.244	n/a	0	1	ButtonPress	AvoidedLoss	True
24.972	0.31	Lose2	1.0	n/a	Yes	2.777	n/a	n/a	GoodResponse	0	n/a	n/a	0	1	Blank	AvoidedLoss	True
25.272	1.45	Lose2	1.0	n/a	Yes	2.777	n/a	5.0	GoodResponse	0	0.019	24.291	0	1	Feedback	AvoidedLoss	True
26.721	2.777	Lose2	1.0	n/a	Yes	2.777	n/a	n/a	GoodResponse	0	0.0	n/a	0	1	ISIslide	AvoidedLoss	True
29.52	0.25	Control	1.0	0.0	Yes	2.58	0.02	n/a	GoodResponse	0	n/a	n/a	0	2	Cue	Neutral	True
29.77	4.1	Control	1.0	0.0	Yes	2.58	0.0	n/a	GoodResponse	0	n/a	n/a	0	2	Fixation	Neutral	True
33.869	0.38	Control	1.0	0.001	Yes	2.58	-0.001	3.0	GoodResponse	0	0.203	33.072	0	2	Target	Neutral	True
34.072	0.3	Control	1.0	0.001	Yes	2.58	-0.001	3.0	GoodResponse	0	0.203	n/a	0	2	ButtonPress	Neutral	True
34.252	0.32	Control	1.0	n/a	Yes	2.58	n/a	n/a	GoodResponse	0	n/a	n/a	0	2	Blank	Neutral	True
34.568	1.45	Control	1.0	n/a	Yes	2.58	n/a	5.0	GoodResponse	0	0.04	33.608	0	2	Feedback	Neutral	True
36.018	2.58	Control	1.0	n/a	Yes	2.58	n/a	n/a	GoodResponse	0	0.0	n/a	0	2	ISIslide	Neutral	True
38.617	0.25	Win2	0.75	0.0	No	2.833	0.017	n/a	NoResponse	0	n/a	n/a	0	3	Cue	MissedWin	True
38.867	3.95	Win2	0.75	0.0	No	2.833	0.0	n/a	NoResponse	0	n/a	n/a	0	3	Fixation	MissedWin	True
42.816	0.37	Win2	0.75	0.001	No	2.833	-0.001	3.0	NoResponse	0	0.406	42.222	0	3	Target	MissedWin	True
43.199	0.33	Win2	0.75	n/a	No	2.833	n/a	n/a	NoResponse	0	n/a	n/a	0	3	Blank	MissedWin	True
43.222	0.3	Win2	0.75	0.001	No	2.833	-0.001	3.0	NoResponse	0	0.406	n/a	0	3	ButtonPress	MissedWin	True
43.515	1.45	Win2	0.75	n/a	No	2.833	n/a	5.0	NoResponse	0	0.02	42.535	0	3	Feedback	MissedWin	True
44.965	2.833	Win2	0.75	n/a	No	2.833	n/a	n/a	NoResponse	0	0.0	n/a	0	3	ISIslide	MissedWin	True
47.814	0.25	Win2	0.8	0.0	Yes	3.286	0.014	n/a	GoodResponse	1	n/a	n/a	1	4	Cue	Win	True
48.064	4.0	Win2	0.8	0.0	Yes	3.286	0.0	n/a	GoodResponse	1	n/a	n/a	1	4	Fixation	Win	True
52.062	0.36	Win2	0.8	0.002	Yes	3.286	-0.002	3.0	GoodResponse	1	0.2	51.262	1	4	Target	Win	True
52.262	0.3	Win2	0.8	0.002	Yes	3.286	-0.002	3.0	GoodResponse	1	0.2	n/a	1	4	ButtonPress	Win	True
52.429	0.34	Win2	0.8	n/a	Yes	3.286	n/a	n/a	GoodResponse	1	n/a	n/a	1	4	Blank	Win	True
52.762	1.45	Win2	0.8	n/a	Yes	3.286	n/a	5.0	GoodResponse	1	0.041	51.803	1	4	Feedback	Win	True
54.212	3.286	Win2	0.8	n/a	Yes	3.286	n/a	n/a	GoodResponse	1	0.0	n/a	1	4	ISIslide	Win	True
57.527	0.25	Win2	0.8332999999999999	0.0	Yes	2.773	0.027	n/a	GoodResponse	1	n/a	n/a	2	5	Cue	Win	True
57.777	4.0	Win2	0.8332999999999999	0.0	Yes	2.773	0.0	n/a	GoodResponse	1	n/a	n/a	2	5	Fixation	Win	True
61.776	0.35	Win2	0.8332999999999999	0.001	Yes	2.773	-0.001	3.0	GoodResponse	1	0.225	61.001	2	5	Target	Win	True
62.001	0.3	Win2	0.8332999999999999	0.001	Yes	2.773	-0.001	3.0	GoodResponse	1	0.225	n/a	2	5	ButtonPress	Win	True
62.125	0.35	Win2	0.8332999999999999	n/a	Yes	2.773	n/a	n/a	GoodResponse	1	n/a	n/a	2	5	Blank	Win	True
62.475	1.45	Win2	0.8332999999999999	n/a	Yes	2.773	n/a	5.0	GoodResponse	1	0.035	61.51	2	5	Feedback	Win	True
63.925	2.773	Win2	0.8332999999999999	n/a	Yes	2.773	n/a	n/a	GoodResponse	1	0.0	n/a	2	5	ISIslide	Win	True
66.724	0.25	Lose2	0.8571	0.0	Yes	2.726	0.024	n/a	GoodResponse	0	n/a	n/a	2	6	Cue	AvoidedLoss	True
66.974	3.95	Lose2	0.8571	0.0	Yes	2.726	0.0	n/a	GoodResponse	0	n/a	n/a	2	6	Fixation	AvoidedLoss	True
70.922	0.34	Lose2	0.8571	0.002	Yes	2.726	-0.002	3.0	GoodResponse	0	0.214	70.136	2	6	Target	AvoidedLoss	True
71.136	0.3	Lose2	0.8571	0.002	Yes	2.726	-0.002	3.0	GoodResponse	0	0.214	n/a	2	6	ButtonPress	AvoidedLoss	True
71.272	0.36	Lose2	0.8571	n/a	Yes	2.726	n/a	n/a	GoodResponse	0	n/a	n/a	2	6	Blank	AvoidedLoss	True
71.622	1.45	Lose2	0.8571	n/a	Yes	2.726	n/a	5.0	GoodResponse	0	0.01	70.632	2	6	Feedback	AvoidedLoss	True
73.072	2.726	Lose2	0.8571	n/a	Yes	2.726	n/a	n/a	GoodResponse	0	0.0	n/a	2	6	ISIslide	AvoidedLoss	True
75.821	0.25	Lose2	0.875	0.0	Yes	4.029	0.021	n/a	GoodResponse	0	n/a	n/a	2	7	Cue	AvoidedLoss	True
76.071	4.05	Lose2	0.875	0.0	Yes	4.029	0.0	n/a	GoodResponse	0	n/a	n/a	2	7	Fixation	AvoidedLoss	True
80.119	0.33	Lose2	0.875	0.002	Yes	4.029	-0.002	3.0	GoodResponse	0	0.232	79.351	2	7	Target	AvoidedLoss	True
80.351	0.3	Lose2	0.875	0.002	Yes	4.029	-0.002	3.0	GoodResponse	0	0.232	n/a	2	7	ButtonPress	AvoidedLoss	True
80.452	0.37	Lose2	0.875	n/a	Yes	4.029	n/a	n/a	GoodResponse	0	n/a	n/a	2	7	Blank	AvoidedLoss	True
80.819	1.45	Lose2	0.875	n/a	Yes	4.029	n/a	5.0	GoodResponse	0	0.033	79.852	2	7	Feedback	AvoidedLoss	True
82.268	4.029	Lose2	0.875	n/a	Yes	4.029	n/a	n/a	GoodResponse	0	0.0	n/a	2	7	ISIslide	AvoidedLoss	True
86.317	0.25	Lose2	0.8889	0.0	Yes	3.033	0.017	n/a	GoodResponse	0	n/a	n/a	2	8	Cue	AvoidedLoss	True
86.567	3.95	Lose2	0.8889	0.0	Yes	3.033	0.0	n/a	GoodResponse	0	n/a	n/a	2	8	Fixation	AvoidedLoss	True
90.516	0.32	Lose2	0.8889	0.001	Yes	3.033	-0.001	3.0	GoodResponse	0	0.225	89.741	2	8	Target	AvoidedLoss	True
90.741	0.3	Lose2	0.8889	0.001	Yes	3.033	-0.001	3.0	GoodResponse	0	0.225	n/a	2	8	ButtonPress	AvoidedLoss	True
90.849	0.38	Lose2	0.8889	n/a	Yes	3.033	n/a	n/a	GoodResponse	0	n/a	n/a	2	8	Blank	AvoidedLoss	True
91.215	1.45	Lose2	0.8889	n/a	Yes	3.033	n/a	5.0	GoodResponse	0	0.027	90.242	2	8	Feedback	AvoidedLoss	True
92.665	3.033	Lose2	0.8889	n/a	Yes	3.033	n/a	n/a	GoodResponse	0	0.0	n/a	2	8	ISIslide	AvoidedLoss	True
95.714	0.25	Lose2	0.9	0.0	Yes	3.136	0.014	n/a	GoodResponse	0	n/a	n/a	2	9	Cue	AvoidedLoss	True
95.964	3.95	Lose2	0.9	0.0	Yes	3.136	0.0	n/a	GoodResponse	0	n/a	n/a	2	9	Fixation	AvoidedLoss	True
99.912	0.31	Lose2	0.9	0.002	Yes	3.136	-0.002	3.0	GoodResponse	0	0.214	99.126	2	9	Target	AvoidedLoss	True
100.126	0.3	Lose2	0.9	0.002	Yes	3.136	-0.002	3.0	GoodResponse	0	0.214	n/a	2	9	ButtonPress	AvoidedLoss	True
100.229	0.39	Lose2	0.9	n/a	Yes	3.136	n/a	n/a	GoodResponse	0	n/a	n/a	2	9	Blank	AvoidedLoss	True
100.612	1.45	Lose2	0.9	n/a	Yes	3.136	n/a	5.0	GoodResponse	0	0.045	99.657	2	9	Feedback	AvoidedLoss	True
102.062	3.136	Lose2	0.9	n/a	Yes	3.136	n/a	n/a	GoodResponse	0	0.0	n/a	2	9	ISIslide	AvoidedLoss	True
105.227	0.25	Control	0.9091	0.0	Yes	3.273	0.027	n/a	GoodResponse	0	n/a	n/a	2	10	Cue	Neutral	True
105.477	4.0	Control	0.9091	0.0	Yes	3.273	0.0	n/a	GoodResponse	0	n/a	n/a	2	10	Fixation	Neutral	True
109.476	0.3	Control	0.9091	0.001	Yes	3.273	-0.001	3.0	GoodResponse	0	0.215	108.691	2	10	Target	Neutral	True
109.691	0.3	Control	0.9091	0.001	Yes	3.273	-0.001	3.0	GoodResponse	0	0.215	n/a	2	10	ButtonPress	Neutral	True
109.775	0.4	Control	0.9091	n/a	Yes	3.273	n/a	n/a	GoodResponse	0	n/a	n/a	2	10	Blank	Neutral	True
110.175	1.45	Control	0.9091	n/a	Yes	3.273	n/a	5.0	GoodResponse	0	0.042	109.217	2	10	Feedback	Neutral	True
111.625	3.273	Control	0.9091	n/a	Yes	3.273	n/a	n/a	GoodResponse	0	0.0	n/a	2	10	ISIslide	Neutral	True
114.924	0.25	Lose2	0.8332999999999999	0.0	No	2.726	0.024	n/a	NoResponse	-1	n/a	n/a	1	11	Cue	Loss	True
115.174	4.05	Lose2	0.8332999999999999	0.0	No	2.726	0.0	n/a	NoResponse	-1	n/a	n/a	1	11	Fixation	Loss	True
119.222	0.29	Lose2	0.8332999999999999	0.002	No	2.726	-0.002	3.0	NoResponse	-1	0.373	118.595	1	11	Target	Loss	True
119.522	0.41	Lose2	0.8332999999999999	n/a	No	2.726	n/a	n/a	NoResponse	-1	n/a	n/a	1	11	Blank	Loss	True
119.595	0.3	Lose2	0.8332999999999999	0.002	No	2.726	-0.002	3.0	NoResponse	-1	0.373	n/a	1	11	ButtonPress	Loss	True
119.922	1.45	Lose2	0.8332999999999999	n/a	No	2.726	n/a	5.0	NoResponse	-1	0.002	118.924	1	11	Feedback	Loss	True
121.371	2.726	Lose2	0.8332999999999999	n/a	No	2.726	n/a	n/a	NoResponse	-1	0.0	n/a	1	11	ISIslide	Loss	True
124.12	0.25	Control	0.8462000000000001	0.001	Yes	2.98	0.02	n/a	GoodResponse	0	n/a	n/a	1	12	Cue	Neutral	True
124.37	3.9	Control	0.8462000000000001	0.0	Yes	2.98	0.0	n/a	GoodResponse	0	n/a	n/a	1	12	Fixation	Neutral	True
128.269	0.28	Control	0.8462000000000001	0.001	Yes	2.98	-0.001	3.0	GoodResponse	0	0.243	127.512	1	12	Target	Neutral	True
128.512	0.3	Control	0.8462000000000001	0.001	Yes	2.98	-0.001	3.0	GoodResponse	0	0.243	n/a	1	12	ButtonPress	Neutral	True
128.552	0.42	Control	0.8462000000000001	n/a	Yes	2.98	n/a	n/a	GoodResponse	0	n/a	n/a	1	12	Blank	Neutral	True
128.969	1.45	Control	0.8462000000000001	n/a	Yes	2.98	n/a	5.0	GoodResponse	0	0.029	127.998	1	12	Feedback	Neutral	True
130.418	2.98	Control	0.8462000000000001	n/a	Yes	2.98	n/a	n/a	GoodResponse	0	0.0	n/a	1	12	ISIslide	Neutral	True
133.417	0.25	Control	0.8571	0.0	Yes	2.783	0.017	n/a	GoodResponse	0	n/a	n/a	1	13	Cue	Neutral	True
133.667	4.0	Control	0.8571	0.0	Yes	2.783	0.0	n/a	GoodResponse	0	n/a	n/a	1	13	Fixation	Neutral	True
137.666	0.27	Control	0.8571	0.001	Yes	2.783	-0.001	3.0	GoodResponse	0	0.197	136.863	1	13	Target	Neutral	True
137.863	0.3	Control	0.8571	0.001	Yes	2.783	-0.001	3.0	GoodResponse	0	0.197	n/a	1	13	ButtonPress	Neutral	True
137.949	0.43	Control	0.8571	n/a	Yes	2.783	n/a	n/a	GoodResponse	0	n/a	n/a	1	13	Blank	Neutral	True
138.366	1.45	Control	0.8571	n/a	Yes	2.783	n/a	5.0	GoodResponse	0	0.046	137.412	1	13	Feedback	Neutral	True
139.815	2.783	Control	0.8571	n/a	Yes	2.783	n/a	n/a	GoodResponse	0	0.0	n/a	1	13	ISIslide	Neutral	True
142.631	0.25	Win2	0.8667	0.0	Yes	2.669	0.031	n/a	GoodResponse	1	n/a	n/a	2	14	Cue	Win	True
142.881	4.1	Win2	0.8667	0.0	Yes	2.669	0.0	n/a	GoodResponse	1	n/a	n/a	2	14	Fixation	Win	True
146.979	0.26	Win2	0.8667	0.002	Yes	2.669	-0.002	3.0	GoodResponse	1	0.236	146.215	2	14	Target	Win	True
147.215	0.3	Win2	0.8667	0.002	Yes	2.669	-0.002	3.0	GoodResponse	1	0.236	n/a	2	14	ButtonPress	Win	True
147.246	0.44	Win2	0.8667	n/a	Yes	2.669	n/a	n/a	GoodResponse	1	n/a	n/a	2	14	Blank	Win	True
147.679	1.45	Win2	0.8667	n/a	Yes	2.669	n/a	5.0	GoodResponse	1	0.002	146.681	2	14	Feedback	Win	True
149.128	2.669	Win2	0.8667	n/a	Yes	2.669	n/a	n/a	GoodResponse	1	0.0	n/a	2	14	ISIslide	Win	True
151.827	0.25	Control	0.875	0.001	Yes	2.973	0.027	n/a	GoodResponse	0	n/a	n/a	2	15	Cue	Neutral	True
152.077	4.0	Control	0.875	0.001	Yes	2.973	0.0	n/a	GoodResponse	0	n/a	n/a	2	15	Fixation	Neutral	True
156.076	0.25	Control	0.875	0.001	Yes	2.973	-0.001	3.0	GoodResponse	0	0.217	155.293	2	15	Target	Neutral	True
156.293	0.3	Control	0.875	0.001	Yes	2.973	-0.001	3.0	GoodResponse	0	0.217	n/a	2	15	ButtonPress	Neutral	True
156.326	0.45	Control	0.875	n/a	Yes	2.973	n/a	n/a	GoodResponse	0	n/a	n/a	2	15	Blank	Neutral	True
156.776	1.45	Control	0.875	n/a	Yes	2.973	n/a	5.0	GoodResponse	0	0.026	155.802	2	15	Feedback	Neutral	True
158.225	2.973	Control	0.875	n/a	Yes	2.973	n/a	n/a	GoodResponse	0	0.0	n/a	2	15	ISIslide	Neutral	True
161.224	0.25	Win2	0.8824	0.0	Yes	2.876	0.024	n/a	GoodResponse	1	n/a	n/a	3	16	Cue	Win	True
161.474	4.0	Win2	0.8824	0.0	Yes	2.876	0.0	n/a	GoodResponse	1	n/a	n/a	3	16	Fixation	Win	True
165.473	0.24	Win2	0.8824	0.001	Yes	2.876	-0.001	3.0	GoodResponse	1	0.2	164.673	3	16	Target	Win	True
165.673	0.3	Win2	0.8824	0.001	Yes	2.876	-0.001	3.0	GoodResponse	1	0.2	n/a	3	16	ButtonPress	Win	True
165.723	0.46	Win2	0.8824	n/a	Yes	2.876	n/a	n/a	GoodResponse	1	n/a	n/a	3	16	Blank	Win	True
166.172	1.45	Win2	0.8824	n/a	Yes	2.876	n/a	5.0	GoodResponse	1	0.045	165.217	3	16	Feedback	Win	True
167.622	2.876	Win2	0.8824	n/a	Yes	2.876	n/a	n/a	GoodResponse	1	0.0	n/a	3	16	ISIslide	Win	True
170.521	0.25	Lose2	0.8889	0.0	Yes	2.729	0.021	n/a	GoodResponse	0	n/a	n/a	3	17	Cue	AvoidedLoss	True
170.771	3.95	Lose2	0.8889	0.0	Yes	2.729	0.0	n/a	GoodResponse	0	n/a	n/a	3	17	Fixation	AvoidedLoss	True
174.719	0.23	Lose2	0.8889	0.002	Yes	2.729	-0.002	3.0	GoodResponse	0	0.192	173.911	3	17	Target	AvoidedLoss	True
174.911	0.3	Lose2	0.8889	0.002	Yes	2.729	-0.002	3.0	GoodResponse	0	0.192	n/a	3	17	ButtonPress	AvoidedLoss	True
174.953	0.47	Lose2	0.8889	n/a	Yes	2.729	n/a	n/a	GoodResponse	0	n/a	n/a	3	17	Blank	AvoidedLoss	True
175.419	1.45	Lose2	0.8889	n/a	Yes	2.729	n/a	5.0	GoodResponse	0	0.017	174.436	3	17	Feedback	AvoidedLoss	True
176.869	2.729	Lose2	0.8889	n/a	Yes	2.729	n/a	n/a	GoodResponse	0	0.0	n/a	3	17	ISIslide	AvoidedLoss	True
179.618	0.25	Lose2	0.8946999999999999	0.0	Yes	2.732	0.018	n/a	GoodResponse	0	n/a	n/a	3	18	Cue	AvoidedLoss	True
179.868	4.05	Lose2	0.8946999999999999	0.0	Yes	2.732	0.0	n/a	GoodResponse	0	n/a	n/a	3	18	Fixation	AvoidedLoss	True
183.916	0.22	Lose2	0.8946999999999999	0.002	Yes	2.732	-0.002	3.0	GoodResponse	0	0.213	183.129	3	18	Target	AvoidedLoss	True
184.129	0.3	Lose2	0.8946999999999999	0.002	Yes	2.732	-0.002	3.0	GoodResponse	0	0.213	n/a	3	18	ButtonPress	AvoidedLoss	True
184.15	0.48	Lose2	0.8946999999999999	n/a	Yes	2.732	n/a	n/a	GoodResponse	0	n/a	n/a	3	18	Blank	AvoidedLoss	True
184.616	1.45	Lose2	0.8946999999999999	n/a	Yes	2.732	n/a	5.0	GoodResponse	0	0.04	183.656	3	18	Feedback	AvoidedLoss	True
186.066	2.732	Lose2	0.8946999999999999	n/a	Yes	2.732	n/a	n/a	GoodResponse	0	0.0	n/a	3	18	ISIslide	AvoidedLoss	True
188.815	0.25	Control	0.85	0.0	No	2.935	0.015	n/a	NoResponse	0	n/a	n/a	3	19	Cue	Neutral	True
189.064	3.95	Control	0.85	0.001	No	2.935	-0.001	n/a	NoResponse	0	n/a	n/a	3	19	Fixation	Neutral	True
193.013	0.21	Control	0.85	0.002	No	2.935	-0.002	3.0	NoResponse	0	0.293	192.306	3	19	Target	Neutral	True
193.23	0.49	Control	0.85	n/a	No	2.935	n/a	n/a	NoResponse	0	n/a	n/a	3	19	Blank	Neutral	True
193.306	0.3	Control	0.85	0.002	No	2.935	-0.002	3.0	NoResponse	0	0.293	n/a	3	19	ButtonPress	Neutral	True
193.713	1.45	Control	0.85	n/a	No	2.935	n/a	5.0	NoResponse	0	0.016	192.729	3	19	Feedback	Neutral	True
195.162	2.935	Control	0.85	n/a	No	2.935	n/a	n/a	NoResponse	0	0.0	n/a	3	19	ISIslide	Neutral	True
198.128	0.25	Control	0.8095	0.0	No	2.622	0.028	n/a	NoResponse	0	n/a	n/a	3	20	Cue	Neutral	True
198.378	4.05	Control	0.8095	0.0	No	2.622	0.0	n/a	NoResponse	0	n/a	n/a	3	20	Fixation	Neutral	True
202.426	0.2	Control	0.8095	0.002	No	2.622	-0.002	3.0	NoResponse	0	0.266	201.692	3	20	Target	Neutral	True
202.626	0.5	Control	0.8095	n/a	No	2.622	n/a	n/a	NoResponse	0	n/a	n/a	3	20	Blank	Neutral	True
202.692	0.3	Control	0.8095	0.002	No	2.622	-0.002	3.0	NoResponse	0	0.266	n/a	3	20	ButtonPress	Neutral	True
203.126	1.45	Control	0.8095	n/a	No	2.622	n/a	5.0	NoResponse	0	0.018	202.144	3	20	Feedback	Neutral	True
204.576	2.622	Control	0.8095	n/a	No	2.622	n/a	n/a	NoResponse	0	0.0	n/a	3	20	ISIslide	Neutral	True
207.225	0.25	Control	0.7726999999999999	0.0	No	2.775	0.025	n/a	NoResponse	0	n/a	n/a	3	21	Cue	Neutral	True
207.475	4.1	Control	0.7726999999999999	0.0	No	2.775	0.0	n/a	NoResponse	0	n/a	n/a	3	21	Fixation	Neutral	True
211.573	0.19	Control	0.7726999999999999	0.002	No	2.775	-0.002	3.0	NoResponse	0	0.263	210.836	3	21	Target	Neutral	True
211.773	0.51	Control	0.7726999999999999	n/a	No	2.775	n/a	n/a	NoResponse	0	n/a	n/a	3	21	Blank	Neutral	True
211.836	0.3	Control	0.7726999999999999	0.002	No	2.775	-0.002	3.0	NoResponse	0	0.263	n/a	3	21	ButtonPress	Neutral	True
212.273	1.45	Control	0.7726999999999999	n/a	No	2.775	n/a	5.0	NoResponse	0	0.041	211.314	3	21	Feedback	Neutral	True
213.723	2.775	Control	0.7726999999999999	n/a	No	2.775	n/a	n/a	NoResponse	0	0.0	n/a	3	21	ISIslide	Neutral	True
216.522	0.25	Control	0.7391	0.0	No	2.778	0.022	n/a	NoResponse	0	n/a	n/a	3	22	Cue	Neutral	True
216.771	4.0	Control	0.7391	0.001	No	2.778	-0.001	n/a	NoResponse	0	n/a	n/a	3	22	Fixation	Neutral	True
220.77	0.18	Control	0.7391	0.002	No	2.778	-0.002	3.0	NoResponse	0	0.225	219.995	3	22	Target	Neutral	True
220.953	0.52	Control	0.7391	n/a	No	2.778	n/a	n/a	NoResponse	0	n/a	n/a	3	22	Blank	Neutral	True
220.995	0.3	Control	0.7391	0.002	No	2.778	-0.002	3.0	NoResponse	0	0.225	n/a	3	22	ButtonPress	Neutral	True
221.47	1.45	Control	0.7391	n/a	No	2.778	n/a	5.0	NoResponse	0	0.015	220.485	3	22	Feedback	Neutral	True
222.919	2.778	Control	0.7391	n/a	No	2.778	n/a	n/a	NoResponse	0	0.0	n/a	3	22	ISIslide	Neutral	True
225.718	0.25	Control	0.7082999999999999	0.0	No	2.782	0.018	n/a	NoResponse	0	n/a	n/a	3	23	Cue	Neutral	True
225.968	3.9	Control	0.7082999999999999	0.0	No	2.782	0.0	n/a	NoResponse	0	n/a	n/a	3	23	Fixation	Neutral	True
229.867	0.17	Control	0.7082999999999999	0.001	No	2.782	-0.001	3.0	NoResponse	0	0.239	229.106	3	23	Target	Neutral	True
230.034	0.53	Control	0.7082999999999999	n/a	No	2.782	n/a	n/a	NoResponse	0	n/a	n/a	3	23	Blank	Neutral	True
230.106	0.3	Control	0.7082999999999999	0.001	No	2.782	-0.001	3.0	NoResponse	0	0.239	n/a	3	23	ButtonPress	Neutral	True
230.567	1.45	Control	0.7082999999999999	n/a	No	2.782	n/a	5.0	NoResponse	0	0.04	229.607	3	23	Feedback	Neutral	True
232.016	2.782	Control	0.7082999999999999	n/a	No	2.782	n/a	n/a	NoResponse	0	0.0	n/a	3	23	ISIslide	Neutral	True
234.815	0.25	Win2	0.68	0.0	No	3.135	0.015	n/a	NoResponse	0	n/a	n/a	3	24	Cue	MissedWin	True
235.065	3.95	Win2	0.68	0.0	No	3.135	0.0	n/a	NoResponse	0	n/a	n/a	3	24	Fixation	MissedWin	True
239.014	0.16	Win2	0.68	0.001	No	3.135	-0.001	3.0	NoResponse	0	0.212	238.226	3	24	Target	MissedWin	True
239.18	0.54	Win2	0.68	n/a	No	3.135	n/a	n/a	NoResponse	0	n/a	n/a	3	24	Blank	MissedWin	True
239.226	0.3	Win2	0.68	0.001	No	3.135	-0.001	3.0	NoResponse	0	0.212	n/a	3	24	ButtonPress	MissedWin	True
239.713	1.45	Win2	0.68	n/a	No	3.135	n/a	5.0	NoResponse	0	0.016	238.729	3	24	Feedback	MissedWin	True
241.163	3.135	Win2	0.68	n/a	No	3.135	n/a	n/a	NoResponse	0	0.0	n/a	3	24	ISIslide	MissedWin	True
244.329	0.25	Win2	0.6537999999999999	0.0	No	3.071	0.029	n/a	NoResponse	0	n/a	n/a	3	25	Cue	MissedWin	True
244.578	4.0	Win2	0.6537999999999999	0.001	No	3.071	-0.001	n/a	NoResponse	0	n/a	n/a	3	25	Fixation	MissedWin	True
248.577	0.15	Win2	0.6537999999999999	0.002	No	3.071	-0.002	3.0	NoResponse	0	0.194	247.771	3	25	Target	MissedWin	True
248.727	0.55	Win2	0.6537999999999999	n/a	No	3.071	n/a	n/a	NoResponse	0	n/a	n/a	3	25	Blank	MissedWin	True
248.771	0.3	Win2	0.6537999999999999	0.002	No	3.071	-0.002	3.0	NoResponse	0	0.194	n/a	3	25	ButtonPress	MissedWin	True
249.277	1.45	Win2	0.6537999999999999	n/a	No	3.071	n/a	5.0	NoResponse	0	0.013	248.29	3	25	Feedback	MissedWin	True
250.726	3.071	Win2	0.6537999999999999	n/a	No	3.071	n/a	n/a	NoResponse	0	0.0	n/a	3	25	ISIslide	MissedWin	True
253.825	0.25	Win2	0.6296	0.0	No	2.925	0.025	n/a	NoResponse	0	n/a	n/a	3	26	Cue	MissedWin	True
254.075	3.95	Win2	0.6296	0.0	No	2.925	0.0	n/a	NoResponse	0	n/a	n/a	3	26	Fixation	MissedWin	True
258.024	0.16	Win2	0.6296	0.001	No	2.925	-0.001	3.0	NoResponse	0	0.198	257.222	3	26	Target	MissedWin	True
258.19	0.54	Win2	0.6296	n/a	No	2.925	n/a	n/a	NoResponse	0	n/a	n/a	3	26	Blank	MissedWin	True
258.222	0.3	Win2	0.6296	0.001	No	2.925	-0.001	3.0	NoResponse	0	0.198	n/a	3	26	ButtonPress	MissedWin	True
258.724	1.45	Win2	0.6296	n/a	No	2.925	n/a	5.0	NoResponse	0	0.028	257.752	3	26	Feedback	MissedWin	True
260.173	2.925	Win2	0.6296	n/a	No	2.925	n/a	n/a	NoResponse	0	0.0	n/a	3	26	ISIslide	MissedWin	True
263.122	0.25	Lose2	0.6071	0.0	No	2.828	0.022	n/a	NoResponse	-1	n/a	n/a	2	27	Cue	Loss	True
263.372	4.05	Lose2	0.6071	0.0	No	2.828	0.0	n/a	NoResponse	-1	n/a	n/a	2	27	Fixation	Loss	True
267.42	0.17	Lose2	0.6071	0.002	No	2.828	-0.002	3.0	NoResponse	-1	0.277	266.697	2	27	Target	Loss	True
267.604	0.53	Lose2	0.6071	n/a	No	2.828	n/a	n/a	NoResponse	-1	n/a	n/a	2	27	Blank	Loss	True
267.697	0.3	Lose2	0.6071	0.002	No	2.828	-0.002	3.0	NoResponse	-1	0.277	n/a	2	27	ButtonPress	Loss	True
268.12	1.45	Lose2	0.6071	n/a	No	2.828	n/a	5.0	NoResponse	-1	0.047	267.167	2	27	Feedback	Loss	True
269.57	2.828	Lose2	0.6071	n/a	No	2.828	n/a	n/a	NoResponse	-1	0.0	n/a	2	27	ISIslide	Loss	True
272.419	0.25	Control	0.5861999999999999	0.0	No	2.831	0.019	n/a	NoResponse	0	n/a	n/a	2	28	Cue	Neutral	True
272.669	4.05	Control	0.5861999999999999	0.0	No	2.831	0.0	n/a	NoResponse	0	n/a	n/a	2	28	Fixation	Neutral	True
276.717	0.18	Control	0.5861999999999999	0.002	No	2.831	-0.002	3.0	NoResponse	0	0.508	276.225	2	28	Target	Neutral	True
276.901	0.52	Control	0.5861999999999999	n/a	No	2.831	n/a	n/a	NoResponse	0	n/a	n/a	2	28	Blank	Neutral	True
277.225	0.3	Control	0.5861999999999999	0.002	No	2.831	-0.002	3.0	NoResponse	0	0.508	n/a	2	28	ButtonPress	Neutral	True
277.417	1.45	Control	0.5861999999999999	n/a	No	2.831	n/a	5.0	NoResponse	0	0.019	276.436	2	28	Feedback	Neutral	True
278.866	2.831	Control	0.5861999999999999	n/a	No	2.831	n/a	n/a	NoResponse	0	0.0	n/a	2	28	ISIslide	Neutral	True
281.715	0.25	Lose2	0.5667	0.001	No	2.835	0.015	n/a	NoResponse	-1	n/a	n/a	1	29	Cue	Loss	True
281.965	3.95	Lose2	0.5667	0.0	No	2.835	0.0	n/a	NoResponse	-1	n/a	n/a	1	29	Fixation	Loss	True
285.914	0.19	Lose2	0.5667	0.001	No	2.835	-0.001	3.0	NoResponse	-1	0.255	285.169	1	29	Target	Loss	True
286.114	0.51	Lose2	0.5667	n/a	No	2.835	n/a	n/a	NoResponse	-1	n/a	n/a	1	29	Blank	Loss	True
286.169	0.3	Lose2	0.5667	0.001	No	2.835	-0.001	3.0	NoResponse	-1	0.255	n/a	1	29	ButtonPress	Loss	True
286.614	1.45	Lose2	0.5667	n/a	No	2.835	n/a	5.0	NoResponse	-1	0.041	285.655	1	29	Feedback	Loss	True
288.063	2.835	Lose2	0.5667	n/a	No	2.835	n/a	n/a	NoResponse	-1	0.0	n/a	1	29	ISIslide	Loss	True
290.929	0.25	Win2	0.5484	0.0	No	2.771	0.029	n/a	NoResponse	0	n/a	n/a	1	30	Cue	MissedWin	True
291.179	3.9	Win2	0.5484	0.0	No	2.771	0.0	n/a	NoResponse	0	n/a	n/a	1	30	Fixation	MissedWin	True
295.078	0.2	Win2	0.5484	0.001	No	2.771	-0.001	3.0	NoResponse	0	0.222	294.3	1	30	Target	MissedWin	True
295.277	0.5	Win2	0.5484	n/a	No	2.771	n/a	n/a	NoResponse	0	n/a	n/a	1	30	Blank	MissedWin	True
295.3	0.3	Win2	0.5484	0.001	No	2.771	-0.001	3.0	NoResponse	0	0.222	n/a	1	30	ButtonPress	MissedWin	True
295.777	1.45	Win2	0.5484	n/a	No	2.771	n/a	5.0	NoResponse	0	0.049	294.826	1	30	Feedback	MissedWin	True
297.227	2.771	Win2	0.5484	n/a	No	2.771	n/a	n/a	NoResponse	0	0.0	n/a	1	30	ISIslide	MissedWin	True
300.026	0.25	Lose2	0.5625	0.0	Yes	2.824	0.026	n/a	GoodResponse	0	n/a	n/a	1	31	Cue	AvoidedLoss	True
300.276	4.05	Lose2	0.5625	0.0	Yes	2.824	0.0	n/a	GoodResponse	0	n/a	n/a	1	31	Fixation	AvoidedLoss	True
304.324	0.21	Lose2	0.5625	0.002	Yes	2.824	-0.002	3.0	GoodResponse	0	0.206	303.53	1	31	Target	AvoidedLoss	True
304.53	0.3	Lose2	0.5625	0.002	Yes	2.824	-0.002	3.0	GoodResponse	0	0.206	n/a	1	31	ButtonPress	AvoidedLoss	True
304.541	0.49	Lose2	0.5625	n/a	Yes	2.824	n/a	n/a	GoodResponse	0	n/a	n/a	1	31	Blank	AvoidedLoss	True
305.024	1.45	Lose2	0.5625	n/a	Yes	2.824	n/a	5.0	GoodResponse	0	0.021	304.045	1	31	Feedback	AvoidedLoss	True
306.474	2.824	Lose2	0.5625	n/a	Yes	2.824	n/a	n/a	GoodResponse	0	0.0	n/a	1	31	ISIslide	AvoidedLoss	True
309.323	0.25	Lose2	0.5455	0.0	No	2.627	0.023	n/a	NoResponse	-1	n/a	n/a	0	32	Cue	Loss	True
309.572	4.15	Lose2	0.5455	0.001	No	2.627	-0.001	n/a	NoResponse	-1	n/a	n/a	0	32	Fixation	Loss	True
313.721	0.22	Lose2	0.5455	0.002	No	2.627	-0.002	3.0	NoResponse	-1	0.241	312.962	0	32	Target	Loss	True
313.954	0.48	Lose2	0.5455	n/a	No	2.627	n/a	n/a	NoResponse	-1	n/a	n/a	0	32	Blank	Loss	True
313.962	0.3	Lose2	0.5455	0.002	No	2.627	-0.002	3.0	NoResponse	-1	0.241	n/a	0	32	ButtonPress	Loss	True
314.421	1.45	Lose2	0.5455	n/a	No	2.627	n/a	5.0	NoResponse	-1	0.038	313.459	0	32	Feedback	Loss	True
315.87	2.627	Lose2	0.5455	n/a	No	2.627	n/a	n/a	NoResponse	-1	0.0	n/a	0	32	ISIslide	Loss	True
318.519	0.25	Win2	0.5588000000000001	0.0	Yes	2.681	0.019	n/a	GoodResponse	1	n/a	n/a	1	33	Cue	Win	True
318.769	4.0	Win2	0.5588000000000001	0.0	Yes	2.681	0.0	n/a	GoodResponse	1	n/a	n/a	1	33	Fixation	Win	True
322.768	0.23	Win2	0.5588000000000001	0.001	Yes	2.681	-0.001	3.0	GoodResponse	1	0.17	321.938	1	33	Target	Win	True
322.938	0.3	Win2	0.5588000000000001	0.001	Yes	2.681	-0.001	3.0	GoodResponse	1	0.17	n/a	1	33	ButtonPress	Win	True
323.001	0.47	Win2	0.5588000000000001	n/a	Yes	2.681	n/a	n/a	GoodResponse	1	n/a	n/a	1	33	Blank	Win	True
323.468	1.45	Win2	0.5588000000000001	n/a	Yes	2.681	n/a	5.0	GoodResponse	1	0.016	322.484	1	33	Feedback	Win	True
324.917	2.681	Win2	0.5588000000000001	n/a	Yes	2.681	n/a	n/a	GoodResponse	1	0.0	n/a	1	33	ISIslide	Win	True
327.616	0.25	Lose2	0.5428999999999999	0.0	No	2.634	0.016	n/a	LatePress	-1	n/a	n/a	0	34	Cue	Loss	True
327.866	4.05	Lose2	0.5428999999999999	0.0	No	2.634	0.0	n/a	LatePress	-1	n/a	n/a	0	34	Fixation	Loss	True
331.915	0.24	Lose2	0.5428999999999999	0.001	No	2.634	-0.001	3.0	LatePress	-1	0.244	331.159	0	34	Target	Loss	True
332.159	0.3	Lose2	0.5428999999999999	0.001	No	2.634	-0.001	3.0	LatePress	-1	0.244	n/a	0	34	ButtonPress	Loss	True
332.165	0.46	Lose2	0.5428999999999999	n/a	No	2.634	n/a	n/a	LatePress	-1	n/a	n/a	0	34	Blank	Loss	True
332.614	1.45	Lose2	0.5428999999999999	n/a	No	2.634	n/a	5.0	LatePress	-1	0.041	331.655	0	34	Feedback	Loss	True
334.064	2.634	Lose2	0.5428999999999999	n/a	No	2.634	n/a	n/a	LatePress	-1	0.0	n/a	0	34	ISIslide	Loss	True
336.73	0.25	Lose2	0.5556	0.0	Yes	2.67	0.03	n/a	GoodResponse	0	n/a	n/a	0	35	Cue	AvoidedLoss	True
336.98	4.0	Lose2	0.5556	0.0	Yes	2.67	0.0	n/a	GoodResponse	0	n/a	n/a	0	35	Fixation	AvoidedLoss	True
340.978	0.25	Lose2	0.5556	0.002	Yes	2.67	-0.002	3.0	GoodResponse	0	0.23	340.208	0	35	Target	AvoidedLoss	True
341.208	0.3	Lose2	0.5556	0.002	Yes	2.67	-0.002	3.0	GoodResponse	0	0.23	n/a	0	35	ButtonPress	AvoidedLoss	True
341.228	0.45	Lose2	0.5556	n/a	Yes	2.67	n/a	n/a	GoodResponse	0	n/a	n/a	0	35	Blank	AvoidedLoss	True
341.678	1.45	Lose2	0.5556	n/a	Yes	2.67	n/a	5.0	GoodResponse	0	0.001	340.679	0	35	Feedback	AvoidedLoss	True
343.127	2.67	Lose2	0.5556	n/a	Yes	2.67	n/a	n/a	GoodResponse	0	0.0	n/a	0	35	ISIslide	AvoidedLoss	True
345.826	0.25	Control	0.5676	0.001	Yes	2.674	0.026	n/a	GoodResponse	0	n/a	n/a	0	36	Cue	Neutral	True
346.076	4.0	Control	0.5676	0.0	Yes	2.674	0.0	n/a	GoodResponse	0	n/a	n/a	0	36	Fixation	Neutral	True
350.075	0.26	Control	0.5676	0.001	Yes	2.674	-0.001	3.0	GoodResponse	0	0.249	349.324	0	36	Target	Neutral	True
350.324	0.3	Control	0.5676	0.001	Yes	2.674	-0.001	3.0	GoodResponse	0	0.249	n/a	0	36	ButtonPress	Neutral	True
350.342	0.44	Control	0.5676	n/a	Yes	2.674	n/a	n/a	GoodResponse	0	n/a	n/a	0	36	Blank	Neutral	True
350.775	1.45	Control	0.5676	n/a	Yes	2.674	n/a	5.0	GoodResponse	0	0.026	349.801	0	36	Feedback	Neutral	True
352.224	2.674	Control	0.5676	n/a	Yes	2.674	n/a	n/a	GoodResponse	0	0.0	n/a	0	36	ISIslide	Neutral	True
354.923	0.25	Win2	0.5789	0.0	Yes	2.877	0.023	n/a	GoodResponse	1	n/a	n/a	1	37	Cue	Win	True
355.173	4.0	Win2	0.5789	0.0	Yes	2.877	0.0	n/a	GoodResponse	1	n/a	n/a	1	37	Fixation	Win	True
359.172	0.27	Win2	0.5789	0.001	Yes	2.877	-0.001	3.0	GoodResponse	1	0.225	358.397	1	37	Target	Win	True
359.397	0.3	Win2	0.5789	0.001	Yes	2.877	-0.001	3.0	GoodResponse	1	0.225	n/a	1	37	ButtonPress	Win	True
359.438	0.43	Win2	0.5789	n/a	Yes	2.877	n/a	n/a	GoodResponse	1	n/a	n/a	1	37	Blank	Win	True
359.872	1.45	Win2	0.5789	n/a	Yes	2.877	n/a	5.0	GoodResponse	1	0.006	358.878	1	37	Feedback	Win	True
361.321	2.877	Win2	0.5789	n/a	Yes	2.877	n/a	n/a	GoodResponse	1	0.0	n/a	1	37	ISIslide	Win	True
364.22	0.25	Lose2	0.5897	0.0	Yes	2.83	0.02	n/a	GoodResponse	0	n/a	n/a	1	38	Cue	AvoidedLoss	True
364.47	3.95	Lose2	0.5897	0.0	Yes	2.83	0.0	n/a	GoodResponse	0	n/a	n/a	1	38	Fixation	AvoidedLoss	True
368.419	0.28	Lose2	0.5897	0.001	Yes	2.83	-0.001	3.0	GoodResponse	0	0.259	367.678	1	38	Target	AvoidedLoss	True
368.678	0.3	Lose2	0.5897	0.001	Yes	2.83	-0.001	3.0	GoodResponse	0	0.259	n/a	1	38	ButtonPress	AvoidedLoss	True
368.702	0.42	Lose2	0.5897	n/a	Yes	2.83	n/a	n/a	GoodResponse	0	n/a	n/a	1	38	Blank	AvoidedLoss	True
369.118	1.45	Lose2	0.5897	n/a	Yes	2.83	n/a	5.0	GoodResponse	0	0.024	368.142	1	38	Feedback	AvoidedLoss	True
370.568	2.83	Lose2	0.5897	n/a	Yes	2.83	n/a	n/a	GoodResponse	0	0.0	n/a	1	38	ISIslide	AvoidedLoss	True
373.417	0.25	Win2	0.6	0.0	Yes	2.983	0.017	n/a	GoodResponse	1	n/a	n/a	2	39	Cue	Win	True
373.667	4.1	Win2	0.6	0.0	Yes	2.983	0.0	n/a	GoodResponse	1	n/a	n/a	2	39	Fixation	Win	True
377.765	0.29	Win2	0.6	0.002	Yes	2.983	-0.002	3.0	GoodResponse	1	0.239	377.004	2	39	Target	Win	True
378.004	0.3	Win2	0.6	0.002	Yes	2.983	-0.002	3.0	GoodResponse	1	0.239	n/a	2	39	ButtonPress	Win	True
378.065	0.41	Win2	0.6	n/a	Yes	2.983	n/a	n/a	GoodResponse	1	n/a	n/a	2	39	Blank	Win	True
378.465	1.45	Win2	0.6	n/a	Yes	2.983	n/a	5.0	GoodResponse	1	0.043	377.508	2	39	Feedback	Win	True
379.915	2.983	Win2	0.6	n/a	Yes	2.983	n/a	n/a	GoodResponse	1	0.0	n/a	2	39	ISIslide	Win	True
382.93	0.25	Win2	0.6098	0.0	Yes	2.72	0.03	n/a	GoodResponse	1	n/a	n/a	3	40	Cue	Win	True
383.18	3.95	Win2	0.6098	0.0	Yes	2.72	0.0	n/a	GoodResponse	1	n/a	n/a	3	40	Fixation	Win	True
387.129	0.3	Win2	0.6098	0.001	Yes	2.72	-0.001	3.0	GoodResponse	1	0.235	386.364	3	40	Target	Win	True
387.364	0.3	Win2	0.6098	0.001	Yes	2.72	-0.001	3.0	GoodResponse	1	0.235	n/a	3	40	ButtonPress	Win	True
387.429	0.4	Win2	0.6098	n/a	Yes	2.72	n/a	n/a	GoodResponse	1	n/a	n/a	3	40	Blank	Win	True
387.828	1.45	Win2	0.6098	n/a	Yes	2.72	n/a	5.0	GoodResponse	1	0.046	386.874	3	40	Feedback	Win	True
389.278	2.72	Win2	0.6098	n/a	Yes	2.72	n/a	n/a	GoodResponse	1	0.0	n/a	3	40	ISIslide	Win	True
392.027	0.25	Win2	0.619	0.0	Yes	2.773	0.027	n/a	GoodResponse	1	n/a	n/a	4	41	Cue	Win	True
392.277	3.9	Win2	0.619	0.0	Yes	2.773	0.0	n/a	GoodResponse	1	n/a	n/a	4	41	Fixation	Win	True
396.176	0.31	Win2	0.619	0.001	Yes	2.773	-0.001	3.0	GoodResponse	1	0.224	395.4	4	41	Target	Win	True
396.4	0.3	Win2	0.619	0.001	Yes	2.773	-0.001	3.0	GoodResponse	1	0.224	n/a	4	41	ButtonPress	Win	True
396.492	0.39	Win2	0.619	n/a	Yes	2.773	n/a	n/a	GoodResponse	1	n/a	n/a	4	41	Blank	Win	True
396.875	1.45	Win2	0.619	n/a	Yes	2.773	n/a	5.0	GoodResponse	1	0.023	395.898	4	41	Feedback	Win	True
398.325	2.773	Win2	0.619	n/a	Yes	2.773	n/a	n/a	GoodResponse	1	0.0	n/a	4	41	ISIslide	Win	True
401.124	0.25	Control	0.6047	0.0	No	2.926	0.024	n/a	NoResponse	0	n/a	n/a	4	42	Cue	Neutral	True
401.374	3.85	Control	0.6047	0.0	No	2.926	0.0	n/a	NoResponse	0	n/a	n/a	4	42	Fixation	Neutral	True
405.222	0.32	Control	0.6047	0.002	No	2.926	-0.002	3.0	NoResponse	0	0.442	404.664	4	42	Target	Neutral	True
405.556	0.38	Control	0.6047	n/a	No	2.926	n/a	n/a	NoResponse	0	n/a	n/a	4	42	Blank	Neutral	True
405.664	0.3	Control	0.6047	0.002	No	2.926	-0.002	3.0	NoResponse	0	0.442	n/a	4	42	ButtonPress	Neutral	True
405.922	1.45	Control	0.6047	n/a	No	2.926	n/a	5.0	NoResponse	0	0.0	404.922	4	42	Feedback	Neutral	True
407.372	2.926	Control	0.6047	n/a	No	2.926	n/a	n/a	NoResponse	0	0.0	n/a	4	42	ISIslide	Neutral	True
410.321	0.25	Win2	0.5909	0.0	No	3.179	0.021	n/a	NoResponse	0	n/a	n/a	4	43	Cue	MissedWin	True
410.571	4.0	Win2	0.5909	0.0	No	3.179	0.0	3.0	NoResponse	0	3.997	413.568	4	43	Fixation	MissedWin	True
414.568	0.3	Win2	0.5909	0.0	No	3.179	0.0	3.0	NoResponse	0	3.997	n/a	4	43	ButtonPress	MissedWin	True
414.569	0.33	Win2	0.5909	0.002	No	3.179	-0.002	n/a	NoResponse	0	n/a	n/a	4	43	Target	MissedWin	True
414.902	0.37	Win2	0.5909	n/a	No	3.179	n/a	n/a	NoResponse	0	n/a	n/a	4	43	Blank	MissedWin	True
415.269	1.45	Win2	0.5909	n/a	No	3.179	n/a	5.0	NoResponse	0	0.019	414.288	4	43	Feedback	MissedWin	True
416.718	3.179	Win2	0.5909	n/a	No	3.179	n/a	n/a	NoResponse	0	0.0	n/a	4	43	ISIslide	MissedWin	True
419.917	0.25	Win2	0.6	0.0	Yes	2.983	0.017	n/a	GoodResponse	1	n/a	n/a	5	44	Cue	Win	True
420.167	4.0	Win2	0.6	0.0	Yes	2.983	0.0	n/a	GoodResponse	1	n/a	n/a	5	44	Fixation	Win	True
424.166	0.34	Win2	0.6	0.001	Yes	2.983	-0.001	3.0	GoodResponse	1	0.267	423.433	5	44	Target	Win	True
424.433	0.3	Win2	0.6	0.001	Yes	2.983	-0.001	3.0	GoodResponse	1	0.267	n/a	5	44	ButtonPress	Win	True
424.516	0.36	Win2	0.6	n/a	Yes	2.983	n/a	n/a	GoodResponse	1	n/a	n/a	5	44	Blank	Win	True
424.866	1.45	Win2	0.6	n/a	Yes	2.983	n/a	5.0	GoodResponse	1	0.032	423.898	5	44	Feedback	Win	True
426.315	2.983	Win2	0.6	n/a	Yes	2.983	n/a	n/a	GoodResponse	1	0.0	n/a	5	44	ISIslide	Win	True
429.314	0.25	Control	0.6087	0.0	Yes	2.886	0.014	n/a	GoodResponse	0	n/a	n/a	5	45	Cue	Neutral	True
429.564	4.1	Control	0.6087	0.0	Yes	2.886	0.0	n/a	GoodResponse	0	n/a	n/a	5	45	Fixation	Neutral	True
433.662	0.35	Control	0.6087	0.002	Yes	2.886	-0.002	3.0	GoodResponse	0	0.234	432.896	5	45	Target	Neutral	True
433.896	0.3	Control	0.6087	0.002	Yes	2.886	-0.002	3.0	GoodResponse	0	0.234	n/a	5	45	ButtonPress	Neutral	True
434.012	0.35	Control	0.6087	n/a	Yes	2.886	n/a	n/a	GoodResponse	0	n/a	n/a	5	45	Blank	Neutral	True
434.362	1.45	Control	0.6087	n/a	Yes	2.886	n/a	5.0	GoodResponse	0	0.048	433.41	5	45	Feedback	Neutral	True
435.812	2.886	Control	0.6087	n/a	Yes	2.886	n/a	n/a	GoodResponse	0	0.0	n/a	5	45	ISIslide	Neutral	True
438.727	0.25	Lose2	0.617	0.0	Yes	3.373	0.027	n/a	GoodResponse	0	n/a	n/a	5	46	Cue	AvoidedLoss	True
438.977	4.0	Lose2	0.617	0.0	Yes	3.373	0.0	n/a	GoodResponse	0	n/a	n/a	5	46	Fixation	AvoidedLoss	True
442.976	0.36	Lose2	0.617	0.001	Yes	3.373	-0.001	3.0	GoodResponse	0	0.255	442.231	5	46	Target	AvoidedLoss	True
443.231	0.3	Lose2	0.617	0.001	Yes	3.373	-0.001	3.0	GoodResponse	0	0.255	n/a	5	46	ButtonPress	AvoidedLoss	True
443.342	0.34	Lose2	0.617	n/a	Yes	3.373	n/a	n/a	GoodResponse	0	n/a	n/a	5	46	Blank	AvoidedLoss	True
443.676	1.45	Lose2	0.617	n/a	Yes	3.373	n/a	5.0	GoodResponse	0	0.006	442.682	5	46	Feedback	AvoidedLoss	True
445.125	3.373	Lose2	0.617	n/a	Yes	3.373	n/a	n/a	GoodResponse	0	0.0	n/a	5	46	ISIslide	AvoidedLoss	True
448.524	0.25	Lose2	0.625	0.0	Yes	2.676	0.024	n/a	GoodResponse	0	n/a	n/a	5	47	Cue	AvoidedLoss	True
448.774	4.0	Lose2	0.625	0.0	Yes	2.676	0.0	n/a	GoodResponse	0	n/a	n/a	5	47	Fixation	AvoidedLoss	True
452.772	0.37	Lose2	0.625	0.002	Yes	2.676	-0.002	3.0	GoodResponse	0	0.258	452.03	5	47	Target	AvoidedLoss	True
453.03	0.3	Lose2	0.625	0.002	Yes	2.676	-0.002	3.0	GoodResponse	0	0.258	n/a	5	47	ButtonPress	AvoidedLoss	True
453.156	0.33	Lose2	0.625	n/a	Yes	2.676	n/a	n/a	GoodResponse	0	n/a	n/a	5	47	Blank	AvoidedLoss	True
453.472	1.45	Lose2	0.625	n/a	Yes	2.676	n/a	5.0	GoodResponse	0	0.012	452.484	5	47	Feedback	AvoidedLoss	True
454.922	2.676	Lose2	0.625	n/a	Yes	2.676	n/a	n/a	GoodResponse	0	0.0	n/a	5	47	ISIslide	AvoidedLoss	True
457.621	0.25	Lose2	0.6327	0.0	Yes	3.029	0.021	n/a	GoodResponse	0	n/a	n/a	5	48	Cue	AvoidedLoss	True
457.871	3.95	Lose2	0.6327	0.0	Yes	3.029	0.0	n/a	GoodResponse	0	n/a	n/a	5	48	Fixation	AvoidedLoss	True
461.819	0.38	Lose2	0.6327	0.002	Yes	3.029	-0.002	3.0	GoodResponse	0	0.109	460.928	5	48	Target	AvoidedLoss	True
461.928	0.3	Lose2	0.6327	0.002	Yes	3.029	-0.002	3.0	GoodResponse	0	0.109	n/a	5	48	ButtonPress	AvoidedLoss	True
462.203	0.32	Lose2	0.6327	n/a	Yes	3.029	n/a	n/a	GoodResponse	0	n/a	n/a	5	48	Blank	AvoidedLoss	True
462.519	1.45	Lose2	0.6327	n/a	Yes	3.029	n/a	5.0	GoodResponse	0	0.037	461.556	5	48	Feedback	AvoidedLoss	True
463.969	3.029	Lose2	0.6327	n/a	Yes	3.029	n/a	n/a	GoodResponse	0	0.0	n/a	5	48	ISIslide	AvoidedLoss	True
467.018	0.25	Control	0.64	0.0	Yes	2.882	0.018	n/a	GoodResponse	0	n/a	n/a	5	49	Cue	Neutral	True
467.267	4.0	Control	0.64	0.001	Yes	2.882	-0.001	n/a	GoodResponse	0	n/a	n/a	5	49	Fixation	Neutral	True
471.266	0.39	Control	0.64	0.002	Yes	2.882	-0.002	3.0	GoodResponse	0	0.215	470.481	5	49	Target	Neutral	True
471.481	0.3	Control	0.64	0.002	Yes	2.882	-0.002	3.0	GoodResponse	0	0.215	n/a	5	49	ButtonPress	Neutral	True
471.666	0.31	Control	0.64	n/a	Yes	2.882	n/a	n/a	GoodResponse	0	n/a	n/a	5	49	Blank	Neutral	True
471.966	1.45	Control	0.64	n/a	Yes	2.882	n/a	5.0	GoodResponse	0	0.007	470.973	5	49	Feedback	Neutral	True
473.415	2.882	Control	0.64	n/a	Yes	2.882	n/a	n/a	GoodResponse	0	0.0	n/a	5	49	ISIslide	Neutral	True
476.314	0.25	Control	0.6470999999999999	0.0	Yes	2.786	0.014	n/a	GoodResponse	0	n/a	n/a	5	50	Cue	Neutral	True
476.564	4.0	Control	0.6470999999999999	0.0	Yes	2.786	0.0	n/a	GoodResponse	0	n/a	n/a	5	50	Fixation	Neutral	True
480.563	0.4	Control	0.6470999999999999	0.001	Yes	2.786	-0.001	3.0	GoodResponse	0	0.227	479.79	5	50	Target	Neutral	True
480.79	0.3	Control	0.6470999999999999	0.001	Yes	2.786	-0.001	3.0	GoodResponse	0	0.227	n/a	5	50	ButtonPress	Neutral	True
480.963	0.3	Control	0.6470999999999999	n/a	Yes	2.786	n/a	n/a	GoodResponse	0	n/a	n/a	5	50	Blank	Neutral	True
481.263	1.45	Control	0.6470999999999999	n/a	Yes	2.786	n/a	5.0	GoodResponse	0	0.025	480.288	5	50	Feedback	Neutral	True
482.712	2.786	Control	0.6470999999999999	n/a	Yes	2.786	n/a	n/a	GoodResponse	0	0.0	n/a	5	50	ISIslide	Neutral	True
485.528	0.25	Control	0.6537999999999999	0.0	Yes	2.722	0.028	n/a	GoodResponse	0	n/a	n/a	5	51	Cue	Neutral	True
485.778	3.95	Control	0.6537999999999999	0.0	Yes	2.722	0.0	n/a	GoodResponse	0	n/a	n/a	5	51	Fixation	Neutral	True
489.726	0.41	Control	0.6537999999999999	0.002	Yes	2.722	-0.002	3.0	GoodResponse	0	0.256	488.982	5	51	Target	Neutral	True
489.982	0.3	Control	0.6537999999999999	0.002	Yes	2.722	-0.002	3.0	GoodResponse	0	0.256	n/a	5	51	ButtonPress	Neutral	True
490.143	0.29	Control	0.6537999999999999	n/a	Yes	2.722	n/a	n/a	GoodResponse	0	n/a	n/a	5	51	Blank	Neutral	True
490.426	1.45	Control	0.6537999999999999	n/a	Yes	2.722	n/a	5.0	GoodResponse	0	0.033	489.459	5	51	Feedback	Neutral	True
491.876	2.722	Control	0.6537999999999999	n/a	Yes	2.722	n/a	n/a	GoodResponse	0	0.0	n/a	5	51	ISIslide	Neutral	True
494.625	0.25	Control	0.6415000000000001	0.0	No	2.625	0.025	n/a	NoResponse	0	n/a	n/a	5	52	Cue	Neutral	True
494.874	4.05	Control	0.6415000000000001	0.001	No	2.625	-0.001	3.0	NoResponse	0	4.004	497.878	5	52	Fixation	Neutral	True
498.878	0.3	Control	0.6415000000000001	0.001	No	2.625	-0.001	3.0	NoResponse	0	4.004	n/a	5	52	ButtonPress	Neutral	True
498.923	0.42	Control	0.6415000000000001	0.002	No	2.625	-0.002	n/a	NoResponse	0	n/a	n/a	5	52	Target	Neutral	True
499.356	0.28	Control	0.6415000000000001	n/a	No	2.625	n/a	n/a	NoResponse	0	n/a	n/a	5	52	Blank	Neutral	True
499.623	1.45	Control	0.6415000000000001	n/a	No	2.625	n/a	5.0	NoResponse	0	0.007	498.63	5	52	Feedback	Neutral	True
501.072	2.625	Control	0.6415000000000001	n/a	No	2.625	n/a	n/a	NoResponse	0	0.0	n/a	5	52	ISIslide	Neutral	True
503.721	0.25	Win2	0.6296	0.0	No	2.929	0.021	n/a	NoResponse	0	n/a	n/a	5	53	Cue	MissedWin	True
503.971	4.05	Win2	0.6296	0.0	No	2.929	0.0	3.0	NoResponse	0	4.034	507.005	5	53	Fixation	MissedWin	True
508.005	0.3	Win2	0.6296	0.0	No	2.929	0.0	3.0	NoResponse	0	4.034	n/a	5	53	ButtonPress	MissedWin	True
508.02	0.43	Win2	0.6296	0.001	No	2.929	-0.001	n/a	NoResponse	0	n/a	n/a	5	53	Target	MissedWin	True
508.453	0.27	Win2	0.6296	n/a	No	2.929	n/a	n/a	NoResponse	0	n/a	n/a	5	53	Blank	MissedWin	True
508.72	1.45	Win2	0.6296	n/a	No	2.929	n/a	5.0	NoResponse	0	0.031	507.751	5	53	Feedback	MissedWin	True
510.169	2.929	Win2	0.6296	n/a	No	2.929	n/a	n/a	NoResponse	0	0.0	n/a	5	53	ISIslide	MissedWin	True
513.118	0.25	Win2	0.6364	0.0	Yes	2.732	0.018	n/a	GoodResponse	1	n/a	n/a	6	54	Cue	Win	True
513.368	3.95	Win2	0.6364	0.0	Yes	2.732	0.0	n/a	GoodResponse	1	n/a	n/a	6	54	Fixation	Win	True
517.317	0.44	Win2	0.6364	0.001	Yes	2.732	-0.001	3.0	GoodResponse	1	0.225	516.542	6	54	Target	Win	True
517.542	0.3	Win2	0.6364	0.001	Yes	2.732	-0.001	3.0	GoodResponse	1	0.225	n/a	6	54	ButtonPress	Win	True
517.766	0.26	Win2	0.6364	n/a	Yes	2.732	n/a	n/a	GoodResponse	1	n/a	n/a	6	54	Blank	Win	True
518.016	1.45	Win2	0.6364	n/a	Yes	2.732	n/a	5.0	GoodResponse	1	0.007	517.023	6	54	Feedback	Win	True
519.466	2.732	Win2	0.6364	n/a	Yes	2.732	n/a	n/a	GoodResponse	1	0.0	n/a	6	54	ISIslide	Win	True
522.215	0.25	Control	0.6429	0.0	Yes	3.035	0.015	n/a	GoodResponse	0	n/a	n/a	6	55	Cue	Neutral	True
522.465	3.95	Control	0.6429	0.0	Yes	3.035	0.0	n/a	GoodResponse	0	n/a	n/a	6	55	Fixation	Neutral	True
526.413	0.45	Control	0.6429	0.002	Yes	3.035	-0.002	3.0	GoodResponse	0	0.233	525.646	6	55	Target	Neutral	True
526.646	0.3	Control	0.6429	0.002	Yes	3.035	-0.002	3.0	GoodResponse	0	0.233	n/a	6	55	ButtonPress	Neutral	True
526.863	0.25	Control	0.6429	n/a	Yes	3.035	n/a	n/a	GoodResponse	0	n/a	n/a	6	55	Blank	Neutral	True
527.113	1.45	Control	0.6429	n/a	Yes	3.035	n/a	5.0	GoodResponse	0	0.028	526.141	6	55	Feedback	Neutral	True
528.563	3.035	Control	0.6429	n/a	Yes	3.035	n/a	n/a	GoodResponse	0	0.0	n/a	6	55	ISIslide	Neutral	True
531.628	0.25	Control	0.6491	0.0	Yes	2.822	0.028	n/a	GoodResponse	0	n/a	n/a	6	56	Cue	Neutral	True
531.878	3.95	Control	0.6491	0.0	Yes	2.822	0.0	n/a	GoodResponse	0	n/a	n/a	6	56	Fixation	Neutral	True
535.827	0.46	Control	0.6491	0.001	Yes	2.822	-0.001	3.0	GoodResponse	0	0.217	535.044	6	56	Target	Neutral	True
536.044	0.3	Control	0.6491	0.001	Yes	2.822	-0.001	3.0	GoodResponse	0	0.217	n/a	6	56	ButtonPress	Neutral	True
536.293	0.24	Control	0.6491	n/a	Yes	2.822	n/a	n/a	GoodResponse	0	n/a	n/a	6	56	Blank	Neutral	True
536.527	1.45	Control	0.6491	n/a	Yes	2.822	n/a	5.0	GoodResponse	0	0.029	535.556	6	56	Feedback	Neutral	True
537.976	2.822	Control	0.6491	n/a	Yes	2.822	n/a	n/a	GoodResponse	0	0.0	n/a	6	56	ISIslide	Neutral	True
540.825	0.25	Control	0.6552	0.0	Yes	3.475	0.025	n/a	GoodResponse	0	n/a	n/a	6	57	Cue	Neutral	True
541.075	4.0	Control	0.6552	0.0	Yes	3.475	0.0	n/a	GoodResponse	0	n/a	n/a	6	57	Fixation	Neutral	True
545.074	0.47	Control	0.6552	0.001	Yes	3.475	-0.001	3.0	GoodResponse	0	0.253	544.327	6	57	Target	Neutral	True
545.327	0.3	Control	0.6552	0.001	Yes	3.475	-0.001	3.0	GoodResponse	0	0.253	n/a	6	57	ButtonPress	Neutral	True
545.557	0.23	Control	0.6552	n/a	Yes	3.475	n/a	n/a	GoodResponse	0	n/a	n/a	6	57	Blank	Neutral	True
545.773	1.45	Control	0.6552	n/a	Yes	3.475	n/a	5.0	GoodResponse	0	0.002	544.775	6	57	Feedback	Neutral	True
547.223	3.475	Control	0.6552	n/a	Yes	3.475	n/a	n/a	GoodResponse	0	0.0	n/a	6	57	ISIslide	Neutral	True
550.722	0.25	Win2	0.6609999999999999	0.0	Yes	2.728	0.022	n/a	GoodResponse	1	n/a	n/a	7	58	Cue	Win	True
550.972	4.05	Win2	0.6609999999999999	0.0	Yes	2.728	0.0	n/a	GoodResponse	1	n/a	n/a	7	58	Fixation	Win	True
555.02	0.47	Win2	0.6609999999999999	0.002	Yes	2.728	-0.002	3.0	GoodResponse	1	0.189	554.209	7	58	Target	Win	True
555.209	0.3	Win2	0.6609999999999999	0.002	Yes	2.728	-0.002	3.0	GoodResponse	1	0.189	n/a	7	58	ButtonPress	Win	True
555.503	0.23	Win2	0.6609999999999999	n/a	Yes	2.728	n/a	n/a	GoodResponse	1	n/a	n/a	7	58	Blank	Win	True
555.72	1.45	Win2	0.6609999999999999	n/a	Yes	2.728	n/a	5.0	GoodResponse	1	0.007	554.727	7	58	Feedback	Win	True
557.169	2.728	Win2	0.6609999999999999	n/a	Yes	2.728	n/a	n/a	GoodResponse	1	0.0	n/a	7	58	ISIslide	Win	True
559.918	0.25	Lose2	0.6667000000000001	0.001	Yes	2.682	0.018	n/a	GoodResponse	0	n/a	n/a	7	59	Cue	AvoidedLoss	True
560.168	4.0	Lose2	0.6667000000000001	0.0	Yes	2.682	0.0	n/a	GoodResponse	0	n/a	n/a	7	59	Fixation	AvoidedLoss	True
564.167	0.47	Lose2	0.6667000000000001	0.001	Yes	2.682	-0.001	3.0	GoodResponse	0	0.208	563.375	7	59	Target	AvoidedLoss	True
564.375	0.3	Lose2	0.6667000000000001	0.001	Yes	2.682	-0.001	3.0	GoodResponse	0	0.208	n/a	7	59	ButtonPress	AvoidedLoss	True
564.633	0.23	Lose2	0.6667000000000001	n/a	Yes	2.682	n/a	n/a	GoodResponse	0	n/a	n/a	7	59	Blank	AvoidedLoss	True
564.867	1.45	Lose2	0.6667000000000001	n/a	Yes	2.682	n/a	5.0	GoodResponse	0	0.03	563.897	7	59	Feedback	AvoidedLoss	True
566.316	2.682	Lose2	0.6667000000000001	n/a	Yes	2.682	n/a	n/a	GoodResponse	0	0.0	n/a	7	59	ISIslide	AvoidedLoss	True
569.015	0.25	Control	0.6720999999999999	0.0	Yes	2.685	0.015	n/a	GoodResponse	0	n/a	n/a	7	60	Cue	Neutral	True
569.265	4.0	Control	0.6720999999999999	0.0	Yes	2.685	0.0	n/a	GoodResponse	0	n/a	n/a	7	60	Fixation	Neutral	True
573.264	0.46	Control	0.6720999999999999	0.001	Yes	2.685	-0.001	3.0	GoodResponse	0	0.297	572.561	7	60	Target	Neutral	True
573.561	0.3	Control	0.6720999999999999	0.001	Yes	2.685	-0.001	3.0	GoodResponse	0	0.297	n/a	7	60	ButtonPress	Neutral	True
573.73	0.24	Control	0.6720999999999999	n/a	Yes	2.685	n/a	n/a	GoodResponse	0	n/a	n/a	7	60	Blank	Neutral	True
573.964	1.45	Control	0.6720999999999999	n/a	Yes	2.685	n/a	5.0	GoodResponse	0	0.006	572.97	7	60	Feedback	Neutral	True
575.413	2.685	Control	0.6720999999999999	n/a	Yes	2.685	n/a	n/a	GoodResponse	0	0.0	n/a	7	60	ISIslide	Neutral	True
578.129	0.25	Lose2	0.6613	0.0	No	2.971	0.029	n/a	NoResponse	-1	n/a	n/a	6	61	Cue	Loss	True
578.379	4.0	Lose2	0.6613	0.0	No	2.971	0.0	3.0	NoResponse	-1	3.963	581.342	6	61	Fixation	Loss	True
582.342	0.3	Lose2	0.6613	0.0	No	2.971	0.0	3.0	NoResponse	-1	3.963	n/a	6	61	ButtonPress	Loss	True
582.377	0.45	Lose2	0.6613	0.002	No	2.971	-0.002	n/a	NoResponse	-1	n/a	n/a	6	61	Target	Loss	True
582.827	0.25	Lose2	0.6613	n/a	No	2.971	n/a	n/a	NoResponse	-1	n/a	n/a	6	61	Blank	Loss	True
583.077	1.45	Lose2	0.6613	n/a	No	2.971	n/a	5.0	NoResponse	-1	0.015	582.092	6	61	Feedback	Loss	True
584.527	2.971	Lose2	0.6613	n/a	No	2.971	n/a	n/a	NoResponse	-1	0.0	n/a	6	61	ISIslide	Loss	True
587.525	0.25	Lose2	0.6667000000000001	0.001	Yes	2.875	0.025	n/a	GoodResponse	0	n/a	n/a	6	62	Cue	AvoidedLoss	True
587.775	3.9	Lose2	0.6667000000000001	0.0	Yes	2.875	0.0	n/a	GoodResponse	0	n/a	n/a	6	62	Fixation	AvoidedLoss	True
591.674	0.45	Lose2	0.6667000000000001	0.001	Yes	2.875	-0.001	3.0	GoodResponse	0	0.224	590.898	6	62	Target	AvoidedLoss	True
591.898	0.3	Lose2	0.6667000000000001	0.001	Yes	2.875	-0.001	3.0	GoodResponse	0	0.224	n/a	6	62	ButtonPress	AvoidedLoss	True
592.124	0.25	Lose2	0.6667000000000001	n/a	Yes	2.875	n/a	n/a	GoodResponse	0	n/a	n/a	6	62	Blank	AvoidedLoss	True
592.374	1.45	Lose2	0.6667000000000001	n/a	Yes	2.875	n/a	5.0	GoodResponse	0	0.035	591.409	6	62	Feedback	AvoidedLoss	True
593.823	2.875	Lose2	0.6667000000000001	n/a	Yes	2.875	n/a	n/a	GoodResponse	0	0.0	n/a	6	62	ISIslide	AvoidedLoss	True
596.722	0.25	Lose2	0.6718999999999999	0.0	Yes	2.628	0.022	n/a	GoodResponse	0	n/a	n/a	6	63	Cue	AvoidedLoss	True
596.972	4.05	Lose2	0.6718999999999999	0.0	Yes	2.628	0.0	n/a	GoodResponse	0	n/a	n/a	6	63	Fixation	AvoidedLoss	True
601.021	0.44	Lose2	0.6718999999999999	0.001	Yes	2.628	-0.001	3.0	GoodResponse	0	0.232	600.253	6	63	Target	AvoidedLoss	True
601.253	0.3	Lose2	0.6718999999999999	0.001	Yes	2.628	-0.001	3.0	GoodResponse	0	0.232	n/a	6	63	ButtonPress	AvoidedLoss	True
601.471	0.26	Lose2	0.6718999999999999	n/a	Yes	2.628	n/a	n/a	GoodResponse	0	n/a	n/a	6	63	Blank	AvoidedLoss	True
601.721	1.45	Lose2	0.6718999999999999	n/a	Yes	2.628	n/a	5.0	GoodResponse	0	0.005	600.726	6	63	Feedback	AvoidedLoss	True
603.17	2.628	Lose2	0.6718999999999999	n/a	Yes	2.628	n/a	n/a	GoodResponse	0	0.0	n/a	6	63	ISIslide	AvoidedLoss	True
605.819	0.25	Win2	0.6769	0.0	Yes	3.131	0.019	n/a	GoodResponse	1	n/a	n/a	7	64	Cue	Win	True
606.069	4.15	Win2	0.6769	0.0	Yes	3.131	0.0	n/a	GoodResponse	1	n/a	n/a	7	64	Fixation	Win	True
610.218	0.43	Win2	0.6769	0.001	Yes	3.131	-0.001	3.0	GoodResponse	1	0.221	609.439	7	64	Target	Win	True
610.439	0.3	Win2	0.6769	0.001	Yes	3.131	-0.001	3.0	GoodResponse	1	0.221	n/a	7	64	ButtonPress	Win	True
610.651	0.27	Win2	0.6769	n/a	Yes	3.131	n/a	n/a	GoodResponse	1	n/a	n/a	7	64	Blank	Win	True
610.917	1.45	Win2	0.6769	n/a	Yes	3.131	n/a	5.0	GoodResponse	1	0.028	609.945	7	64	Feedback	Win	True
612.367	3.131	Win2	0.6769	n/a	Yes	3.131	n/a	n/a	GoodResponse	1	0.0	n/a	7	64	ISIslide	Win	True
615.516	0.25	Control	0.6818000000000001	0.0	Yes	2.784	0.016	n/a	GoodResponse	0	n/a	n/a	7	65	Cue	Neutral	True
615.766	4.0	Control	0.6818000000000001	0.0	Yes	2.784	0.0	n/a	GoodResponse	0	n/a	n/a	7	65	Fixation	Neutral	True
619.764	0.42	Control	0.6818000000000001	0.002	Yes	2.784	-0.002	3.0	GoodResponse	0	0.231	618.995	7	65	Target	Neutral	True
619.995	0.3	Control	0.6818000000000001	0.002	Yes	2.784	-0.002	3.0	GoodResponse	0	0.231	n/a	7	65	ButtonPress	Neutral	True
620.197	0.28	Control	0.6818000000000001	n/a	Yes	2.784	n/a	n/a	GoodResponse	0	n/a	n/a	7	65	Blank	Neutral	True
620.464	1.45	Control	0.6818000000000001	n/a	Yes	2.784	n/a	5.0	GoodResponse	0	0.042	619.506	7	65	Feedback	Neutral	True
621.913	2.784	Control	0.6818000000000001	n/a	Yes	2.784	n/a	n/a	GoodResponse	0	0.0	n/a	7	65	ISIslide	Neutral	True
624.713	0.25	Win2	0.6866	0.0	Yes	2.787	0.013	n/a	GoodResponse	1	n/a	n/a	8	66	Cue	Win	True
624.962	3.9	Win2	0.6866	0.001	Yes	2.787	-0.001	n/a	GoodResponse	1	n/a	n/a	8	66	Fixation	Win	True
628.861	0.41	Win2	0.6866	0.002	Yes	2.787	-0.002	3.0	GoodResponse	1	0.211	628.072	8	66	Target	Win	True
629.072	0.3	Win2	0.6866	0.002	Yes	2.787	-0.002	3.0	GoodResponse	1	0.211	n/a	8	66	ButtonPress	Win	True
629.278	0.29	Win2	0.6866	n/a	Yes	2.787	n/a	n/a	GoodResponse	1	n/a	n/a	8	66	Blank	Win	True
629.561	1.45	Win2	0.6866	n/a	Yes	2.787	n/a	5.0	GoodResponse	1	0.018	628.579	8	66	Feedback	Win	True
631.01	2.787	Win2	0.6866	n/a	Yes	2.787	n/a	n/a	GoodResponse	1	0.0	n/a	8	66	ISIslide	Win	True
633.826	0.25	Control	0.6912	0.0	Yes	2.724	0.026	n/a	GoodResponse	0	n/a	n/a	8	67	Cue	Neutral	True
634.076	3.95	Control	0.6912	0.0	Yes	2.724	0.0	n/a	GoodResponse	0	n/a	n/a	8	67	Fixation	Neutral	True
638.025	0.4	Control	0.6912	0.001	Yes	2.724	-0.001	3.0	GoodResponse	0	0.291	637.316	8	67	Target	Neutral	True
638.316	0.3	Control	0.6912	0.001	Yes	2.724	-0.001	3.0	GoodResponse	0	0.291	n/a	8	67	ButtonPress	Neutral	True
638.424	0.3	Control	0.6912	n/a	Yes	2.724	n/a	n/a	GoodResponse	0	n/a	n/a	8	67	Blank	Neutral	True
638.724	1.45	Control	0.6912	n/a	Yes	2.724	n/a	5.0	GoodResponse	0	0.026	637.75	8	67	Feedback	Neutral	True
640.174	2.724	Control	0.6912	n/a	Yes	2.724	n/a	n/a	GoodResponse	0	0.0	n/a	8	67	ISIslide	Neutral	True
642.923	0.25	Win2	0.6957	0.0	Yes	3.077	0.023	n/a	GoodResponse	1	n/a	n/a	9	68	Cue	Win	True
643.173	4.0	Win2	0.6957	0.0	Yes	3.077	0.0	n/a	GoodResponse	1	n/a	n/a	9	68	Fixation	Win	True
647.171	0.39	Win2	0.6957	0.002	Yes	3.077	-0.002	3.0	GoodResponse	1	0.234	646.405	9	68	Target	Win	True
647.405	0.3	Win2	0.6957	0.002	Yes	3.077	-0.002	3.0	GoodResponse	1	0.234	n/a	9	68	ButtonPress	Win	True
647.571	0.31	Win2	0.6957	n/a	Yes	3.077	n/a	n/a	GoodResponse	1	n/a	n/a	9	68	Blank	Win	True
647.871	1.45	Win2	0.6957	n/a	Yes	3.077	n/a	5.0	GoodResponse	1	0.001	646.872	9	68	Feedback	Win	True
649.321	3.077	Win2	0.6957	n/a	Yes	3.077	n/a	n/a	GoodResponse	1	0.0	n/a	9	68	ISIslide	Win	True
652.42	0.25	Win2	0.7	0.0	Yes	3.23	0.02	n/a	GoodResponse	1	n/a	n/a	10	69	Cue	Win	True
652.669	3.95	Win2	0.7	0.001	Yes	3.23	-0.001	n/a	GoodResponse	1	n/a	n/a	10	69	Fixation	Win	True
656.618	0.38	Win2	0.7	0.002	Yes	3.23	-0.002	3.0	GoodResponse	1	0.238	655.856	10	69	Target	Win	True
656.856	0.3	Win2	0.7	0.002	Yes	3.23	-0.002	3.0	GoodResponse	1	0.238	n/a	10	69	ButtonPress	Win	True
657.001	0.32	Win2	0.7	n/a	Yes	3.23	n/a	n/a	GoodResponse	1	n/a	n/a	10	69	Blank	Win	True
657.318	1.45	Win2	0.7	n/a	Yes	3.23	n/a	5.0	GoodResponse	1	0.017	656.335	10	69	Feedback	Win	True
658.767	3.23	Win2	0.7	n/a	Yes	3.23	n/a	n/a	GoodResponse	1	0.0	n/a	10	69	ISIslide	Win	True
662.016	0.25	Lose2	0.7042	0.0	Yes	3.034	0.016	n/a	GoodResponse	0	n/a	n/a	10	70	Cue	AvoidedLoss	True
662.266	4.05	Lose2	0.7042	0.0	Yes	3.034	0.0	n/a	GoodResponse	0	n/a	n/a	10	70	Fixation	AvoidedLoss	True
666.315	0.37	Lose2	0.7042	0.001	Yes	3.034	-0.001	3.0	GoodResponse	0	0.196	665.511	10	70	Target	AvoidedLoss	True
666.511	0.3	Lose2	0.7042	0.001	Yes	3.034	-0.001	3.0	GoodResponse	0	0.196	n/a	10	70	ButtonPress	AvoidedLoss	True
666.698	0.33	Lose2	0.7042	n/a	Yes	3.034	n/a	n/a	GoodResponse	0	n/a	n/a	10	70	Blank	AvoidedLoss	True
667.014	1.45	Lose2	0.7042	n/a	Yes	3.034	n/a	5.0	GoodResponse	0	0.028	666.042	10	70	Feedback	AvoidedLoss	True
668.464	3.034	Lose2	0.7042	n/a	Yes	3.034	n/a	n/a	GoodResponse	0	0.0	n/a	10	70	ISIslide	AvoidedLoss	True
671.53	0.25	Win2	0.7082999999999999	0.0	Yes	2.72	0.03	n/a	GoodResponse	1	n/a	n/a	11	71	Cue	Win	True
671.779	4.05	Win2	0.7082999999999999	0.001	Yes	2.72	-0.001	n/a	GoodResponse	1	n/a	n/a	11	71	Fixation	Win	True
675.828	0.36	Win2	0.7082999999999999	0.002	Yes	2.72	-0.002	3.0	GoodResponse	1	0.229	675.057	11	71	Target	Win	True
676.057	0.3	Win2	0.7082999999999999	0.002	Yes	2.72	-0.002	3.0	GoodResponse	1	0.229	n/a	11	71	ButtonPress	Win	True
676.195	0.34	Win2	0.7082999999999999	n/a	Yes	2.72	n/a	n/a	GoodResponse	1	n/a	n/a	11	71	Blank	Win	True
676.528	1.45	Win2	0.7082999999999999	n/a	Yes	2.72	n/a	5.0	GoodResponse	1	0.027	675.555	11	71	Feedback	Win	True
677.977	2.72	Win2	0.7082999999999999	n/a	Yes	2.72	n/a	n/a	GoodResponse	1	0.0	n/a	11	71	ISIslide	Win	True
680.726	0.25	Win2	0.7123	0.0	Yes	2.774	0.026	n/a	GoodResponse	1	n/a	n/a	12	72	Cue	Win	True
680.976	4.1	Win2	0.7123	0.0	Yes	2.774	0.0	n/a	GoodResponse	1	n/a	n/a	12	72	Fixation	Win	True
685.075	0.35	Win2	0.7123	0.001	Yes	2.774	-0.001	3.0	GoodResponse	1	0.196	684.271	12	72	Target	Win	True
685.271	0.3	Win2	0.7123	0.001	Yes	2.774	-0.001	3.0	GoodResponse	1	0.196	n/a	12	72	ButtonPress	Win	True
685.425	0.35	Win2	0.7123	n/a	Yes	2.774	n/a	n/a	GoodResponse	1	n/a	n/a	12	72	Blank	Win	True
685.775	1.45	Win2	0.7123	n/a	Yes	2.774	n/a	5.0	GoodResponse	1	0.048	684.823	12	72	Feedback	Win	True
687.224	2.774	Win2	0.7123	n/a	Yes	2.774	n/a	n/a	GoodResponse	1	0.0	n/a	12	72	ISIslide	Win	True
690.023	0.25	Win2	0.7162000000000001	0.0	Yes	2.677	0.023	n/a	GoodResponse	1	n/a	n/a	13	73	Cue	Win	True
690.273	4.0	Win2	0.7162000000000001	0.0	Yes	2.677	0.0	n/a	GoodResponse	1	n/a	n/a	13	73	Fixation	Win	True
694.272	0.34	Win2	0.7162000000000001	0.001	Yes	2.677	-0.001	3.0	GoodResponse	1	0.232	693.504	13	73	Target	Win	True
694.504	0.3	Win2	0.7162000000000001	0.001	Yes	2.677	-0.001	3.0	GoodResponse	1	0.232	n/a	13	73	ButtonPress	Win	True
694.621	0.36	Win2	0.7162000000000001	n/a	Yes	2.677	n/a	n/a	GoodResponse	1	n/a	n/a	13	73	Blank	Win	True
694.971	1.45	Win2	0.7162000000000001	n/a	Yes	2.677	n/a	5.0	GoodResponse	1	0.023	693.994	13	73	Feedback	Win	True
696.421	2.677	Win2	0.7162000000000001	n/a	Yes	2.677	n/a	n/a	GoodResponse	1	0.0	n/a	13	73	ISIslide	Win	True
699.12	0.25	Lose2	0.72	0.0	Yes	2.63	0.02	n/a	GoodResponse	0	n/a	n/a	13	74	Cue	AvoidedLoss	True
699.37	4.05	Lose2	0.72	0.0	Yes	2.63	0.0	n/a	GoodResponse	0	n/a	n/a	13	74	Fixation	AvoidedLoss	True
703.418	0.33	Lose2	0.72	0.002	Yes	2.63	-0.002	3.0	GoodResponse	0	0.238	702.656	13	74	Target	AvoidedLoss	True
703.656	0.3	Lose2	0.72	0.002	Yes	2.63	-0.002	3.0	GoodResponse	0	0.238	n/a	13	74	ButtonPress	AvoidedLoss	True
703.752	0.37	Lose2	0.72	n/a	Yes	2.63	n/a	n/a	GoodResponse	0	n/a	n/a	13	74	Blank	AvoidedLoss	True
704.118	1.45	Lose2	0.72	n/a	Yes	2.63	n/a	5.0	GoodResponse	0	0.047	703.165	13	74	Feedback	AvoidedLoss	True
705.568	2.63	Lose2	0.72	n/a	Yes	2.63	n/a	n/a	GoodResponse	0	0.0	n/a	13	74	ISIslide	AvoidedLoss	True
708.217	0.25	Lose2	0.7237	0.0	Yes	2.933	0.017	n/a	GoodResponse	0	n/a	n/a	13	75	Cue	AvoidedLoss	True
708.467	3.95	Lose2	0.7237	0.0	Yes	2.933	0.0	n/a	GoodResponse	0	n/a	n/a	13	75	Fixation	AvoidedLoss	True
712.415	0.32	Lose2	0.7237	0.002	Yes	2.933	-0.002	3.0	GoodResponse	0	0.225	711.64	13	75	Target	AvoidedLoss	True
712.64	0.3	Lose2	0.7237	0.002	Yes	2.933	-0.002	3.0	GoodResponse	0	0.225	n/a	13	75	ButtonPress	AvoidedLoss	True
712.748	0.38	Lose2	0.7237	n/a	Yes	2.933	n/a	n/a	GoodResponse	0	n/a	n/a	13	75	Blank	AvoidedLoss	True
713.115	1.45	Lose2	0.7237	n/a	Yes	2.933	n/a	5.0	GoodResponse	0	0.024	712.139	13	75	Feedback	AvoidedLoss	True
714.565	2.933	Lose2	0.7237	n/a	Yes	2.933	n/a	n/a	GoodResponse	0	0.0	n/a	13	75	ISIslide	AvoidedLoss	True
717.53	0.25	Control	0.7143	0.0	No	3.22	0.03	n/a	PrematurePress	0	n/a	n/a	13	76	Cue	Neutral	True
717.78	4.05	Control	0.7143	0.0	No	3.22	0.0	n/a	PrematurePress	0	n/a	n/a	13	76	Fixation	Neutral	True
721.829	0.31	Control	0.7143	0.001	No	3.22	-0.001	3.0	PrematurePress	0	0.089	720.918	13	76	Target	Neutral	True
721.918	0.3	Control	0.7143	0.001	No	3.22	-0.001	3.0	PrematurePress	0	0.089	n/a	13	76	ButtonPress	Neutral	True
722.145	0.39	Control	0.7143	n/a	No	3.22	n/a	n/a	PrematurePress	0	n/a	n/a	13	76	Blank	Neutral	True
722.528	1.45	Control	0.7143	n/a	No	3.22	n/a	5.0	PrematurePress	0	0.026	721.554	13	76	Feedback	Neutral	True
723.978	3.22	Control	0.7143	n/a	No	3.22	n/a	n/a	PrematurePress	0	0.0	n/a	13	76	ISIslide	Neutral	True
727.227	0.25	Lose2	0.7179000000000001	0.0	Yes	2.573	0.027	n/a	GoodResponse	0	n/a	n/a	13	77	Cue	AvoidedLoss	True
727.477	3.95	Lose2	0.7179000000000001	0.0	Yes	2.573	0.0	n/a	GoodResponse	0	n/a	n/a	13	77	Fixation	AvoidedLoss	True
731.425	0.3	Lose2	0.7179000000000001	0.002	Yes	2.573	-0.002	3.0	GoodResponse	0	0.23	730.655	13	77	Target	AvoidedLoss	True
731.655	0.3	Lose2	0.7179000000000001	0.002	Yes	2.573	-0.002	3.0	GoodResponse	0	0.23	n/a	13	77	ButtonPress	AvoidedLoss	True
731.725	0.4	Lose2	0.7179000000000001	n/a	Yes	2.573	n/a	n/a	GoodResponse	0	n/a	n/a	13	77	Blank	AvoidedLoss	True
732.125	1.45	Lose2	0.7179000000000001	n/a	Yes	2.573	n/a	5.0	GoodResponse	0	0.039	731.164	13	77	Feedback	AvoidedLoss	True
733.575	2.573	Lose2	0.7179000000000001	n/a	Yes	2.573	n/a	n/a	GoodResponse	0	0.0	n/a	13	77	ISIslide	AvoidedLoss	True
