onset	duration	cue_type	current_mean_accuracy	duration_error	is_hit	isi_adjusted	onset_delay	response	response_type	reward	rt	rt_time	total_reward	trial_number	trial_phase	trial_type	one_press
11.107	0.25	Control	0.0	0.0	No	2.943	0.007	n/a	PrematurePress	0	n/a	n/a	0	0	Cue	Neutral	True
11.357	3.85	Control	0.0	0.0	No	2.943	0.0	n/a	PrematurePress	0	n/a	n/a	0	0	Fixation	Neutral	True
15.219	0.4	Control	0.0	0.0	No	2.943	0.012	1.0	PrematurePress	0	0.074	14.293	0	0	Target	Neutral	True
15.293	0.3	Control	0.0	0.0	No	2.943	0.012	1.0	PrematurePress	0	0.074	n/a	0	0	ButtonPress	Neutral	True
15.603	0.3	Control	0.0	n/a	No	2.943	n/a	n/a	PrematurePress	0	n/a	n/a	0	0	Blank	Neutral	True
15.904	1.45	Control	0.0	n/a	No	2.943	n/a	5.0	PrematurePress	0	0.021	14.925	0	0	Feedback	Neutral	True
17.359	2.943	Control	0.0	n/a	No	2.943	n/a	1.0	PrematurePress	0	1.514	n/a	0	0	ISIslide	Neutral	True
20.301	0.25	Lose2	0.5	0.0	Yes	2.799	0.001	n/a	GoodResponse	0	n/a	n/a	0	1	Cue	AvoidedLoss	True
20.551	4.0	Lose2	0.5	0.0	Yes	2.799	0.0	n/a	GoodResponse	0	n/a	n/a	0	1	Fixation	AvoidedLoss	True
24.547	0.41	Lose2	0.5	0.004	Yes	2.799	-0.004	1.0	GoodResponse	0	0.193	23.74	0	1	Target	AvoidedLoss	True
24.74	0.3	Lose2	0.5	0.004	Yes	2.799	-0.004	1.0	GoodResponse	0	0.193	n/a	0	1	ButtonPress	AvoidedLoss	True
24.965	0.29	Lose2	0.5	n/a	Yes	2.799	n/a	n/a	GoodResponse	0	n/a	n/a	0	1	Blank	AvoidedLoss	True
25.249	1.45	Lose2	0.5	n/a	Yes	2.799	n/a	5.0	GoodResponse	0	0.042	24.291	0	1	Feedback	AvoidedLoss	True
26.703	2.799	Lose2	0.5	n/a	Yes	2.799	n/a	n/a	GoodResponse	0	0.0	n/a	0	1	ISIslide	AvoidedLoss	True
29.528	0.25	Control	0.6667000000000001	0.0	Yes	2.572	0.028	n/a	GoodResponse	0	n/a	n/a	0	2	Cue	Neutral	True
29.779	4.1	Control	0.6667000000000001	0.0	Yes	2.572	0.001	n/a	GoodResponse	0	n/a	n/a	0	2	Fixation	Neutral	True
33.875	0.42	Control	0.6667000000000001	0.003	Yes	2.572	-0.003	1.0	GoodResponse	0	0.202	33.077	0	2	Target	Neutral	True
34.077	0.3	Control	0.6667000000000001	0.003	Yes	2.572	-0.003	1.0	GoodResponse	0	0.202	n/a	0	2	ButtonPress	Neutral	True
34.309	0.28	Control	0.6667000000000001	n/a	Yes	2.572	n/a	n/a	GoodResponse	0	n/a	n/a	0	2	Blank	Neutral	True
34.577	1.45	Control	0.6667000000000001	n/a	Yes	2.572	n/a	5.0	GoodResponse	0	0.031	33.608	0	2	Feedback	Neutral	True
36.031	2.572	Control	0.6667000000000001	n/a	Yes	2.572	n/a	n/a	GoodResponse	0	0.0	n/a	0	2	ISIslide	Neutral	True
38.622	0.25	Win2	0.75	0.0	Yes	2.828	0.022	n/a	GoodResponse	1	n/a	n/a	1	3	Cue	Win	True
38.873	3.95	Win2	0.75	0.0	Yes	2.828	0.001	n/a	GoodResponse	1	n/a	n/a	1	3	Fixation	Win	True
42.818	0.41	Win2	0.75	0.004	Yes	2.828	-0.004	1.0	GoodResponse	1	0.237	42.055	1	3	Target	Win	True
43.055	0.3	Win2	0.75	0.004	Yes	2.828	-0.004	1.0	GoodResponse	1	0.237	n/a	1	3	ButtonPress	Win	True
43.236	0.29	Win2	0.75	n/a	Yes	2.828	n/a	n/a	GoodResponse	1	n/a	n/a	1	3	Blank	Win	True
43.52	1.45	Win2	0.75	n/a	Yes	2.828	n/a	5.0	GoodResponse	1	0.015	42.535	1	3	Feedback	Win	True
44.974	2.828	Win2	0.75	n/a	Yes	2.828	n/a	n/a	GoodResponse	1	0.0	n/a	1	3	ISIslide	Win	True
47.816	0.25	Win2	0.8	0.0	Yes	3.284	0.016	n/a	GoodResponse	1	n/a	n/a	2	4	Cue	Win	True
48.067	4.0	Win2	0.8	0.0	Yes	3.284	0.001	n/a	GoodResponse	1	n/a	n/a	2	4	Fixation	Win	True
52.062	0.4	Win2	0.8	0.004	Yes	3.284	-0.004	1.0	GoodResponse	1	0.177	51.239	2	4	Target	Win	True
52.239	0.3	Win2	0.8	0.004	Yes	3.284	-0.004	1.0	GoodResponse	1	0.177	n/a	2	4	ButtonPress	Win	True
52.463	0.3	Win2	0.8	n/a	Yes	3.284	n/a	n/a	GoodResponse	1	n/a	n/a	2	4	Blank	Win	True
52.764	1.45	Win2	0.8	n/a	Yes	3.284	n/a	5.0	GoodResponse	1	0.039	51.803	2	4	Feedback	Win	True
54.219	3.284	Win2	0.8	n/a	Yes	3.284	n/a	n/a	GoodResponse	1	0.0	n/a	2	4	ISIslide	Win	True
57.529	0.25	Win2	0.8332999999999999	0.0	Yes	2.771	0.029	n/a	GoodResponse	1	n/a	n/a	3	5	Cue	Win	True
57.779	4.0	Win2	0.8332999999999999	0.0	Yes	2.771	0.0	n/a	GoodResponse	1	n/a	n/a	3	5	Fixation	Win	True
61.775	0.39	Win2	0.8332999999999999	0.004	Yes	2.771	-0.004	1.0	GoodResponse	1	0.272	61.047	3	5	Target	Win	True
62.047	0.3	Win2	0.8332999999999999	0.004	Yes	2.771	-0.004	1.0	GoodResponse	1	0.272	n/a	3	5	ButtonPress	Win	True
62.176	0.31	Win2	0.8332999999999999	n/a	Yes	2.771	n/a	n/a	GoodResponse	1	n/a	n/a	3	5	Blank	Win	True
62.477	1.45	Win2	0.8332999999999999	n/a	Yes	2.771	n/a	5.0	GoodResponse	1	0.033	61.51	3	5	Feedback	Win	True
63.931	2.771	Win2	0.8332999999999999	n/a	Yes	2.771	n/a	n/a	GoodResponse	1	0.0	n/a	3	5	ISIslide	Win	True
66.723	0.25	Lose2	0.8571	0.0	Yes	2.727	0.023	n/a	GoodResponse	0	n/a	n/a	3	6	Cue	AvoidedLoss	True
66.973	3.95	Lose2	0.8571	0.0	Yes	2.727	0.0	n/a	GoodResponse	0	n/a	n/a	3	6	Fixation	AvoidedLoss	True
70.919	0.38	Lose2	0.8571	0.004	Yes	2.727	-0.004	1.0	GoodResponse	0	0.171	70.09	3	6	Target	AvoidedLoss	True
71.09	0.3	Lose2	0.8571	0.004	Yes	2.727	-0.004	1.0	GoodResponse	0	0.171	n/a	3	6	ButtonPress	AvoidedLoss	True
71.303	0.32	Lose2	0.8571	n/a	Yes	2.727	n/a	n/a	GoodResponse	0	n/a	n/a	3	6	Blank	AvoidedLoss	True
71.621	1.45	Lose2	0.8571	n/a	Yes	2.727	n/a	5.0	GoodResponse	0	0.011	70.632	3	6	Feedback	AvoidedLoss	True
73.075	2.727	Lose2	0.8571	n/a	Yes	2.727	n/a	n/a	GoodResponse	0	0.0	n/a	3	6	ISIslide	AvoidedLoss	True
75.816	0.25	Lose2	0.875	0.001	Yes	4.034	0.016	n/a	GoodResponse	0	n/a	n/a	3	7	Cue	AvoidedLoss	True
76.067	4.05	Lose2	0.875	0.0	Yes	4.034	0.001	n/a	GoodResponse	0	n/a	n/a	3	7	Fixation	AvoidedLoss	True
80.113	0.37	Lose2	0.875	0.003	Yes	4.034	-0.003	1.0	GoodResponse	0	0.148	79.261	3	7	Target	AvoidedLoss	True
80.261	0.3	Lose2	0.875	0.003	Yes	4.034	-0.003	1.0	GoodResponse	0	0.148	n/a	3	7	ButtonPress	AvoidedLoss	True
80.497	0.33	Lose2	0.875	n/a	Yes	4.034	n/a	n/a	GoodResponse	0	n/a	n/a	3	7	Blank	AvoidedLoss	True
80.815	1.45	Lose2	0.875	n/a	Yes	4.034	n/a	5.0	GoodResponse	0	0.037	79.852	3	7	Feedback	AvoidedLoss	True
82.269	4.034	Lose2	0.875	n/a	Yes	4.034	n/a	n/a	GoodResponse	0	0.0	n/a	3	7	ISIslide	AvoidedLoss	True
86.314	0.25	Lose2	0.8889	0.001	Yes	3.036	0.014	n/a	GoodResponse	0	n/a	n/a	3	8	Cue	AvoidedLoss	True
86.565	3.95	Lose2	0.8889	0.0	Yes	3.036	0.001	n/a	GoodResponse	0	n/a	n/a	3	8	Fixation	AvoidedLoss	True
90.51	0.36	Lose2	0.8889	0.004	Yes	3.036	-0.004	1.0	GoodResponse	0	0.202	89.712	3	8	Target	AvoidedLoss	True
90.712	0.3	Lose2	0.8889	0.004	Yes	3.036	-0.004	1.0	GoodResponse	0	0.202	n/a	3	8	ButtonPress	AvoidedLoss	True
90.878	0.34	Lose2	0.8889	n/a	Yes	3.036	n/a	n/a	GoodResponse	0	n/a	n/a	3	8	Blank	AvoidedLoss	True
91.212	1.45	Lose2	0.8889	n/a	Yes	3.036	n/a	5.0	GoodResponse	0	0.029	90.241	3	8	Feedback	AvoidedLoss	True
92.667	3.036	Lose2	0.8889	n/a	Yes	3.036	n/a	n/a	GoodResponse	0	0.0	n/a	3	8	ISIslide	AvoidedLoss	True
95.726	0.25	Lose2	0.9	0.0	Yes	3.124	0.026	n/a	GoodResponse	0	n/a	n/a	3	9	Cue	AvoidedLoss	True
95.977	3.95	Lose2	0.9	0.0	Yes	3.124	0.001	n/a	GoodResponse	0	n/a	n/a	3	9	Fixation	AvoidedLoss	True
99.922	0.35	Lose2	0.9	0.004	Yes	3.124	-0.004	1.0	GoodResponse	0	0.233	99.155	3	9	Target	AvoidedLoss	True
100.155	0.3	Lose2	0.9	0.004	Yes	3.124	-0.004	1.0	GoodResponse	0	0.233	n/a	3	9	ButtonPress	AvoidedLoss	True
100.273	0.35	Lose2	0.9	n/a	Yes	3.124	n/a	n/a	GoodResponse	0	n/a	n/a	3	9	Blank	AvoidedLoss	True
100.624	1.45	Lose2	0.9	n/a	Yes	3.124	n/a	5.0	GoodResponse	0	0.032	99.656	3	9	Feedback	AvoidedLoss	True
102.078	3.124	Lose2	0.9	n/a	Yes	3.124	n/a	n/a	GoodResponse	0	0.0	n/a	3	9	ISIslide	AvoidedLoss	True
105.221	0.25	Control	0.9091	0.0	Yes	3.279	0.021	n/a	GoodResponse	0	n/a	n/a	3	10	Cue	Neutral	True
105.472	4.0	Control	0.9091	0.0	Yes	3.279	0.001	n/a	GoodResponse	0	n/a	n/a	3	10	Fixation	Neutral	True
109.467	0.34	Control	0.9091	0.004	Yes	3.279	-0.004	1.0	GoodResponse	0	0.206	108.673	3	10	Target	Neutral	True
109.673	0.3	Control	0.9091	0.004	Yes	3.279	-0.004	1.0	GoodResponse	0	0.206	n/a	3	10	ButtonPress	Neutral	True
109.818	0.36	Control	0.9091	n/a	Yes	3.279	n/a	n/a	GoodResponse	0	n/a	n/a	3	10	Blank	Neutral	True
110.169	1.45	Control	0.9091	n/a	Yes	3.279	n/a	5.0	GoodResponse	0	0.048	109.217	3	10	Feedback	Neutral	True
111.623	3.279	Control	0.9091	n/a	Yes	3.279	n/a	n/a	GoodResponse	0	0.0	n/a	3	10	ISIslide	Neutral	True
114.917	0.25	Lose2	0.9167000000000001	0.0	Yes	2.733	0.017	n/a	GoodResponse	0	n/a	n/a	3	11	Cue	AvoidedLoss	True
115.167	4.05	Lose2	0.9167000000000001	0.0	Yes	2.733	0.0	n/a	GoodResponse	0	n/a	n/a	3	11	Fixation	AvoidedLoss	True
119.213	0.33	Lose2	0.9167000000000001	0.004	Yes	2.733	-0.004	1.0	GoodResponse	0	0.225	118.438	3	11	Target	AvoidedLoss	True
119.438	0.3	Lose2	0.9167000000000001	0.004	Yes	2.733	-0.004	1.0	GoodResponse	0	0.225	n/a	3	11	ButtonPress	AvoidedLoss	True
119.547	0.37	Lose2	0.9167000000000001	n/a	Yes	2.733	n/a	n/a	GoodResponse	0	n/a	n/a	3	11	Blank	AvoidedLoss	True
119.915	1.45	Lose2	0.9167000000000001	n/a	Yes	2.733	n/a	5.0	GoodResponse	0	0.01	118.925	3	11	Feedback	AvoidedLoss	True
121.369	2.733	Lose2	0.9167000000000001	n/a	Yes	2.733	n/a	n/a	GoodResponse	0	0.0	n/a	3	11	ISIslide	AvoidedLoss	True
124.127	0.25	Control	0.9231	0.001	Yes	2.973	0.027	n/a	GoodResponse	0	n/a	n/a	3	12	Cue	Neutral	True
124.378	3.9	Control	0.9231	0.0	Yes	2.973	0.001	n/a	GoodResponse	0	n/a	n/a	3	12	Fixation	Neutral	True
128.273	0.32	Control	0.9231	0.004	Yes	2.973	-0.004	1.0	GoodResponse	0	0.196	127.469	3	12	Target	Neutral	True
128.469	0.3	Control	0.9231	0.004	Yes	2.973	-0.004	1.0	GoodResponse	0	0.196	n/a	3	12	ButtonPress	Neutral	True
128.607	0.38	Control	0.9231	n/a	Yes	2.973	n/a	n/a	GoodResponse	0	n/a	n/a	3	12	Blank	Neutral	True
128.975	1.45	Control	0.9231	n/a	Yes	2.973	n/a	5.0	GoodResponse	0	0.022	127.997	3	12	Feedback	Neutral	True
130.43	2.973	Control	0.9231	n/a	Yes	2.973	n/a	n/a	GoodResponse	0	0.0	n/a	3	12	ISIslide	Neutral	True
133.422	0.25	Control	0.9286	0.0	Yes	2.778	0.022	n/a	GoodResponse	0	n/a	n/a	3	13	Cue	Neutral	True
133.673	4.0	Control	0.9286	0.0	Yes	2.778	0.001	n/a	GoodResponse	0	n/a	n/a	3	13	Fixation	Neutral	True
137.668	0.31	Control	0.9286	0.004	Yes	2.778	-0.004	1.0	GoodResponse	0	0.189	136.857	3	13	Target	Neutral	True
137.857	0.3	Control	0.9286	0.004	Yes	2.778	-0.004	1.0	GoodResponse	0	0.189	n/a	3	13	ButtonPress	Neutral	True
137.985	0.39	Control	0.9286	n/a	Yes	2.778	n/a	n/a	GoodResponse	0	n/a	n/a	3	13	Blank	Neutral	True
138.37	1.45	Control	0.9286	n/a	Yes	2.778	n/a	5.0	GoodResponse	0	0.042	137.412	3	13	Feedback	Neutral	True
139.824	2.778	Control	0.9286	n/a	Yes	2.778	n/a	1.0	GoodResponse	0	0.456	n/a	3	13	ISIslide	Neutral	True
142.599	0.25	Win2	0.9333	0.0	Yes	2.701	-0.001	n/a	GoodResponse	1	n/a	n/a	4	14	Cue	Win	True
142.85	4.1	Win2	0.9333	0.0	Yes	2.701	0.001	n/a	GoodResponse	1	n/a	n/a	4	14	Fixation	Win	True
146.946	0.3	Win2	0.9333	0.003	Yes	2.701	-0.003	1.0	GoodResponse	1	0.241	146.187	4	14	Target	Win	True
147.187	0.3	Win2	0.9333	0.003	Yes	2.701	-0.003	1.0	GoodResponse	1	0.241	n/a	4	14	ButtonPress	Win	True
147.246	0.4	Win2	0.9333	n/a	Yes	2.701	n/a	n/a	GoodResponse	1	n/a	n/a	4	14	Blank	Win	True
147.648	1.45	Win2	0.9333	n/a	Yes	2.701	n/a	5.0	GoodResponse	1	0.032	146.68	4	14	Feedback	Win	True
149.102	2.701	Win2	0.9333	n/a	Yes	2.701	n/a	n/a	GoodResponse	1	0.0	n/a	4	14	ISIslide	Win	True
151.827	0.25	Control	0.9375	0.0	Yes	2.973	0.027	n/a	GoodResponse	0	n/a	n/a	4	15	Cue	Neutral	True
152.078	4.0	Control	0.9375	0.0	Yes	2.973	0.001	n/a	GoodResponse	0	n/a	n/a	4	15	Fixation	Neutral	True
156.073	0.29	Control	0.9375	0.004	Yes	2.973	-0.004	1.0	GoodResponse	0	0.112	155.185	4	15	Target	Neutral	True
156.185	0.3	Control	0.9375	0.004	Yes	2.973	-0.004	1.0	GoodResponse	0	0.112	n/a	4	15	ButtonPress	Neutral	True
156.374	0.41	Control	0.9375	n/a	Yes	2.973	n/a	n/a	GoodResponse	0	n/a	n/a	4	15	Blank	Neutral	True
156.775	1.45	Control	0.9375	n/a	Yes	2.973	n/a	5.0	GoodResponse	0	0.027	155.802	4	15	Feedback	Neutral	True
158.229	2.973	Control	0.9375	n/a	Yes	2.973	n/a	n/a	GoodResponse	0	0.0	n/a	4	15	ISIslide	Neutral	True
161.222	0.25	Win2	0.9412	0.0	Yes	2.878	0.022	n/a	GoodResponse	1	n/a	n/a	5	16	Cue	Win	True
161.472	4.0	Win2	0.9412	0.0	Yes	2.878	0.0	n/a	GoodResponse	1	n/a	n/a	5	16	Fixation	Win	True
165.468	0.28	Win2	0.9412	0.004	Yes	2.878	-0.004	1.0	GoodResponse	1	0.262	164.73	5	16	Target	Win	True
165.73	0.3	Win2	0.9412	0.004	Yes	2.878	-0.004	1.0	GoodResponse	1	0.262	n/a	5	16	ButtonPress	Win	True
165.752	0.42	Win2	0.9412	n/a	Yes	2.878	n/a	n/a	GoodResponse	1	n/a	n/a	5	16	Blank	Win	True
166.17	1.45	Win2	0.9412	n/a	Yes	2.878	n/a	5.0	GoodResponse	1	0.046	165.216	5	16	Feedback	Win	True
167.624	2.878	Win2	0.9412	n/a	Yes	2.878	n/a	n/a	GoodResponse	1	0.0	n/a	5	16	ISIslide	Win	True
170.516	0.25	Lose2	0.9444	0.0	Yes	2.734	0.016	n/a	GoodResponse	0	n/a	n/a	5	17	Cue	AvoidedLoss	True
170.767	3.95	Lose2	0.9444	0.0	Yes	2.734	0.001	n/a	GoodResponse	0	n/a	n/a	5	17	Fixation	AvoidedLoss	True
174.712	0.27	Lose2	0.9444	0.004	Yes	2.734	-0.004	1.0	GoodResponse	0	0.191	173.903	5	17	Target	AvoidedLoss	True
174.903	0.3	Lose2	0.9444	0.004	Yes	2.734	-0.004	1.0	GoodResponse	0	0.191	n/a	5	17	ButtonPress	AvoidedLoss	True
174.996	0.43	Lose2	0.9444	n/a	Yes	2.734	n/a	n/a	GoodResponse	0	n/a	n/a	5	17	Blank	AvoidedLoss	True
175.414	1.45	Lose2	0.9444	n/a	Yes	2.734	n/a	5.0	GoodResponse	0	0.021	174.435	5	17	Feedback	AvoidedLoss	True
176.868	2.734	Lose2	0.9444	n/a	Yes	2.734	n/a	n/a	GoodResponse	0	0.0	n/a	5	17	ISIslide	AvoidedLoss	True
179.627	0.25	Lose2	0.8946999999999999	0.0	No	2.723	0.027	n/a	NoResponse	-1	n/a	n/a	4	18	Cue	Loss	True
179.877	4.05	Lose2	0.8946999999999999	0.0	No	2.723	0.0	1.0	NoResponse	-1	3.968	182.845	4	18	Fixation	Loss	True
183.845	0.3	Lose2	0.8946999999999999	0.0	No	2.723	0.0	1.0	NoResponse	-1	3.968	n/a	4	18	ButtonPress	Loss	True
183.923	0.26	Lose2	0.8946999999999999	0.004	No	2.723	-0.004	n/a	NoResponse	-1	n/a	n/a	4	18	Target	Loss	True
184.19	0.44	Lose2	0.8946999999999999	n/a	No	2.723	n/a	n/a	NoResponse	-1	n/a	n/a	4	18	Blank	Loss	True
184.625	1.45	Lose2	0.8946999999999999	n/a	No	2.723	n/a	5.0	NoResponse	-1	0.03	183.655	4	18	Feedback	Loss	True
186.079	2.723	Lose2	0.8946999999999999	n/a	No	2.723	n/a	n/a	NoResponse	-1	0.0	n/a	4	18	ISIslide	Loss	True
188.821	0.25	Control	0.9	0.0	Yes	2.929	0.021	n/a	GoodResponse	0	n/a	n/a	4	19	Cue	Neutral	True
189.071	3.95	Control	0.9	0.0	Yes	2.929	0.0	n/a	GoodResponse	0	n/a	n/a	4	19	Fixation	Neutral	True
193.016	0.25	Control	0.9	0.005	Yes	2.929	-0.005	1.0	GoodResponse	0	0.246	192.262	4	19	Target	Neutral	True
193.262	0.3	Control	0.9	0.005	Yes	2.929	-0.005	1.0	GoodResponse	0	0.246	n/a	4	19	ButtonPress	Neutral	True
193.267	0.45	Control	0.9	n/a	Yes	2.929	n/a	n/a	GoodResponse	0	n/a	n/a	4	19	Blank	Neutral	True
193.719	1.45	Control	0.9	n/a	Yes	2.929	n/a	5.0	GoodResponse	0	0.009	192.728	4	19	Feedback	Neutral	True
195.173	2.929	Control	0.9	n/a	Yes	2.929	n/a	n/a	GoodResponse	0	0.0	n/a	4	19	ISIslide	Neutral	True
198.115	0.25	Control	0.9048	0.0	Yes	2.635	0.015	n/a	GoodResponse	0	n/a	n/a	4	20	Cue	Neutral	True
198.366	4.05	Control	0.9048	0.0	Yes	2.635	0.001	n/a	GoodResponse	0	n/a	n/a	4	20	Fixation	Neutral	True
202.411	0.24	Control	0.9048	0.004	Yes	2.635	-0.004	1.0	GoodResponse	0	0.22	201.631	4	20	Target	Neutral	True
202.631	0.3	Control	0.9048	0.004	Yes	2.635	-0.004	1.0	GoodResponse	0	0.22	n/a	4	20	ButtonPress	Neutral	True
202.662	0.46	Control	0.9048	n/a	Yes	2.635	n/a	n/a	GoodResponse	0	n/a	n/a	4	20	Blank	Neutral	True
203.113	1.45	Control	0.9048	n/a	Yes	2.635	n/a	5.0	GoodResponse	0	0.029	202.142	4	20	Feedback	Neutral	True
204.568	2.635	Control	0.9048	n/a	Yes	2.635	n/a	n/a	GoodResponse	0	0.0	n/a	4	20	ISIslide	Neutral	True
207.226	0.25	Control	0.8636	0.0	No	2.774	0.026	n/a	NoResponse	0	n/a	n/a	4	21	Cue	Neutral	True
207.476	4.1	Control	0.8636	0.0	No	2.774	0.0	n/a	NoResponse	0	n/a	n/a	4	21	Fixation	Neutral	True
211.572	0.23	Control	0.8636	0.004	No	2.774	-0.004	1.0	NoResponse	0	0.254	210.826	4	21	Target	Neutral	True
211.806	0.47	Control	0.8636	n/a	No	2.774	n/a	n/a	NoResponse	0	n/a	n/a	4	21	Blank	Neutral	True
211.826	0.3	Control	0.8636	0.004	No	2.774	-0.004	1.0	NoResponse	0	0.254	n/a	4	21	ButtonPress	Neutral	True
212.274	1.45	Control	0.8636	n/a	No	2.774	n/a	5.0	NoResponse	0	0.039	211.313	4	21	Feedback	Neutral	True
213.728	2.774	Control	0.8636	n/a	No	2.774	n/a	n/a	NoResponse	0	0.0	n/a	4	21	ISIslide	Neutral	True
216.52	0.25	Control	0.8695999999999999	0.0	Yes	2.78	0.02	n/a	GoodResponse	0	n/a	n/a	4	22	Cue	Neutral	True
216.771	4.0	Control	0.8695999999999999	0.0	Yes	2.78	0.001	n/a	GoodResponse	0	n/a	n/a	4	22	Fixation	Neutral	True
220.766	0.22	Control	0.8695999999999999	0.004	Yes	2.78	-0.004	1.0	GoodResponse	0	0.191	219.957	4	22	Target	Neutral	True
220.957	0.3	Control	0.8695999999999999	0.004	Yes	2.78	-0.004	1.0	GoodResponse	0	0.191	n/a	4	22	ButtonPress	Neutral	True
221	0.48	Control	0.8695999999999999	n/a	Yes	2.78	n/a	n/a	GoodResponse	0	n/a	n/a	4	22	Blank	Neutral	True
221.468	1.45	Control	0.8695999999999999	n/a	Yes	2.78	n/a	5.0	GoodResponse	0	0.016	220.484	4	22	Feedback	Neutral	True
222.922	2.78	Control	0.8695999999999999	n/a	Yes	2.78	n/a	n/a	GoodResponse	0	0.0	n/a	4	22	ISIslide	Neutral	True
225.714	0.25	Control	0.875	0.0	Yes	2.786	0.014	n/a	GoodResponse	0	n/a	n/a	4	23	Cue	Neutral	True
225.965	3.9	Control	0.875	0.0	Yes	2.786	0.001	n/a	GoodResponse	0	n/a	n/a	4	23	Fixation	Neutral	True
229.86	0.21	Control	0.875	0.004	Yes	2.786	-0.004	1.0	GoodResponse	0	0.19	229.05	4	23	Target	Neutral	True
230.05	0.3	Control	0.875	0.004	Yes	2.786	-0.004	1.0	GoodResponse	0	0.19	n/a	4	23	ButtonPress	Neutral	True
230.077	0.49	Control	0.875	n/a	Yes	2.786	n/a	n/a	GoodResponse	0	n/a	n/a	4	23	Blank	Neutral	True
230.562	1.45	Control	0.875	n/a	Yes	2.786	n/a	5.0	GoodResponse	0	0.044	229.606	4	23	Feedback	Neutral	True
232.016	2.786	Control	0.875	n/a	Yes	2.786	n/a	n/a	GoodResponse	0	0.0	n/a	4	23	ISIslide	Neutral	True
234.825	0.25	Win2	0.84	0.0	No	3.125	0.025	n/a	NoResponse	0	n/a	n/a	4	24	Cue	MissedWin	True
235.075	3.95	Win2	0.84	0.0	No	3.125	0.0	n/a	NoResponse	0	n/a	n/a	4	24	Fixation	MissedWin	True
239.021	0.2	Win2	0.84	0.004	No	3.125	-0.004	1.0	NoResponse	0	0.234	238.255	4	24	Target	MissedWin	True
239.221	0.5	Win2	0.84	n/a	No	3.125	n/a	n/a	NoResponse	0	n/a	n/a	4	24	Blank	MissedWin	True
239.255	0.3	Win2	0.84	0.004	No	3.125	-0.004	1.0	NoResponse	0	0.234	n/a	4	24	ButtonPress	MissedWin	True
239.723	1.45	Win2	0.84	n/a	No	3.125	n/a	5.0	NoResponse	0	0.005	238.728	4	24	Feedback	MissedWin	True
241.177	3.125	Win2	0.84	n/a	No	3.125	n/a	n/a	NoResponse	0	0.0	n/a	4	24	ISIslide	MissedWin	True
244.32	0.25	Win2	0.8077	0.0	No	3.08	0.02	n/a	PrematurePress	0	n/a	n/a	4	25	Cue	MissedWin	True
244.57	4.0	Win2	0.8077	0.001	No	3.08	0.0	n/a	PrematurePress	0	n/a	n/a	4	25	Fixation	MissedWin	True
248.566	0.19	Win2	0.8077	0.004	No	3.08	-0.004	1.0	PrematurePress	0	0.064	247.63	4	25	Target	MissedWin	True
248.63	0.3	Win2	0.8077	0.004	No	3.08	-0.004	1.0	PrematurePress	0	0.064	n/a	4	25	ButtonPress	MissedWin	True
248.766	0.51	Win2	0.8077	n/a	No	3.08	n/a	n/a	PrematurePress	0	n/a	n/a	4	25	Blank	MissedWin	True
249.268	1.45	Win2	0.8077	n/a	No	3.08	n/a	5.0	PrematurePress	0	0.02	248.288	4	25	Feedback	MissedWin	True
250.722	3.08	Win2	0.8077	n/a	No	3.08	n/a	n/a	PrematurePress	0	0.0	n/a	4	25	ISIslide	MissedWin	True
253.815	0.25	Win2	0.7778	0.0	No	2.935	0.015	n/a	NoResponse	0	n/a	n/a	4	26	Cue	MissedWin	True
254.065	3.95	Win2	0.7778	0.001	No	2.935	0.0	n/a	NoResponse	0	n/a	n/a	4	26	Fixation	MissedWin	True
258.011	0.18	Win2	0.7778	0.004	No	2.935	-0.004	1.0	NoResponse	0	0.213	257.224	4	26	Target	MissedWin	True
258.194	0.52	Win2	0.7778	n/a	No	2.935	n/a	n/a	NoResponse	0	n/a	n/a	4	26	Blank	MissedWin	True
258.224	0.3	Win2	0.7778	0.004	No	2.935	-0.004	1.0	NoResponse	0	0.213	n/a	4	26	ButtonPress	MissedWin	True
258.713	1.45	Win2	0.7778	n/a	No	2.935	n/a	5.0	NoResponse	0	0.038	257.751	4	26	Feedback	MissedWin	True
260.167	2.935	Win2	0.7778	n/a	No	2.935	n/a	n/a	NoResponse	0	0.0	n/a	4	26	ISIslide	MissedWin	True
263.126	0.25	Lose2	0.75	0.0	No	2.824	0.026	n/a	NoResponse	-1	n/a	n/a	3	27	Cue	Loss	True
263.377	4.05	Lose2	0.75	0.0	No	2.824	0.001	n/a	NoResponse	-1	n/a	n/a	3	27	Fixation	Loss	True
267.422	0.17	Lose2	0.75	0.004	No	2.824	-0.004	1.0	NoResponse	-1	0.209	266.631	3	27	Target	Loss	True
267.606	0.53	Lose2	0.75	n/a	No	2.824	n/a	n/a	NoResponse	-1	n/a	n/a	3	27	Blank	Loss	True
267.631	0.3	Lose2	0.75	0.004	No	2.824	-0.004	1.0	NoResponse	-1	0.209	n/a	3	27	ButtonPress	Loss	True
268.124	1.45	Lose2	0.75	n/a	No	2.824	n/a	5.0	NoResponse	-1	0.042	267.166	3	27	Feedback	Loss	True
269.578	2.824	Lose2	0.75	n/a	No	2.824	n/a	n/a	NoResponse	-1	0.0	n/a	3	27	ISIslide	Loss	True
272.42	0.25	Control	0.7241	0.0	No	2.83	0.02	n/a	NoResponse	0	n/a	n/a	3	28	Cue	Neutral	True
272.671	4.05	Control	0.7241	0.0	No	2.83	0.001	n/a	NoResponse	0	n/a	n/a	3	28	Fixation	Neutral	True
276.716	0.16	Control	0.7241	0.004	No	2.83	-0.004	1.0	NoResponse	0	0.205	275.921	3	28	Target	Neutral	True
276.884	0.54	Control	0.7241	n/a	No	2.83	n/a	n/a	NoResponse	0	n/a	n/a	3	28	Blank	Neutral	True
276.921	0.3	Control	0.7241	0.004	No	2.83	-0.004	1.0	NoResponse	0	0.205	n/a	3	28	ButtonPress	Neutral	True
277.419	1.45	Control	0.7241	n/a	No	2.83	n/a	5.0	NoResponse	0	0.014	276.433	3	28	Feedback	Neutral	True
278.873	2.83	Control	0.7241	n/a	No	2.83	n/a	1.0	NoResponse	0	2.801	n/a	3	28	ISIslide	Neutral	True
281.698	0.25	Lose2	0.7	0.0	No	2.852	-0.002	n/a	NoResponse	-1	n/a	n/a	2	29	Cue	Loss	True
281.949	3.95	Lose2	0.7	0.0	No	2.852	0.001	n/a	NoResponse	-1	n/a	n/a	2	29	Fixation	Loss	True
285.894	0.15	Lose2	0.7	0.004	No	2.852	-0.004	1.0	NoResponse	-1	0.193	285.087	2	29	Target	Loss	True
286.044	0.55	Lose2	0.7	n/a	No	2.852	n/a	n/a	NoResponse	-1	n/a	n/a	2	29	Blank	Loss	True
286.087	0.3	Lose2	0.7	0.004	No	2.852	-0.004	1.0	NoResponse	-1	0.193	n/a	2	29	ButtonPress	Loss	True
286.596	1.45	Lose2	0.7	n/a	No	2.852	n/a	5.0	NoResponse	-1	0.008	285.604	2	29	Feedback	Loss	True
288.05	2.852	Lose2	0.7	n/a	No	2.852	n/a	n/a	NoResponse	-1	0.0	n/a	2	29	ISIslide	Loss	True
290.926	0.25	Win2	0.6774	0.0	No	2.774	0.026	n/a	NoResponse	0	n/a	n/a	2	30	Cue	MissedWin	True
291.176	3.9	Win2	0.6774	0.0	No	2.774	0.0	n/a	NoResponse	0	n/a	n/a	2	30	Fixation	MissedWin	True
295.088	0.15	Win2	0.6774	0.0	No	2.774	0.012	1.0	NoResponse	0	0.181	294.269	2	30	Target	MissedWin	True
295.222	0.55	Win2	0.6774	n/a	No	2.774	n/a	n/a	NoResponse	0	n/a	n/a	2	30	Blank	MissedWin	True
295.269	0.3	Win2	0.6774	0.0	No	2.774	0.012	1.0	NoResponse	0	0.181	n/a	2	30	ButtonPress	MissedWin	True
295.773	1.45	Win2	0.6774	n/a	No	2.774	n/a	5.0	NoResponse	0	0.002	294.775	2	30	Feedback	MissedWin	True
297.228	2.774	Win2	0.6774	n/a	No	2.774	n/a	n/a	NoResponse	0	0.0	n/a	2	30	ISIslide	MissedWin	True
300.019	0.25	Lose2	0.6562	0.0	No	2.831	0.019	n/a	NoResponse	-1	n/a	n/a	1	31	Cue	Loss	True
300.27	4.05	Lose2	0.6562	0.0	No	2.831	0.001	n/a	NoResponse	-1	n/a	n/a	1	31	Fixation	Loss	True
304.316	0.15	Lose2	0.6562	0.003	No	2.831	-0.003	1.0	NoResponse	-1	0.196	303.512	1	31	Target	Loss	True
304.466	0.55	Lose2	0.6562	n/a	No	2.831	n/a	n/a	NoResponse	-1	n/a	n/a	1	31	Blank	Loss	True
304.512	0.3	Lose2	0.6562	0.003	No	2.831	-0.003	1.0	NoResponse	-1	0.196	n/a	1	31	ButtonPress	Loss	True
305.018	1.45	Lose2	0.6562	n/a	No	2.831	n/a	5.0	NoResponse	-1	0.026	304.044	1	31	Feedback	Loss	True
306.472	2.831	Lose2	0.6562	n/a	No	2.831	n/a	n/a	NoResponse	-1	0.0	n/a	1	31	ISIslide	Loss	True
309.314	0.25	Lose2	0.6364	0.0	No	2.636	0.014	n/a	NoResponse	-1	n/a	n/a	0	32	Cue	Loss	True
309.565	4.15	Lose2	0.6364	0.0	No	2.636	0.001	n/a	NoResponse	-1	n/a	n/a	0	32	Fixation	Loss	True
313.71	0.15	Lose2	0.6364	0.004	No	2.636	-0.004	1.0	NoResponse	-1	0.215	312.925	0	32	Target	Loss	True
313.861	0.55	Lose2	0.6364	n/a	No	2.636	n/a	n/a	NoResponse	-1	n/a	n/a	0	32	Blank	Loss	True
313.925	0.3	Lose2	0.6364	0.004	No	2.636	-0.004	1.0	NoResponse	-1	0.215	n/a	0	32	ButtonPress	Loss	True
314.412	1.45	Lose2	0.6364	n/a	No	2.636	n/a	5.0	NoResponse	-1	0.045	313.457	0	32	Feedback	Loss	True
315.867	2.636	Lose2	0.6364	n/a	No	2.636	n/a	1.0	NoResponse	-1	0.421	n/a	0	32	ISIslide	Loss	True
318.508	0.25	Win2	0.6470999999999999	0.0	Yes	2.692	0.008	1.0	GoodResponse	1	0.172	317.68	1	33	Cue	Win	False
318.68	0.3	Win2	0.6470999999999999	0.0	Yes	2.692	0.008	1.0	GoodResponse	1	0.172	n/a	1	33	ButtonPress	Win	False
318.759	4.0	Win2	0.6470999999999999	0.0	Yes	2.692	0.001	n/a	GoodResponse	1	n/a	n/a	1	33	Fixation	Win	False
322.754	0.16	Win2	0.6470999999999999	0.004	Yes	2.692	-0.004	1.0	GoodResponse	1	0.145	321.899	1	33	Target	Win	False
322.899	0.3	Win2	0.6470999999999999	0.004	Yes	2.692	-0.004	1.0	GoodResponse	1	0.145	n/a	1	33	ButtonPress	Win	False
322.921	0.54	Win2	0.6470999999999999	n/a	Yes	2.692	n/a	n/a	GoodResponse	1	n/a	n/a	1	33	Blank	Win	False
323.456	1.45	Win2	0.6470999999999999	n/a	Yes	2.692	n/a	5.0	GoodResponse	1	0.026	322.482	1	33	Feedback	Win	False
324.91	2.692	Win2	0.6470999999999999	n/a	Yes	2.692	n/a	n/a	GoodResponse	1	0.0	n/a	1	33	ISIslide	Win	False
327.618	0.25	Lose2	0.6570999999999999	0.001	Yes	2.632	0.018	n/a	GoodResponse	0	n/a	n/a	1	34	Cue	AvoidedLoss	True
327.869	4.05	Lose2	0.6570999999999999	0.0	Yes	2.632	0.001	n/a	GoodResponse	0	n/a	n/a	1	34	Fixation	AvoidedLoss	True
331.915	0.17	Lose2	0.6570999999999999	0.003	Yes	2.632	-0.003	1.0	GoodResponse	0	0.168	331.083	1	34	Target	AvoidedLoss	True
332.083	0.3	Lose2	0.6570999999999999	0.003	Yes	2.632	-0.003	1.0	GoodResponse	0	0.168	n/a	1	34	ButtonPress	AvoidedLoss	True
332.099	0.53	Lose2	0.6570999999999999	n/a	Yes	2.632	n/a	n/a	GoodResponse	0	n/a	n/a	1	34	Blank	AvoidedLoss	True
332.617	1.45	Lose2	0.6570999999999999	n/a	Yes	2.632	n/a	5.0	GoodResponse	0	0.036	331.653	1	34	Feedback	AvoidedLoss	True
334.071	2.632	Lose2	0.6570999999999999	n/a	Yes	2.632	n/a	n/a	GoodResponse	0	0.0	n/a	1	34	ISIslide	AvoidedLoss	True
336.729	0.25	Lose2	0.6389	0.0	No	2.671	0.029	n/a	NoResponse	-1	n/a	n/a	0	35	Cue	Loss	True
336.98	4.0	Lose2	0.6389	0.0	No	2.671	0.001	1.0	NoResponse	-1	3.854	339.834	0	35	Fixation	Loss	True
340.834	0.3	Lose2	0.6389	0.0	No	2.671	0.001	1.0	NoResponse	-1	3.854	n/a	0	35	ButtonPress	Loss	True
340.975	0.17	Lose2	0.6389	0.004	No	2.671	-0.004	n/a	NoResponse	-1	n/a	n/a	0	35	Target	Loss	True
341.159	0.53	Lose2	0.6389	n/a	No	2.671	n/a	n/a	NoResponse	-1	n/a	n/a	0	35	Blank	Loss	True
341.677	1.45	Lose2	0.6389	n/a	No	2.671	n/a	5.0	NoResponse	-1	0.049	340.726	0	35	Feedback	Loss	True
343.131	2.671	Lose2	0.6389	n/a	No	2.671	n/a	1.0	NoResponse	-1	2.476	n/a	0	35	ISIslide	Loss	True
345.806	0.25	Control	0.6215999999999999	0.0	No	2.694	0.006	n/a	NoResponse	0	n/a	n/a	0	36	Cue	Neutral	True
346.057	4.0	Control	0.6215999999999999	0.0	No	2.694	0.001	n/a	NoResponse	0	n/a	n/a	0	36	Fixation	Neutral	True
350.052	0.18	Control	0.6215999999999999	0.004	No	2.694	-0.004	1.0	NoResponse	0	0.306	349.358	0	36	Target	Neutral	True
350.236	0.52	Control	0.6215999999999999	n/a	No	2.694	n/a	n/a	NoResponse	0	n/a	n/a	0	36	Blank	Neutral	True
350.358	0.3	Control	0.6215999999999999	0.004	No	2.694	-0.004	1.0	NoResponse	0	0.306	n/a	0	36	ButtonPress	Neutral	True
350.754	1.45	Control	0.6215999999999999	n/a	No	2.694	n/a	5.0	NoResponse	0	0.044	349.798	0	36	Feedback	Neutral	True
352.209	2.694	Control	0.6215999999999999	n/a	No	2.694	n/a	1.0	NoResponse	0	0.146	n/a	0	36	ISIslide	Neutral	True
354.9	0.25	Win2	0.6053000000000001	0.0	No	2.9	0.0	n/a	NoResponse	0	n/a	n/a	0	37	Cue	MissedWin	True
355.151	4.0	Win2	0.6053000000000001	0.0	No	2.9	0.001	1.0	NoResponse	0	3.112	357.263	0	37	Fixation	MissedWin	True
358.263	0.3	Win2	0.6053000000000001	0.0	No	2.9	0.001	1.0	NoResponse	0	3.112	n/a	0	37	ButtonPress	MissedWin	True
359.146	0.19	Win2	0.6053000000000001	0.004	No	2.9	-0.004	n/a	NoResponse	0	n/a	n/a	0	37	Target	MissedWin	True
359.347	0.51	Win2	0.6053000000000001	n/a	No	2.9	n/a	n/a	NoResponse	0	n/a	n/a	0	37	Blank	MissedWin	True
359.848	1.45	Win2	0.6053000000000001	n/a	No	2.9	n/a	5.0	NoResponse	0	0.023	358.871	0	37	Feedback	MissedWin	True
361.302	2.9	Win2	0.6053000000000001	n/a	No	2.9	n/a	1.0	NoResponse	0	0.474	n/a	0	37	ISIslide	MissedWin	True
364.211	0.25	Lose2	0.5897	0.0	No	2.839	0.011	n/a	NoResponse	-1	n/a	n/a	-1	38	Cue	Loss	True
364.462	3.95	Lose2	0.5897	0.0	No	2.839	0.001	1.0	NoResponse	-1	0.118	363.58	-1	38	Fixation	Loss	True
364.58	0.3	Lose2	0.5897	0.0	No	2.839	0.001	1.0	NoResponse	-1	0.118	n/a	-1	38	ButtonPress	Loss	True
368.407	0.2	Lose2	0.5897	0.004	No	2.839	-0.004	n/a	NoResponse	-1	n/a	n/a	-1	38	Target	Loss	True
368.608	0.5	Lose2	0.5897	n/a	No	2.839	n/a	n/a	NoResponse	-1	n/a	n/a	-1	38	Blank	Loss	True
369.109	1.45	Lose2	0.5897	n/a	No	2.839	n/a	5.0	NoResponse	-1	0.031	368.14	-1	38	Feedback	Loss	True
370.563	2.839	Lose2	0.5897	n/a	No	2.839	n/a	n/a	NoResponse	-1	0.0	n/a	-1	38	ISIslide	Loss	True
373.422	0.25	Win2	0.575	0.0	No	2.978	0.022	n/a	NoResponse	0	n/a	n/a	-1	39	Cue	MissedWin	True
373.673	4.1	Win2	0.575	0.0	No	2.978	0.001	n/a	NoResponse	0	n/a	n/a	-1	39	Fixation	MissedWin	True
377.768	0.21	Win2	0.575	0.004	No	2.978	-0.004	1.0	NoResponse	0	0.237	377.005	-1	39	Target	MissedWin	True
377.986	0.49	Win2	0.575	n/a	No	2.978	n/a	n/a	NoResponse	0	n/a	n/a	-1	39	Blank	MissedWin	True
378.005	0.3	Win2	0.575	0.004	No	2.978	-0.004	1.0	NoResponse	0	0.237	n/a	-1	39	ButtonPress	MissedWin	True
378.47	1.45	Win2	0.575	n/a	No	2.978	n/a	5.0	NoResponse	0	0.036	377.506	-1	39	Feedback	MissedWin	True
379.925	2.978	Win2	0.575	n/a	No	2.978	n/a	n/a	NoResponse	0	0.0	n/a	-1	39	ISIslide	MissedWin	True
382.917	0.25	Win2	0.561	0.0	No	2.733	0.017	n/a	NoResponse	0	n/a	n/a	-1	40	Cue	MissedWin	False
383.168	3.95	Win2	0.561	0.0	No	2.733	0.001	n/a	NoResponse	0	n/a	n/a	-1	40	Fixation	MissedWin	False
387.113	0.22	Win2	0.561	0.004	No	2.733	-0.004	n/a	NoResponse	0	n/a	n/a	-1	40	Target	MissedWin	False
387.347	0.48	Win2	0.561	n/a	No	2.733	n/a	n/a	NoResponse	0	n/a	n/a	-1	40	Blank	MissedWin	False
387.815	1.45	Win2	0.561	n/a	No	2.733	n/a	5.0	NoResponse	0	0.008	386.823	-1	40	Feedback	MissedWin	False
389.269	2.733	Win2	0.561	n/a	No	2.733	n/a	n/a	NoResponse	0	0.0	n/a	-1	40	ISIslide	MissedWin	False
392.028	0.25	Win2	0.5476	0.0	No	2.772	0.028	n/a	NoResponse	0	n/a	n/a	-1	41	Cue	MissedWin	False
392.278	3.9	Win2	0.5476	0.0	No	2.772	0.0	1.0	NoResponse	0	0.015	391.293	-1	41	Fixation	MissedWin	False
392.293	0.3	Win2	0.5476	0.0	No	2.772	0.0	1.0	NoResponse	0	0.015	n/a	-1	41	ButtonPress	MissedWin	False
396.19	0.23	Win2	0.5476	0.0	No	2.772	0.012	1.0	NoResponse	0	0.225	395.415	-1	41	Target	MissedWin	False
396.407	0.47	Win2	0.5476	n/a	No	2.772	n/a	n/a	NoResponse	0	n/a	n/a	-1	41	Blank	MissedWin	False
396.415	0.3	Win2	0.5476	0.0	No	2.772	0.012	1.0	NoResponse	0	0.225	n/a	-1	41	ButtonPress	MissedWin	False
396.875	1.45	Win2	0.5476	n/a	No	2.772	n/a	5.0	NoResponse	0	0.02	395.895	-1	41	Feedback	MissedWin	False
398.33	2.772	Win2	0.5476	n/a	No	2.772	n/a	n/a	NoResponse	0	0.0	n/a	-1	41	ISIslide	MissedWin	False
401.121	0.25	Control	0.5581	0.0	Yes	2.929	0.021	n/a	GoodResponse	0	n/a	n/a	-1	42	Cue	Neutral	True
401.372	3.85	Control	0.5581	0.0	Yes	2.929	0.001	n/a	GoodResponse	0	n/a	n/a	-1	42	Fixation	Neutral	True
405.217	0.24	Control	0.5581	0.004	Yes	2.929	-0.004	1.0	GoodResponse	0	0.217	404.434	-1	42	Target	Neutral	True
405.434	0.3	Control	0.5581	0.004	Yes	2.929	-0.004	1.0	GoodResponse	0	0.217	n/a	-1	42	ButtonPress	Neutral	True
405.468	0.46	Control	0.5581	n/a	Yes	2.929	n/a	n/a	GoodResponse	0	n/a	n/a	-1	42	Blank	Neutral	True
405.919	1.45	Control	0.5581	n/a	Yes	2.929	n/a	5.0	GoodResponse	0	0.001	404.92	-1	42	Feedback	Neutral	True
407.373	2.929	Control	0.5581	n/a	Yes	2.929	n/a	n/a	GoodResponse	0	0.0	n/a	-1	42	ISIslide	Neutral	True
410.315	0.25	Win2	0.5455	0.001	No	3.185	0.015	1.0	LatePress	0	0.109	409.424	-1	43	Cue	MissedWin	False
410.424	0.3	Win2	0.5455	0.001	No	3.185	0.015	1.0	LatePress	0	0.109	n/a	-1	43	ButtonPress	MissedWin	False
410.566	4.0	Win2	0.5455	0.0	No	3.185	0.001	n/a	LatePress	0	n/a	n/a	-1	43	Fixation	MissedWin	False
414.561	0.25	Win2	0.5455	0.004	No	3.185	-0.004	1.0	LatePress	0	0.25	413.811	-1	43	Target	MissedWin	False
414.811	0.3	Win2	0.5455	0.004	No	3.185	-0.004	1.0	LatePress	0	0.25	n/a	-1	43	ButtonPress	MissedWin	False
414.812	0.45	Win2	0.5455	n/a	No	3.185	n/a	n/a	LatePress	0	n/a	n/a	-1	43	Blank	MissedWin	False
415.264	1.45	Win2	0.5455	n/a	No	3.185	n/a	5.0	LatePress	0	0.022	414.286	-1	43	Feedback	MissedWin	False
416.718	3.185	Win2	0.5455	n/a	No	3.185	n/a	n/a	LatePress	0	0.0	n/a	-1	43	ISIslide	MissedWin	False
419.927	0.25	Win2	0.5333	0.001	No	2.973	0.027	n/a	NoResponse	0	n/a	n/a	-1	44	Cue	MissedWin	False
420.178	4.0	Win2	0.5333	0.0	No	2.973	0.001	n/a	NoResponse	0	n/a	n/a	-1	44	Fixation	MissedWin	False
424.173	0.26	Win2	0.5333	0.004	No	2.973	-0.004	n/a	NoResponse	0	n/a	n/a	-1	44	Target	MissedWin	False
424.441	0.44	Win2	0.5333	n/a	No	2.973	n/a	n/a	NoResponse	0	n/a	n/a	-1	44	Blank	MissedWin	False
424.876	1.45	Win2	0.5333	n/a	No	2.973	n/a	5.0	NoResponse	0	0.018	423.894	-1	44	Feedback	MissedWin	False
426.33	2.973	Win2	0.5333	n/a	No	2.973	n/a	n/a	NoResponse	0	0.0	n/a	-1	44	ISIslide	MissedWin	False
429.322	0.25	Control	0.5217	0.0	No	2.878	0.022	n/a	NoResponse	0	n/a	n/a	-1	45	Cue	Neutral	True
429.573	4.1	Control	0.5217	0.0	No	2.878	0.001	1.0	NoResponse	0	3.895	432.468	-1	45	Fixation	Neutral	True
433.468	0.3	Control	0.5217	0.0	No	2.878	0.001	1.0	NoResponse	0	3.895	n/a	-1	45	ButtonPress	Neutral	True
433.669	0.27	Control	0.5217	0.003	No	2.878	-0.003	n/a	NoResponse	0	n/a	n/a	-1	45	Target	Neutral	True
433.953	0.43	Control	0.5217	n/a	No	2.878	n/a	n/a	NoResponse	0	n/a	n/a	-1	45	Blank	Neutral	True
434.371	1.45	Control	0.5217	n/a	No	2.878	n/a	5.0	NoResponse	0	0.036	433.407	-1	45	Feedback	Neutral	True
435.825	2.878	Control	0.5217	n/a	No	2.878	n/a	1.0	NoResponse	0	2.864	n/a	-1	45	ISIslide	Neutral	True
438.717	0.25	Lose2	0.5106	0.0	No	3.383	0.017	n/a	PrematurePress	-1	n/a	n/a	-2	46	Cue	Loss	False
438.968	4.0	Lose2	0.5106	0.0	No	3.383	0.001	1.0	PrematurePress	-1	3.283	441.251	-2	46	Fixation	Loss	False
442.251	0.3	Lose2	0.5106	0.0	No	3.383	0.001	1.0	PrematurePress	-1	3.283	n/a	-2	46	ButtonPress	Loss	False
442.963	0.28	Lose2	0.5106	0.004	No	3.383	-0.004	1.0	PrematurePress	-1	0.067	442.03	-2	46	Target	Loss	False
443.03	0.3	Lose2	0.5106	0.004	No	3.383	-0.004	1.0	PrematurePress	-1	0.067	n/a	-2	46	ButtonPress	Loss	False
443.247	0.42	Lose2	0.5106	n/a	No	3.383	n/a	n/a	PrematurePress	-1	n/a	n/a	-2	46	Blank	Loss	False
443.665	1.45	Lose2	0.5106	n/a	No	3.383	n/a	5.0	PrematurePress	-1	0.01	442.675	-2	46	Feedback	Loss	False
445.119	3.383	Lose2	0.5106	n/a	No	3.383	n/a	n/a	PrematurePress	-1	0.0	n/a	-2	46	ISIslide	Loss	False
448.53	0.25	Lose2	0.5207999999999999	0.0	Yes	2.67	0.03	n/a	GoodResponse	0	n/a	n/a	-2	47	Cue	AvoidedLoss	True
448.78	4.0	Lose2	0.5207999999999999	0.0	Yes	2.67	0.0	n/a	GoodResponse	0	n/a	n/a	-2	47	Fixation	AvoidedLoss	True
452.776	0.29	Lose2	0.5207999999999999	0.004	Yes	2.67	-0.004	1.0	GoodResponse	0	0.113	451.889	-2	47	Target	AvoidedLoss	True
452.889	0.3	Lose2	0.5207999999999999	0.004	Yes	2.67	-0.004	1.0	GoodResponse	0	0.113	n/a	-2	47	ButtonPress	AvoidedLoss	True
453.076	0.41	Lose2	0.5207999999999999	n/a	Yes	2.67	n/a	n/a	GoodResponse	0	n/a	n/a	-2	47	Blank	AvoidedLoss	True
453.478	1.45	Lose2	0.5207999999999999	n/a	Yes	2.67	n/a	5.0	GoodResponse	0	0.002	452.48	-2	47	Feedback	AvoidedLoss	True
454.932	2.67	Lose2	0.5207999999999999	n/a	Yes	2.67	n/a	n/a	GoodResponse	0	0.0	n/a	-2	47	ISIslide	AvoidedLoss	True
457.623	0.25	Lose2	0.5102	0.0	No	3.027	0.023	n/a	NoResponse	-1	n/a	n/a	-3	48	Cue	Loss	False
457.874	3.95	Lose2	0.5102	0.0	No	3.027	0.001	n/a	NoResponse	-1	n/a	n/a	-3	48	Fixation	Loss	False
461.819	0.3	Lose2	0.5102	0.004	No	3.027	-0.004	n/a	NoResponse	-1	n/a	n/a	-3	48	Target	Loss	False
462.12	0.4	Lose2	0.5102	n/a	No	3.027	n/a	n/a	NoResponse	-1	n/a	n/a	-3	48	Blank	Loss	False
462.521	1.45	Lose2	0.5102	n/a	No	3.027	n/a	5.0	NoResponse	-1	0.031	461.552	-3	48	Feedback	Loss	False
463.976	3.027	Lose2	0.5102	n/a	No	3.027	n/a	n/a	NoResponse	-1	0.0	n/a	-3	48	ISIslide	Loss	False
467.018	0.25	Control	0.52	0.0	Yes	2.882	0.018	n/a	GoodResponse	0	n/a	n/a	-3	49	Cue	Neutral	False
467.269	4.0	Control	0.52	0.0	Yes	2.882	0.001	1.0	GoodResponse	0	0.325	466.594	-3	49	Fixation	Neutral	False
467.594	0.3	Control	0.52	0.0	Yes	2.882	0.001	1.0	GoodResponse	0	0.325	n/a	-3	49	ButtonPress	Neutral	False
471.264	0.31	Control	0.52	0.004	Yes	2.882	-0.004	1.0	GoodResponse	0	0.238	470.502	-3	49	Target	Neutral	False
471.502	0.3	Control	0.52	0.004	Yes	2.882	-0.004	1.0	GoodResponse	0	0.238	n/a	-3	49	ButtonPress	Neutral	False
471.582	0.39	Control	0.52	n/a	Yes	2.882	n/a	n/a	GoodResponse	0	n/a	n/a	-3	49	Blank	Neutral	False
471.966	1.45	Control	0.52	n/a	Yes	2.882	n/a	5.0	GoodResponse	0	0.001	470.967	-3	49	Feedback	Neutral	False
473.421	2.882	Control	0.52	n/a	Yes	2.882	n/a	n/a	GoodResponse	0	0.0	n/a	-3	49	ISIslide	Neutral	False
476.329	0.25	Control	0.5097999999999999	0.0	No	2.771	0.029	n/a	PrematurePress	0	n/a	n/a	-3	50	Cue	Neutral	False
476.58	4.0	Control	0.5097999999999999	0.0	No	2.771	0.001	1.0	PrematurePress	0	3.429	479.009	-3	50	Fixation	Neutral	False
480.009	0.3	Control	0.5097999999999999	0.0	No	2.771	0.001	1.0	PrematurePress	0	3.429	n/a	-3	50	ButtonPress	Neutral	False
480.575	0.32	Control	0.5097999999999999	0.004	No	2.771	-0.004	1.0	PrematurePress	0	0.01	479.585	-3	50	Target	Neutral	False
480.585	0.3	Control	0.5097999999999999	0.004	No	2.771	-0.004	1.0	PrematurePress	0	0.01	n/a	-3	50	ButtonPress	Neutral	False
480.91	0.38	Control	0.5097999999999999	n/a	No	2.771	n/a	n/a	PrematurePress	0	n/a	n/a	-3	50	Blank	Neutral	False
481.277	1.45	Control	0.5097999999999999	n/a	No	2.771	n/a	5.0	PrematurePress	0	0.007	480.284	-3	50	Feedback	Neutral	False
482.732	2.771	Control	0.5097999999999999	n/a	No	2.771	n/a	1.0	PrematurePress	0	0.251	n/a	-3	50	ISIslide	Neutral	False
485.507	0.25	Control	0.5192	0.0	Yes	2.743	0.007	n/a	GoodResponse	0	n/a	n/a	-3	51	Cue	Neutral	True
485.757	3.95	Control	0.5192	0.0	Yes	2.743	0.0	n/a	GoodResponse	0	n/a	n/a	-3	51	Fixation	Neutral	True
489.703	0.33	Control	0.5192	0.004	Yes	2.743	-0.004	1.0	GoodResponse	0	0.182	488.885	-3	51	Target	Neutral	True
489.885	0.3	Control	0.5192	0.004	Yes	2.743	-0.004	1.0	GoodResponse	0	0.182	n/a	-3	51	ButtonPress	Neutral	True
490.037	0.37	Control	0.5192	n/a	Yes	2.743	n/a	n/a	GoodResponse	0	n/a	n/a	-3	51	Blank	Neutral	True
490.405	1.45	Control	0.5192	n/a	Yes	2.743	n/a	5.0	GoodResponse	0	0.001	489.406	-3	51	Feedback	Neutral	True
491.859	2.743	Control	0.5192	n/a	Yes	2.743	n/a	n/a	GoodResponse	0	0.0	n/a	-3	51	ISIslide	Neutral	True
494.617	0.25	Control	0.5283	0.0	Yes	2.633	0.017	n/a	GoodResponse	0	n/a	n/a	-3	52	Cue	Neutral	True
494.868	4.05	Control	0.5283	0.0	Yes	2.633	0.001	n/a	GoodResponse	0	n/a	n/a	-3	52	Fixation	Neutral	True
498.913	0.34	Control	0.5283	0.004	Yes	2.633	-0.004	1.0	GoodResponse	0	0.323	498.236	-3	52	Target	Neutral	True
499.236	0.3	Control	0.5283	0.004	Yes	2.633	-0.004	1.0	GoodResponse	0	0.323	n/a	-3	52	ButtonPress	Neutral	True
499.264	0.36	Control	0.5283	n/a	Yes	2.633	n/a	n/a	GoodResponse	0	n/a	n/a	-3	52	Blank	Neutral	True
499.615	1.45	Control	0.5283	n/a	Yes	2.633	n/a	5.0	GoodResponse	0	0.01	498.625	-3	52	Feedback	Neutral	True
501.07	2.633	Control	0.5283	n/a	Yes	2.633	n/a	n/a	GoodResponse	0	0.0	n/a	-3	52	ISIslide	Neutral	True
503.728	0.25	Win2	0.537	0.0	Yes	2.922	0.028	n/a	GoodResponse	1	n/a	n/a	-2	53	Cue	Win	True
503.979	4.05	Win2	0.537	0.0	Yes	2.922	0.001	n/a	GoodResponse	1	n/a	n/a	-2	53	Fixation	Win	True
508.024	0.35	Win2	0.537	0.004	Yes	2.922	-0.004	1.0	GoodResponse	1	0.229	507.253	-2	53	Target	Win	True
508.253	0.3	Win2	0.537	0.004	Yes	2.922	-0.004	1.0	GoodResponse	1	0.229	n/a	-2	53	ButtonPress	Win	True
508.375	0.35	Win2	0.537	n/a	Yes	2.922	n/a	n/a	GoodResponse	1	n/a	n/a	-2	53	Blank	Win	True
508.726	1.45	Win2	0.537	n/a	Yes	2.922	n/a	5.0	GoodResponse	1	0.021	507.747	-2	53	Feedback	Win	True
510.18	2.922	Win2	0.537	n/a	Yes	2.922	n/a	n/a	GoodResponse	1	0.0	n/a	-2	53	ISIslide	Win	True
513.122	0.25	Win2	0.5455	0.001	Yes	2.728	0.022	n/a	GoodResponse	1	n/a	n/a	-1	54	Cue	Win	True
513.373	3.95	Win2	0.5455	0.0	Yes	2.728	0.001	n/a	GoodResponse	1	n/a	n/a	-1	54	Fixation	Win	True
517.318	0.36	Win2	0.5455	0.004	Yes	2.728	-0.004	1.0	GoodResponse	1	0.217	516.535	-1	54	Target	Win	True
517.535	0.3	Win2	0.5455	0.004	Yes	2.728	-0.004	1.0	GoodResponse	1	0.217	n/a	-1	54	ButtonPress	Win	True
517.686	0.34	Win2	0.5455	n/a	Yes	2.728	n/a	n/a	GoodResponse	1	n/a	n/a	-1	54	Blank	Win	True
518.02	1.45	Win2	0.5455	n/a	Yes	2.728	n/a	5.0	GoodResponse	1	0.044	517.064	-1	54	Feedback	Win	True
519.475	2.728	Win2	0.5455	n/a	Yes	2.728	n/a	n/a	GoodResponse	1	0.0	n/a	-1	54	ISIslide	Win	True
522.216	0.25	Control	0.5357	0.0	No	3.034	0.016	n/a	NoResponse	0	n/a	n/a	-1	55	Cue	Neutral	True
522.467	3.95	Control	0.5357	0.0	No	3.034	0.001	1.0	NoResponse	0	3.805	525.272	-1	55	Fixation	Neutral	True
526.272	0.3	Control	0.5357	0.0	No	3.034	0.001	1.0	NoResponse	0	3.805	n/a	-1	55	ButtonPress	Neutral	True
526.412	0.37	Control	0.5357	0.004	No	3.034	-0.004	n/a	NoResponse	0	n/a	n/a	-1	55	Target	Neutral	True
526.797	0.33	Control	0.5357	n/a	No	3.034	n/a	n/a	NoResponse	0	n/a	n/a	-1	55	Blank	Neutral	True
527.114	1.45	Control	0.5357	n/a	No	3.034	n/a	5.0	NoResponse	0	0.024	526.138	-1	55	Feedback	Neutral	True
528.569	3.034	Control	0.5357	n/a	No	3.034	n/a	n/a	NoResponse	0	0.0	n/a	-1	55	ISIslide	Neutral	True
531.628	0.25	Control	0.5439	0.0	Yes	2.822	0.028	n/a	GoodResponse	0	n/a	n/a	-1	56	Cue	Neutral	True
531.878	3.95	Control	0.5439	0.001	Yes	2.822	0.0	n/a	GoodResponse	0	n/a	n/a	-1	56	Fixation	Neutral	True
535.824	0.38	Control	0.5439	0.004	Yes	2.822	-0.004	1.0	GoodResponse	0	0.309	535.133	-1	56	Target	Neutral	True
536.133	0.3	Control	0.5439	0.004	Yes	2.822	-0.004	1.0	GoodResponse	0	0.309	n/a	-1	56	ButtonPress	Neutral	True
536.208	0.32	Control	0.5439	n/a	Yes	2.822	n/a	n/a	GoodResponse	0	n/a	n/a	-1	56	Blank	Neutral	True
536.526	1.45	Control	0.5439	n/a	Yes	2.822	n/a	5.0	GoodResponse	0	0.025	535.551	-1	56	Feedback	Neutral	True
537.98	2.822	Control	0.5439	n/a	Yes	2.822	n/a	n/a	GoodResponse	0	0.0	n/a	-1	56	ISIslide	Neutral	True
540.822	0.25	Control	0.5517	0.0	Yes	3.478	0.022	n/a	GoodResponse	0	n/a	n/a	-1	57	Cue	Neutral	True
541.073	4.0	Control	0.5517	0.0	Yes	3.478	0.001	n/a	GoodResponse	0	n/a	n/a	-1	57	Fixation	Neutral	True
545.068	0.39	Control	0.5517	0.004	Yes	3.478	-0.004	1.0	GoodResponse	0	0.224	544.292	-1	57	Target	Neutral	True
545.292	0.3	Control	0.5517	0.004	Yes	3.478	-0.004	1.0	GoodResponse	0	0.224	n/a	-1	57	ButtonPress	Neutral	True
545.469	0.31	Control	0.5517	n/a	Yes	3.478	n/a	n/a	GoodResponse	0	n/a	n/a	-1	57	Blank	Neutral	True
545.77	1.45	Control	0.5517	n/a	Yes	3.478	n/a	5.0	GoodResponse	0	0.001	544.771	-1	57	Feedback	Neutral	True
547.224	3.478	Control	0.5517	n/a	Yes	3.478	n/a	n/a	GoodResponse	0	0.0	n/a	-1	57	ISIslide	Neutral	True
550.718	0.25	Win2	0.5424	0.0	No	2.732	0.018	n/a	PrematurePress	0	n/a	n/a	-1	58	Cue	MissedWin	True
550.969	4.05	Win2	0.5424	0.0	No	2.732	0.001	n/a	PrematurePress	0	n/a	n/a	-1	58	Fixation	MissedWin	True
555.014	0.4	Win2	0.5424	0.004	No	2.732	-0.004	1.0	PrematurePress	0	0.058	554.072	-1	58	Target	MissedWin	True
555.072	0.3	Win2	0.5424	0.004	No	2.732	-0.004	1.0	PrematurePress	0	0.058	n/a	-1	58	ButtonPress	MissedWin	True
555.415	0.3	Win2	0.5424	n/a	No	2.732	n/a	n/a	PrematurePress	0	n/a	n/a	-1	58	Blank	MissedWin	True
555.716	1.45	Win2	0.5424	n/a	No	2.732	n/a	5.0	PrematurePress	0	0.006	554.722	-1	58	Feedback	MissedWin	True
557.171	2.732	Win2	0.5424	n/a	No	2.732	n/a	n/a	PrematurePress	0	0.0	n/a	-1	58	ISIslide	MissedWin	True
559.929	0.25	Lose2	0.55	0.0	Yes	2.671	0.029	n/a	GoodResponse	0	n/a	n/a	-1	59	Cue	AvoidedLoss	True
560.18	4.0	Lose2	0.55	0.0	Yes	2.671	0.001	n/a	GoodResponse	0	n/a	n/a	-1	59	Fixation	AvoidedLoss	True
564.175	0.41	Lose2	0.55	0.004	Yes	2.671	-0.004	1.0	GoodResponse	0	0.228	563.403	-1	59	Target	AvoidedLoss	True
564.403	0.3	Lose2	0.55	0.004	Yes	2.671	-0.004	1.0	GoodResponse	0	0.228	n/a	-1	59	ButtonPress	AvoidedLoss	True
564.593	0.29	Lose2	0.55	n/a	Yes	2.671	n/a	n/a	GoodResponse	0	n/a	n/a	-1	59	Blank	AvoidedLoss	True
564.877	1.45	Lose2	0.55	n/a	Yes	2.671	n/a	5.0	GoodResponse	0	0.016	563.893	-1	59	Feedback	AvoidedLoss	True
566.331	2.671	Lose2	0.55	n/a	Yes	2.671	n/a	n/a	GoodResponse	0	0.0	n/a	-1	59	ISIslide	AvoidedLoss	True
569.023	0.25	Control	0.5574	0.0	Yes	2.677	0.023	n/a	GoodResponse	0	n/a	n/a	-1	60	Cue	Neutral	True
569.274	4.0	Control	0.5574	0.0	Yes	2.677	0.001	n/a	GoodResponse	0	n/a	n/a	-1	60	Fixation	Neutral	True
573.269	0.42	Control	0.5574	0.004	Yes	2.677	-0.004	1.0	GoodResponse	0	0.23	572.499	-1	60	Target	Neutral	True
573.499	0.3	Control	0.5574	0.004	Yes	2.677	-0.004	1.0	GoodResponse	0	0.23	n/a	-1	60	ButtonPress	Neutral	True
573.703	0.28	Control	0.5574	n/a	Yes	2.677	n/a	n/a	GoodResponse	0	n/a	n/a	-1	60	Blank	Neutral	True
573.971	1.45	Control	0.5574	n/a	Yes	2.677	n/a	5.0	GoodResponse	0	0.043	573.014	-1	60	Feedback	Neutral	True
575.425	2.677	Control	0.5574	n/a	Yes	2.677	n/a	n/a	GoodResponse	0	0.0	n/a	-1	60	ISIslide	Neutral	True
578.117	0.25	Lose2	0.5645	0.0	Yes	2.983	0.017	n/a	GoodResponse	0	n/a	n/a	-1	61	Cue	AvoidedLoss	True
578.367	4.0	Lose2	0.5645	0.0	Yes	2.983	0.0	n/a	GoodResponse	0	n/a	n/a	-1	61	Fixation	AvoidedLoss	True
582.363	0.43	Lose2	0.5645	0.004	Yes	2.983	-0.004	1.0	GoodResponse	0	0.267	581.63	-1	61	Target	AvoidedLoss	True
582.63	0.3	Lose2	0.5645	0.004	Yes	2.983	-0.004	1.0	GoodResponse	0	0.267	n/a	-1	61	ButtonPress	AvoidedLoss	True
582.797	0.27	Lose2	0.5645	n/a	Yes	2.983	n/a	n/a	GoodResponse	0	n/a	n/a	-1	61	Blank	AvoidedLoss	True
583.065	1.45	Lose2	0.5645	n/a	Yes	2.983	n/a	5.0	GoodResponse	0	0.022	582.087	-1	61	Feedback	AvoidedLoss	True
584.519	2.983	Lose2	0.5645	n/a	Yes	2.983	n/a	n/a	GoodResponse	0	0.0	n/a	-1	61	ISIslide	AvoidedLoss	True
587.528	0.25	Lose2	0.5556	0.0	No	2.872	0.028	n/a	NoResponse	-1	n/a	n/a	-2	62	Cue	Loss	True
587.779	3.9	Lose2	0.5556	0.0	No	2.872	0.001	n/a	NoResponse	-1	n/a	n/a	-2	62	Fixation	Loss	True
591.674	0.44	Lose2	0.5556	0.004	No	2.872	-0.004	1.0	NoResponse	-1	0.563	591.237	-2	62	Target	Loss	True
592.125	0.26	Lose2	0.5556	n/a	No	2.872	n/a	n/a	NoResponse	-1	n/a	n/a	-2	62	Blank	Loss	True
592.237	0.3	Lose2	0.5556	0.004	No	2.872	-0.004	1.0	NoResponse	-1	0.563	n/a	-2	62	ButtonPress	Loss	True
592.376	1.45	Lose2	0.5556	n/a	No	2.872	n/a	5.0	NoResponse	-1	0.029	591.405	-2	62	Feedback	Loss	True
593.83	2.872	Lose2	0.5556	n/a	No	2.872	n/a	n/a	NoResponse	-1	0.0	n/a	-2	62	ISIslide	Loss	True
596.722	0.25	Lose2	0.5625	0.0	Yes	2.628	0.022	n/a	GoodResponse	0	n/a	n/a	-2	63	Cue	AvoidedLoss	True
596.973	4.05	Lose2	0.5625	0.0	Yes	2.628	0.001	n/a	GoodResponse	0	n/a	n/a	-2	63	Fixation	AvoidedLoss	True
601.018	0.45	Lose2	0.5625	0.004	Yes	2.628	-0.004	1.0	GoodResponse	0	0.245	600.263	-2	63	Target	AvoidedLoss	True
601.263	0.3	Lose2	0.5625	0.004	Yes	2.628	-0.004	1.0	GoodResponse	0	0.245	n/a	-2	63	ButtonPress	AvoidedLoss	True
601.47	0.25	Lose2	0.5625	n/a	Yes	2.628	n/a	n/a	GoodResponse	0	n/a	n/a	-2	63	Blank	AvoidedLoss	True
601.72	1.45	Lose2	0.5625	n/a	Yes	2.628	n/a	5.0	GoodResponse	0	0.002	600.722	-2	63	Feedback	AvoidedLoss	True
603.175	2.628	Lose2	0.5625	n/a	Yes	2.628	n/a	n/a	GoodResponse	0	0.0	n/a	-2	63	ISIslide	AvoidedLoss	True
605.816	0.25	Win2	0.5538000000000001	0.0	No	3.134	0.016	n/a	NoResponse	0	n/a	n/a	-2	64	Cue	MissedWin	False
606.067	4.15	Win2	0.5538000000000001	0.0	No	3.134	0.001	n/a	NoResponse	0	n/a	n/a	-2	64	Fixation	MissedWin	False
610.212	0.46	Win2	0.5538000000000001	0.004	No	3.134	-0.004	n/a	NoResponse	0	n/a	n/a	-2	64	Target	MissedWin	False
610.68	0.24	Win2	0.5538000000000001	n/a	No	3.134	n/a	n/a	NoResponse	0	n/a	n/a	-2	64	Blank	MissedWin	False
610.915	1.45	Win2	0.5538000000000001	n/a	No	3.134	n/a	5.0	NoResponse	0	0.025	609.94	-2	64	Feedback	MissedWin	False
612.369	3.134	Win2	0.5538000000000001	n/a	No	3.134	n/a	n/a	NoResponse	0	0.0	n/a	-2	64	ISIslide	MissedWin	False
615.528	0.25	Control	0.5455	0.0	No	2.772	0.028	n/a	NoResponse	0	n/a	n/a	-2	65	Cue	Neutral	False
615.779	4.0	Control	0.5455	0.0	No	2.772	0.001	n/a	NoResponse	0	n/a	n/a	-2	65	Fixation	Neutral	False
619.774	0.47	Control	0.5455	0.004	No	2.772	-0.004	n/a	NoResponse	0	n/a	n/a	-2	65	Target	Neutral	False
620.259	0.23	Control	0.5455	n/a	No	2.772	n/a	n/a	NoResponse	0	n/a	n/a	-2	65	Blank	Neutral	False
620.476	1.45	Control	0.5455	n/a	No	2.772	n/a	5.0	NoResponse	0	0.025	619.501	-2	65	Feedback	Neutral	False
621.931	2.772	Control	0.5455	n/a	No	2.772	n/a	n/a	NoResponse	0	0.0	n/a	-2	65	ISIslide	Neutral	False
624.722	0.25	Win2	0.5522	0.001	Yes	2.778	0.022	n/a	GoodResponse	1	n/a	n/a	-1	66	Cue	Win	True
624.973	3.9	Win2	0.5522	0.0	Yes	2.778	0.001	n/a	GoodResponse	1	n/a	n/a	-1	66	Fixation	Win	True
628.868	0.48	Win2	0.5522	0.004	Yes	2.778	-0.004	1.0	GoodResponse	1	0.209	628.077	-1	66	Target	Win	True
629.077	0.3	Win2	0.5522	0.004	Yes	2.778	-0.004	1.0	GoodResponse	1	0.209	n/a	-1	66	ButtonPress	Win	True
629.353	0.22	Win2	0.5522	n/a	Yes	2.778	n/a	n/a	GoodResponse	1	n/a	n/a	-1	66	Blank	Win	True
629.57	1.45	Win2	0.5522	n/a	Yes	2.778	n/a	5.0	GoodResponse	1	0.005	628.575	-1	66	Feedback	Win	True
631.025	2.778	Win2	0.5522	n/a	Yes	2.778	n/a	n/a	GoodResponse	1	0.0	n/a	-1	66	ISIslide	Win	True
633.816	0.25	Control	0.5588000000000001	0.0	Yes	2.734	0.016	n/a	GoodResponse	0	n/a	n/a	-1	67	Cue	Neutral	True
634.067	3.95	Control	0.5588000000000001	0.0	Yes	2.734	0.001	n/a	GoodResponse	0	n/a	n/a	-1	67	Fixation	Neutral	True
638.012	0.49	Control	0.5588000000000001	0.004	Yes	2.734	-0.004	1.0	GoodResponse	0	0.27	637.282	-1	67	Target	Neutral	True
638.282	0.3	Control	0.5588000000000001	0.004	Yes	2.734	-0.004	1.0	GoodResponse	0	0.27	n/a	-1	67	ButtonPress	Neutral	True
638.514	0.21	Control	0.5588000000000001	n/a	Yes	2.734	n/a	n/a	GoodResponse	0	n/a	n/a	-1	67	Blank	Neutral	True
638.714	1.45	Control	0.5588000000000001	n/a	Yes	2.734	n/a	5.0	GoodResponse	0	0.032	637.746	-1	67	Feedback	Neutral	True
640.169	2.734	Control	0.5588000000000001	n/a	Yes	2.734	n/a	n/a	GoodResponse	0	0.0	n/a	-1	67	ISIslide	Neutral	True
642.927	0.25	Win2	0.5652	0.0	Yes	3.073	0.027	n/a	GoodResponse	1	n/a	n/a	0	68	Cue	Win	True
643.178	4.0	Win2	0.5652	0.0	Yes	3.073	0.001	n/a	GoodResponse	1	n/a	n/a	0	68	Fixation	Win	True
647.173	0.5	Win2	0.5652	0.004	Yes	3.073	-0.004	1.0	GoodResponse	1	0.292	646.465	0	68	Target	Win	True
647.465	0.3	Win2	0.5652	0.004	Yes	3.073	-0.004	1.0	GoodResponse	1	0.292	n/a	0	68	ButtonPress	Win	True
647.674	0.2	Win2	0.5652	n/a	Yes	3.073	n/a	n/a	GoodResponse	1	n/a	n/a	0	68	Blank	Win	True
647.875	1.45	Win2	0.5652	n/a	Yes	3.073	n/a	5.0	GoodResponse	1	0.04	646.915	0	68	Feedback	Win	True
649.329	3.073	Win2	0.5652	n/a	Yes	3.073	n/a	n/a	GoodResponse	1	0.0	n/a	0	68	ISIslide	Win	True
652.422	0.25	Win2	0.5571	0.0	No	3.228	0.022	n/a	NoResponse	0	n/a	n/a	0	69	Cue	MissedWin	True
652.673	3.95	Win2	0.5571	0.0	No	3.228	0.001	1.0	NoResponse	0	3.917	655.59	0	69	Fixation	MissedWin	True
656.59	0.3	Win2	0.5571	0.0	No	3.228	0.001	1.0	NoResponse	0	3.917	n/a	0	69	ButtonPress	MissedWin	True
656.618	0.5	Win2	0.5571	0.004	No	3.228	-0.004	n/a	NoResponse	0	n/a	n/a	0	69	Target	MissedWin	True
657.119	0.2	Win2	0.5571	n/a	No	3.228	n/a	n/a	NoResponse	0	n/a	n/a	0	69	Blank	MissedWin	True
657.32	1.45	Win2	0.5571	n/a	No	3.228	n/a	5.0	NoResponse	0	0.01	656.33	0	69	Feedback	MissedWin	True
658.774	3.228	Win2	0.5571	n/a	No	3.228	n/a	n/a	NoResponse	0	0.0	n/a	0	69	ISIslide	MissedWin	True
662.017	0.25	Lose2	0.5634	0.0	Yes	3.033	0.017	n/a	GoodResponse	0	n/a	n/a	0	70	Cue	AvoidedLoss	True
662.268	4.05	Lose2	0.5634	0.0	Yes	3.033	0.001	n/a	GoodResponse	0	n/a	n/a	0	70	Fixation	AvoidedLoss	True
666.313	0.5	Lose2	0.5634	0.004	Yes	3.033	-0.004	1.0	GoodResponse	0	0.21	665.523	0	70	Target	AvoidedLoss	True
666.523	0.3	Lose2	0.5634	0.004	Yes	3.033	-0.004	1.0	GoodResponse	0	0.21	n/a	0	70	ButtonPress	AvoidedLoss	True
666.815	0.2	Lose2	0.5634	n/a	Yes	3.033	n/a	n/a	GoodResponse	0	n/a	n/a	0	70	Blank	AvoidedLoss	True
667.015	1.45	Lose2	0.5634	n/a	Yes	3.033	n/a	5.0	GoodResponse	0	0.023	666.038	0	70	Feedback	AvoidedLoss	True
668.47	3.033	Lose2	0.5634	n/a	Yes	3.033	n/a	n/a	GoodResponse	0	0.0	n/a	0	70	ISIslide	AvoidedLoss	True
671.529	0.25	Win2	0.5694	0.0	Yes	2.721	0.029	n/a	GoodResponse	1	n/a	n/a	1	71	Cue	Win	True
671.78	4.05	Win2	0.5694	0.0	Yes	2.721	0.001	n/a	GoodResponse	1	n/a	n/a	1	71	Fixation	Win	True
675.825	0.5	Win2	0.5694	0.004	Yes	2.721	-0.004	1.0	GoodResponse	1	0.274	675.099	1	71	Target	Win	True
676.099	0.3	Win2	0.5694	0.004	Yes	2.721	-0.004	1.0	GoodResponse	1	0.274	n/a	1	71	ButtonPress	Win	True
676.327	0.2	Win2	0.5694	n/a	Yes	2.721	n/a	n/a	GoodResponse	1	n/a	n/a	1	71	Blank	Win	True
676.527	1.45	Win2	0.5694	n/a	Yes	2.721	n/a	5.0	GoodResponse	1	0.023	675.55	1	71	Feedback	Win	True
677.981	2.721	Win2	0.5694	n/a	Yes	2.721	n/a	n/a	GoodResponse	1	0.0	n/a	1	71	ISIslide	Win	True
680.723	0.25	Win2	0.5753	0.0	Yes	2.777	0.023	n/a	GoodResponse	1	n/a	n/a	2	72	Cue	Win	True
680.974	4.1	Win2	0.5753	0.0	Yes	2.777	0.001	n/a	GoodResponse	1	n/a	n/a	2	72	Fixation	Win	True
685.069	0.5	Win2	0.5753	0.004	Yes	2.777	-0.004	1.0	GoodResponse	1	0.23	684.299	2	72	Target	Win	True
685.299	0.3	Win2	0.5753	0.004	Yes	2.777	-0.004	1.0	GoodResponse	1	0.23	n/a	2	72	ButtonPress	Win	True
685.571	0.2	Win2	0.5753	n/a	Yes	2.777	n/a	n/a	GoodResponse	1	n/a	n/a	2	72	Blank	Win	True
685.771	1.45	Win2	0.5753	n/a	Yes	2.777	n/a	5.0	GoodResponse	1	0.046	684.817	2	72	Feedback	Win	True
687.226	2.777	Win2	0.5753	n/a	Yes	2.777	n/a	n/a	GoodResponse	1	0.0	n/a	2	72	ISIslide	Win	True
690.017	0.25	Win2	0.5676	0.001	No	2.683	0.017	n/a	NoResponse	0	n/a	n/a	2	73	Cue	MissedWin	False
690.268	4.0	Win2	0.5676	0.0	No	2.683	0.001	n/a	NoResponse	0	n/a	n/a	2	73	Fixation	MissedWin	False
694.263	0.5	Win2	0.5676	0.004	No	2.683	-0.004	n/a	NoResponse	0	n/a	n/a	2	73	Target	MissedWin	False
694.765	0.2	Win2	0.5676	n/a	No	2.683	n/a	n/a	NoResponse	0	n/a	n/a	2	73	Blank	MissedWin	False
694.966	1.45	Win2	0.5676	n/a	No	2.683	n/a	5.0	NoResponse	0	0.022	693.988	2	73	Feedback	MissedWin	False
696.42	2.683	Win2	0.5676	n/a	No	2.683	n/a	n/a	NoResponse	0	0.0	n/a	2	73	ISIslide	MissedWin	False
699.128	0.25	Lose2	0.5733	0.0	Yes	2.622	0.028	n/a	GoodResponse	0	n/a	n/a	2	74	Cue	AvoidedLoss	True
699.379	4.05	Lose2	0.5733	0.0	Yes	2.622	0.001	n/a	GoodResponse	0	n/a	n/a	2	74	Fixation	AvoidedLoss	True
703.424	0.5	Lose2	0.5733	0.004	Yes	2.622	-0.004	1.0	GoodResponse	0	0.197	702.621	2	74	Target	AvoidedLoss	True
703.621	0.3	Lose2	0.5733	0.004	Yes	2.622	-0.004	1.0	GoodResponse	0	0.197	n/a	2	74	ButtonPress	AvoidedLoss	True
703.926	0.2	Lose2	0.5733	n/a	Yes	2.622	n/a	n/a	GoodResponse	0	n/a	n/a	2	74	Blank	AvoidedLoss	True
704.126	1.45	Lose2	0.5733	n/a	Yes	2.622	n/a	5.0	GoodResponse	0	0.033	703.159	2	74	Feedback	AvoidedLoss	True
705.581	2.622	Lose2	0.5733	n/a	Yes	2.622	n/a	n/a	GoodResponse	0	0.0	n/a	2	74	ISIslide	AvoidedLoss	True
708.222	0.25	Lose2	0.5789	0.0	Yes	2.928	0.022	n/a	GoodResponse	0	n/a	n/a	2	75	Cue	AvoidedLoss	True
708.473	3.95	Lose2	0.5789	0.0	Yes	2.928	0.001	n/a	GoodResponse	0	n/a	n/a	2	75	Fixation	AvoidedLoss	True
712.418	0.5	Lose2	0.5789	0.004	Yes	2.928	-0.004	1.0	GoodResponse	0	0.227	711.645	2	75	Target	AvoidedLoss	True
712.645	0.3	Lose2	0.5789	0.004	Yes	2.928	-0.004	1.0	GoodResponse	0	0.227	n/a	2	75	ButtonPress	AvoidedLoss	True
712.919	0.2	Lose2	0.5789	n/a	Yes	2.928	n/a	n/a	GoodResponse	0	n/a	n/a	2	75	Blank	AvoidedLoss	True
713.12	1.45	Lose2	0.5789	n/a	Yes	2.928	n/a	5.0	GoodResponse	0	0.015	712.135	2	75	Feedback	AvoidedLoss	True
714.574	2.928	Lose2	0.5789	n/a	Yes	2.928	n/a	n/a	GoodResponse	0	0.0	n/a	2	75	ISIslide	AvoidedLoss	True
717.516	0.25	Control	0.5844	0.0	Yes	3.234	0.016	n/a	GoodResponse	0	n/a	n/a	2	76	Cue	Neutral	True
717.767	4.05	Control	0.5844	0.0	Yes	3.234	0.001	n/a	GoodResponse	0	n/a	n/a	2	76	Fixation	Neutral	True
721.812	0.5	Control	0.5844	0.004	Yes	3.234	-0.004	1.0	GoodResponse	0	0.225	721.037	2	76	Target	Neutral	True
722.037	0.3	Control	0.5844	0.004	Yes	3.234	-0.004	1.0	GoodResponse	0	0.225	n/a	2	76	ButtonPress	Neutral	True
722.314	0.2	Control	0.5844	n/a	Yes	3.234	n/a	n/a	GoodResponse	0	n/a	n/a	2	76	Blank	Neutral	True
722.514	1.45	Control	0.5844	n/a	Yes	3.234	n/a	5.0	GoodResponse	0	0.034	721.548	2	76	Feedback	Neutral	True
723.969	3.234	Control	0.5844	n/a	Yes	3.234	n/a	n/a	GoodResponse	0	0.0	n/a	2	76	ISIslide	Neutral	True
727.229	0.25	Lose2	0.5897	0.0	Yes	2.571	0.029	n/a	GoodResponse	0	n/a	n/a	2	77	Cue	AvoidedLoss	True
727.479	3.95	Lose2	0.5897	0.0	Yes	2.571	0.0	n/a	GoodResponse	0	n/a	n/a	2	77	Fixation	AvoidedLoss	True
731.424	0.5	Lose2	0.5897	0.005	Yes	2.571	-0.005	1.0	GoodResponse	0	0.313	730.737	2	77	Target	AvoidedLoss	True
731.737	0.3	Lose2	0.5897	0.005	Yes	2.571	-0.005	1.0	GoodResponse	0	0.313	n/a	2	77	ButtonPress	AvoidedLoss	True
731.926	0.2	Lose2	0.5897	n/a	Yes	2.571	n/a	n/a	GoodResponse	0	n/a	n/a	2	77	Blank	AvoidedLoss	True
732.127	1.45	Lose2	0.5897	n/a	Yes	2.571	n/a	5.0	GoodResponse	0	0.031	731.158	2	77	Feedback	AvoidedLoss	True
733.581	2.571	Lose2	0.5897	n/a	Yes	2.571	n/a	n/a	GoodResponse	0	0.0	n/a	2	77	ISIslide	AvoidedLoss	True
