onset	duration	cue_type	current_mean_accuracy	duration_error	is_hit	isi_adjusted	onset_delay	response	response_type	reward	rt	rt_time	total_reward	trial_number	trial_phase	trial_type	one_press
11.102	0.25	Control	1.0	0.0	Yes	2.948	0.002	n/a	GoodResponse	0	n/a	n/a	0	0	Cue	Neutral	True
11.353	3.85	Control	1.0	0.0	Yes	2.948	0.001	n/a	GoodResponse	0	n/a	n/a	0	0	Fixation	Neutral	True
15.198	0.4	Control	1.0	0.004	Yes	2.948	-0.004	2.0	GoodResponse	0	0.259	14.457	0	0	Target	Neutral	True
15.457	0.3	Control	1.0	0.004	Yes	2.948	-0.004	2.0	GoodResponse	0	0.259	n/a	0	0	ButtonPress	Neutral	True
15.599	0.3	Control	1.0	n/a	Yes	2.948	n/a	n/a	GoodResponse	0	n/a	n/a	0	0	Blank	Neutral	True
15.9	1.45	Control	1.0	n/a	Yes	2.948	n/a	5.0	GoodResponse	0	0.027	14.927	0	0	Feedback	Neutral	True
17.354	2.948	Control	1.0	n/a	Yes	2.948	n/a	n/a	GoodResponse	0	0.0	n/a	0	0	ISIslide	Neutral	True
20.33	0.25	Lose2	1.0	0.0	Yes	2.77	0.03	n/a	GoodResponse	0	n/a	n/a	0	1	Cue	AvoidedLoss	True
20.581	4.0	Lose2	1.0	0.0	Yes	2.77	0.001	n/a	GoodResponse	0	n/a	n/a	0	1	Fixation	AvoidedLoss	True
24.576	0.39	Lose2	1.0	0.004	Yes	2.77	-0.004	2.0	GoodResponse	0	0.21	23.786	0	1	Target	AvoidedLoss	True
24.786	0.3	Lose2	1.0	0.004	Yes	2.77	-0.004	2.0	GoodResponse	0	0.21	n/a	0	1	ButtonPress	AvoidedLoss	True
24.977	0.31	Lose2	1.0	n/a	Yes	2.77	n/a	n/a	GoodResponse	0	n/a	n/a	0	1	Blank	AvoidedLoss	True
25.278	1.45	Lose2	1.0	n/a	Yes	2.77	n/a	5.0	GoodResponse	0	0.015	24.293	0	1	Feedback	AvoidedLoss	True
26.732	2.77	Lose2	1.0	n/a	Yes	2.77	n/a	n/a	GoodResponse	0	0.0	n/a	0	1	ISIslide	AvoidedLoss	True
29.524	0.25	Control	0.6667000000000001	0.0	No	2.576	0.024	n/a	NoResponse	0	n/a	n/a	0	2	Cue	Neutral	True
29.775	4.1	Control	0.6667000000000001	0.0	No	2.576	0.001	2.0	NoResponse	0	4.074	32.849	0	2	Fixation	Neutral	True
33.849	0.3	Control	0.6667000000000001	0.0	No	2.576	0.001	2.0	NoResponse	0	4.074	n/a	0	2	ButtonPress	Neutral	True
33.871	0.38	Control	0.6667000000000001	0.003	No	2.576	-0.003	n/a	NoResponse	0	n/a	n/a	0	2	Target	Neutral	True
34.255	0.32	Control	0.6667000000000001	n/a	No	2.576	n/a	n/a	NoResponse	0	n/a	n/a	0	2	Blank	Neutral	True
34.573	1.45	Control	0.6667000000000001	n/a	No	2.576	n/a	5.0	NoResponse	0	0.037	33.61	0	2	Feedback	Neutral	True
36.027	2.576	Control	0.6667000000000001	n/a	No	2.576	n/a	n/a	NoResponse	0	0.0	n/a	0	2	ISIslide	Neutral	True
38.618	0.25	Win2	0.75	0.0	Yes	2.832	0.018	n/a	GoodResponse	1	n/a	n/a	1	3	Cue	Win	True
38.869	3.95	Win2	0.75	0.0	Yes	2.832	0.001	n/a	GoodResponse	1	n/a	n/a	1	3	Fixation	Win	True
42.814	0.37	Win2	0.75	0.004	Yes	2.832	-0.004	2.0	GoodResponse	1	0.202	42.016	1	3	Target	Win	True
43.016	0.3	Win2	0.75	0.004	Yes	2.832	-0.004	2.0	GoodResponse	1	0.202	n/a	1	3	ButtonPress	Win	True
43.198	0.33	Win2	0.75	n/a	Yes	2.832	n/a	n/a	GoodResponse	1	n/a	n/a	1	3	Blank	Win	True
43.516	1.45	Win2	0.75	n/a	Yes	2.832	n/a	5.0	GoodResponse	1	0.021	42.537	1	3	Feedback	Win	True
44.97	2.832	Win2	0.75	n/a	Yes	2.832	n/a	n/a	GoodResponse	1	0.0	n/a	1	3	ISIslide	Win	True
47.829	0.25	Win2	0.8	0.0	Yes	3.271	0.029	n/a	GoodResponse	1	n/a	n/a	2	4	Cue	Win	True
48.08	4.0	Win2	0.8	0.0	Yes	3.271	0.001	n/a	GoodResponse	1	n/a	n/a	2	4	Fixation	Win	True
52.075	0.36	Win2	0.8	0.004	Yes	3.271	-0.004	2.0	GoodResponse	1	0.208	51.283	2	4	Target	Win	True
52.283	0.3	Win2	0.8	0.004	Yes	3.271	-0.004	2.0	GoodResponse	1	0.208	n/a	2	4	ButtonPress	Win	True
52.443	0.34	Win2	0.8	n/a	Yes	3.271	n/a	n/a	GoodResponse	1	n/a	n/a	2	4	Blank	Win	True
52.777	1.45	Win2	0.8	n/a	Yes	3.271	n/a	5.0	GoodResponse	1	0.028	51.805	2	4	Feedback	Win	True
54.232	3.271	Win2	0.8	n/a	Yes	3.271	n/a	n/a	GoodResponse	1	0.0	n/a	2	4	ISIslide	Win	True
57.525	0.25	Win2	0.8332999999999999	0.0	Yes	2.775	0.025	n/a	GoodResponse	1	n/a	n/a	3	5	Cue	Win	True
57.776	4.0	Win2	0.8332999999999999	0.0	Yes	2.775	0.001	n/a	GoodResponse	1	n/a	n/a	3	5	Fixation	Win	True
61.771	0.35	Win2	0.8332999999999999	0.004	Yes	2.775	-0.004	2.0	GoodResponse	1	0.22	60.991	3	5	Target	Win	True
61.991	0.3	Win2	0.8332999999999999	0.004	Yes	2.775	-0.004	2.0	GoodResponse	1	0.22	n/a	3	5	ButtonPress	Win	True
62.122	0.35	Win2	0.8332999999999999	n/a	Yes	2.775	n/a	n/a	GoodResponse	1	n/a	n/a	3	5	Blank	Win	True
62.473	1.45	Win2	0.8332999999999999	n/a	Yes	2.775	n/a	5.0	GoodResponse	1	0.039	61.512	3	5	Feedback	Win	True
63.927	2.775	Win2	0.8332999999999999	n/a	Yes	2.775	n/a	n/a	GoodResponse	1	0.0	n/a	3	5	ISIslide	Win	True
66.719	0.25	Lose2	0.8571	0.0	Yes	2.731	0.019	n/a	GoodResponse	0	n/a	n/a	3	6	Cue	AvoidedLoss	True
66.97	3.95	Lose2	0.8571	0.0	Yes	2.731	0.001	n/a	GoodResponse	0	n/a	n/a	3	6	Fixation	AvoidedLoss	True
70.915	0.34	Lose2	0.8571	0.004	Yes	2.731	-0.004	2.0	GoodResponse	0	0.207	70.122	3	6	Target	AvoidedLoss	True
71.122	0.3	Lose2	0.8571	0.004	Yes	2.731	-0.004	2.0	GoodResponse	0	0.207	n/a	3	6	ButtonPress	AvoidedLoss	True
71.266	0.36	Lose2	0.8571	n/a	Yes	2.731	n/a	n/a	GoodResponse	0	n/a	n/a	3	6	Blank	AvoidedLoss	True
71.617	1.45	Lose2	0.8571	n/a	Yes	2.731	n/a	5.0	GoodResponse	0	0.017	70.634	3	6	Feedback	AvoidedLoss	True
73.071	2.731	Lose2	0.8571	n/a	Yes	2.731	n/a	n/a	GoodResponse	0	0.0	n/a	3	6	ISIslide	AvoidedLoss	True
75.83	0.25	Lose2	0.875	0.0	Yes	4.02	0.03	n/a	GoodResponse	0	n/a	n/a	3	7	Cue	AvoidedLoss	False
76.08	4.05	Lose2	0.875	0.001	Yes	4.02	0.0	2.0	GoodResponse	0	3.718	78.798	3	7	Fixation	AvoidedLoss	False
79.798	0.3	Lose2	0.875	0.001	Yes	4.02	0.0	2.0	GoodResponse	0	3.718	n/a	3	7	ButtonPress	AvoidedLoss	False
80.126	0.33	Lose2	0.875	0.004	Yes	4.02	-0.004	2.0	GoodResponse	0	0.267	79.393	3	7	Target	AvoidedLoss	False
80.393	0.3	Lose2	0.875	0.004	Yes	4.02	-0.004	2.0	GoodResponse	0	0.267	n/a	3	7	ButtonPress	AvoidedLoss	False
80.46	0.37	Lose2	0.875	n/a	Yes	4.02	n/a	n/a	GoodResponse	0	n/a	n/a	3	7	Blank	AvoidedLoss	False
80.828	1.45	Lose2	0.875	n/a	Yes	4.02	n/a	5.0	GoodResponse	0	0.026	79.854	3	7	Feedback	AvoidedLoss	False
82.282	4.02	Lose2	0.875	n/a	Yes	4.02	n/a	n/a	GoodResponse	0	0.0	n/a	3	7	ISIslide	AvoidedLoss	False
86.328	0.25	Lose2	0.8889	0.0	Yes	3.022	0.028	n/a	GoodResponse	0	n/a	n/a	3	8	Cue	AvoidedLoss	True
86.579	3.95	Lose2	0.8889	0.0	Yes	3.022	0.001	n/a	GoodResponse	0	n/a	n/a	3	8	Fixation	AvoidedLoss	True
90.524	0.32	Lose2	0.8889	0.004	Yes	3.022	-0.004	2.0	GoodResponse	0	0.209	89.733	3	8	Target	AvoidedLoss	True
90.733	0.3	Lose2	0.8889	0.004	Yes	3.022	-0.004	2.0	GoodResponse	0	0.209	n/a	3	8	ButtonPress	AvoidedLoss	True
90.858	0.38	Lose2	0.8889	n/a	Yes	3.022	n/a	n/a	GoodResponse	0	n/a	n/a	3	8	Blank	AvoidedLoss	True
91.226	1.45	Lose2	0.8889	n/a	Yes	3.022	n/a	5.0	GoodResponse	0	0.018	90.244	3	8	Feedback	AvoidedLoss	True
92.68	3.022	Lose2	0.8889	n/a	Yes	3.022	n/a	n/a	GoodResponse	0	0.0	n/a	3	8	ISIslide	AvoidedLoss	True
95.723	0.25	Lose2	0.9	0.0	Yes	3.127	0.023	n/a	GoodResponse	0	n/a	n/a	3	9	Cue	AvoidedLoss	True
95.973	3.95	Lose2	0.9	0.001	Yes	3.127	0.0	n/a	GoodResponse	0	n/a	n/a	3	9	Fixation	AvoidedLoss	True
99.919	0.31	Lose2	0.9	0.004	Yes	3.127	-0.004	2.0	GoodResponse	0	0.206	99.125	3	9	Target	AvoidedLoss	True
100.125	0.3	Lose2	0.9	0.004	Yes	3.127	-0.004	2.0	GoodResponse	0	0.206	n/a	3	9	ButtonPress	AvoidedLoss	True
100.236	0.39	Lose2	0.9	n/a	Yes	3.127	n/a	n/a	GoodResponse	0	n/a	n/a	3	9	Blank	AvoidedLoss	True
100.621	1.45	Lose2	0.9	n/a	Yes	3.127	n/a	5.0	GoodResponse	0	0.038	99.659	3	9	Feedback	AvoidedLoss	True
102.075	3.127	Lose2	0.9	n/a	Yes	3.127	n/a	n/a	GoodResponse	0	0.0	n/a	3	9	ISIslide	AvoidedLoss	True
105.218	0.25	Control	0.9091	0.0	Yes	3.282	0.018	n/a	GoodResponse	0	n/a	n/a	3	10	Cue	Neutral	True
105.469	4.0	Control	0.9091	0.0	Yes	3.282	0.001	n/a	GoodResponse	0	n/a	n/a	3	10	Fixation	Neutral	True
109.464	0.3	Control	0.9091	0.004	Yes	3.282	-0.004	2.0	GoodResponse	0	0.262	108.726	3	10	Target	Neutral	True
109.726	0.3	Control	0.9091	0.004	Yes	3.282	-0.004	2.0	GoodResponse	0	0.262	n/a	3	10	ButtonPress	Neutral	True
109.765	0.4	Control	0.9091	n/a	Yes	3.282	n/a	n/a	GoodResponse	0	n/a	n/a	3	10	Blank	Neutral	True
110.166	1.45	Control	0.9091	n/a	Yes	3.282	n/a	5.0	GoodResponse	0	0.007	109.173	3	10	Feedback	Neutral	True
111.62	3.282	Control	0.9091	n/a	Yes	3.282	n/a	n/a	GoodResponse	0	0.0	n/a	3	10	ISIslide	Neutral	True
114.93	0.25	Lose2	0.9167000000000001	0.0	Yes	2.72	0.03	n/a	GoodResponse	0	n/a	n/a	3	11	Cue	AvoidedLoss	True
115.181	4.05	Lose2	0.9167000000000001	0.0	Yes	2.72	0.001	n/a	GoodResponse	0	n/a	n/a	3	11	Fixation	AvoidedLoss	True
119.227	0.29	Lose2	0.9167000000000001	0.003	Yes	2.72	-0.003	2.0	GoodResponse	0	0.267	118.494	3	11	Target	AvoidedLoss	True
119.494	0.3	Lose2	0.9167000000000001	0.003	Yes	2.72	-0.003	2.0	GoodResponse	0	0.267	n/a	3	11	ButtonPress	AvoidedLoss	True
119.527	0.41	Lose2	0.9167000000000001	n/a	Yes	2.72	n/a	n/a	GoodResponse	0	n/a	n/a	3	11	Blank	AvoidedLoss	True
119.929	1.45	Lose2	0.9167000000000001	n/a	Yes	2.72	n/a	5.0	GoodResponse	0	0.047	118.976	3	11	Feedback	AvoidedLoss	True
121.383	2.72	Lose2	0.9167000000000001	n/a	Yes	2.72	n/a	n/a	GoodResponse	0	0.0	n/a	3	11	ISIslide	AvoidedLoss	True
124.125	0.25	Control	0.8462000000000001	0.0	No	2.975	0.025	n/a	NoResponse	0	n/a	n/a	3	12	Cue	Neutral	True
124.375	3.9	Control	0.8462000000000001	0.0	No	2.975	0.0	n/a	NoResponse	0	n/a	n/a	3	12	Fixation	Neutral	True
128.287	0.28	Control	0.8462000000000001	0.0	No	2.975	0.012	2.0	NoResponse	0	0.359	127.646	3	12	Target	Neutral	True
128.555	0.42	Control	0.8462000000000001	n/a	No	2.975	n/a	n/a	NoResponse	0	n/a	n/a	3	12	Blank	Neutral	True
128.646	0.3	Control	0.8462000000000001	0.0	No	2.975	0.012	2.0	NoResponse	0	0.359	n/a	3	12	ButtonPress	Neutral	True
128.972	1.45	Control	0.8462000000000001	n/a	No	2.975	n/a	5.0	NoResponse	0	0.027	127.999	3	12	Feedback	Neutral	True
130.427	2.975	Control	0.8462000000000001	n/a	No	2.975	n/a	n/a	NoResponse	0	0.0	n/a	3	12	ISIslide	Neutral	True
133.419	0.25	Control	0.7857	0.0	No	2.781	0.019	n/a	NoResponse	0	n/a	n/a	3	13	Cue	Neutral	True
133.67	4.0	Control	0.7857	0.0	No	2.781	0.001	n/a	NoResponse	0	n/a	n/a	3	13	Fixation	Neutral	True
137.665	0.27	Control	0.7857	0.004	No	2.781	-0.004	2.0	NoResponse	0	0.453	137.118	3	13	Target	Neutral	True
137.949	0.43	Control	0.7857	n/a	No	2.781	n/a	n/a	NoResponse	0	n/a	n/a	3	13	Blank	Neutral	True
138.118	0.3	Control	0.7857	0.004	No	2.781	-0.004	2.0	NoResponse	0	0.453	n/a	3	13	ButtonPress	Neutral	True
138.367	1.45	Control	0.7857	n/a	No	2.781	n/a	5.0	NoResponse	0	0.047	137.414	3	13	Feedback	Neutral	True
139.822	2.781	Control	0.7857	n/a	No	2.781	n/a	n/a	NoResponse	0	0.0	n/a	3	13	ISIslide	Neutral	True
142.63	0.25	Win2	0.8	0.0	Yes	2.67	0.03	n/a	GoodResponse	1	n/a	n/a	4	14	Cue	Win	False
142.881	4.1	Win2	0.8	0.0	Yes	2.67	0.001	2.0	GoodResponse	1	0.266	142.147	4	14	Fixation	Win	False
143.147	0.3	Win2	0.8	0.0	Yes	2.67	0.001	2.0	GoodResponse	1	0.266	n/a	4	14	ButtonPress	Win	False
146.976	0.26	Win2	0.8	0.004	Yes	2.67	-0.004	2.0	GoodResponse	1	0.211	146.187	4	14	Target	Win	False
147.187	0.3	Win2	0.8	0.004	Yes	2.67	-0.004	2.0	GoodResponse	1	0.211	n/a	4	14	ButtonPress	Win	False
147.244	0.44	Win2	0.8	n/a	Yes	2.67	n/a	n/a	GoodResponse	1	n/a	n/a	4	14	Blank	Win	False
147.679	1.45	Win2	0.8	n/a	Yes	2.67	n/a	5.0	GoodResponse	1	0.004	146.683	4	14	Feedback	Win	False
149.133	2.67	Win2	0.8	n/a	Yes	2.67	n/a	n/a	GoodResponse	1	0.0	n/a	4	14	ISIslide	Win	False
151.824	0.25	Control	0.75	0.0	No	2.976	0.024	n/a	NoResponse	0	n/a	n/a	4	15	Cue	Neutral	True
152.075	4.0	Control	0.75	0.0	No	2.976	0.001	n/a	NoResponse	0	n/a	n/a	4	15	Fixation	Neutral	True
156.07	0.25	Control	0.75	0.004	No	2.976	-0.004	2.0	NoResponse	0	0.305	155.375	4	15	Target	Neutral	True
156.321	0.45	Control	0.75	n/a	No	2.976	n/a	n/a	NoResponse	0	n/a	n/a	4	15	Blank	Neutral	True
156.375	0.3	Control	0.75	0.004	No	2.976	-0.004	2.0	NoResponse	0	0.305	n/a	4	15	ButtonPress	Neutral	True
156.773	1.45	Control	0.75	n/a	No	2.976	n/a	5.0	NoResponse	0	0.032	155.805	4	15	Feedback	Neutral	True
158.227	2.976	Control	0.75	n/a	No	2.976	n/a	n/a	NoResponse	0	0.0	n/a	4	15	ISIslide	Neutral	True
161.219	0.25	Win2	0.7646999999999999	0.0	Yes	2.881	0.019	n/a	GoodResponse	1	n/a	n/a	5	16	Cue	Win	True
161.47	4.0	Win2	0.7646999999999999	0.0	Yes	2.881	0.001	n/a	GoodResponse	1	n/a	n/a	5	16	Fixation	Win	True
165.465	0.24	Win2	0.7646999999999999	0.004	Yes	2.881	-0.004	2.0	GoodResponse	1	0.234	164.699	5	16	Target	Win	True
165.699	0.3	Win2	0.7646999999999999	0.004	Yes	2.881	-0.004	2.0	GoodResponse	1	0.234	n/a	5	16	ButtonPress	Win	True
165.716	0.46	Win2	0.7646999999999999	n/a	Yes	2.881	n/a	n/a	GoodResponse	1	n/a	n/a	5	16	Blank	Win	True
166.167	1.45	Win2	0.7646999999999999	n/a	Yes	2.881	n/a	5.0	GoodResponse	1	0.006	165.173	5	16	Feedback	Win	True
167.622	2.881	Win2	0.7646999999999999	n/a	Yes	2.881	n/a	n/a	GoodResponse	1	0.0	n/a	5	16	ISIslide	Win	True
170.53	0.25	Lose2	0.7778	0.001	Yes	2.72	0.03	n/a	GoodResponse	0	n/a	n/a	5	17	Cue	AvoidedLoss	True
170.781	3.95	Lose2	0.7778	0.0	Yes	2.72	0.001	n/a	GoodResponse	0	n/a	n/a	5	17	Fixation	AvoidedLoss	True
174.726	0.23	Lose2	0.7778	0.004	Yes	2.72	-0.004	2.0	GoodResponse	0	0.209	173.935	5	17	Target	AvoidedLoss	True
174.935	0.3	Lose2	0.7778	0.004	Yes	2.72	-0.004	2.0	GoodResponse	0	0.209	n/a	5	17	ButtonPress	AvoidedLoss	True
174.96	0.47	Lose2	0.7778	n/a	Yes	2.72	n/a	n/a	GoodResponse	0	n/a	n/a	5	17	Blank	AvoidedLoss	True
175.428	1.45	Lose2	0.7778	n/a	Yes	2.72	n/a	5.0	GoodResponse	0	0.011	174.439	5	17	Feedback	AvoidedLoss	True
176.883	2.72	Lose2	0.7778	n/a	Yes	2.72	n/a	n/a	GoodResponse	0	0.0	n/a	5	17	ISIslide	AvoidedLoss	True
179.624	0.25	Lose2	0.7368000000000001	0.0	No	2.726	0.024	n/a	NoResponse	-1	n/a	n/a	4	18	Cue	Loss	True
179.875	4.05	Lose2	0.7368000000000001	0.0	No	2.726	0.001	n/a	NoResponse	-1	n/a	n/a	4	18	Fixation	Loss	True
183.921	0.22	Lose2	0.7368000000000001	0.003	No	2.726	-0.003	2.0	NoResponse	-1	0.314	183.235	4	18	Target	Loss	True
184.155	0.48	Lose2	0.7368000000000001	n/a	No	2.726	n/a	n/a	NoResponse	-1	n/a	n/a	4	18	Blank	Loss	True
184.235	0.3	Lose2	0.7368000000000001	0.003	No	2.726	-0.003	2.0	NoResponse	-1	0.314	n/a	4	18	ButtonPress	Loss	True
184.623	1.45	Lose2	0.7368000000000001	n/a	No	2.726	n/a	5.0	NoResponse	-1	0.036	183.659	4	18	Feedback	Loss	True
186.077	2.726	Lose2	0.7368000000000001	n/a	No	2.726	n/a	n/a	NoResponse	-1	0.0	n/a	4	18	ISIslide	Loss	True
188.819	0.25	Control	0.7	0.0	No	2.931	0.019	n/a	NoResponse	0	n/a	n/a	4	19	Cue	Neutral	True
189.069	3.95	Control	0.7	0.001	No	2.931	0.0	n/a	NoResponse	0	n/a	n/a	4	19	Fixation	Neutral	True
193.015	0.21	Control	0.7	0.004	No	2.931	-0.004	2.0	NoResponse	0	0.265	192.28	4	19	Target	Neutral	True
193.232	0.49	Control	0.7	n/a	No	2.931	n/a	n/a	NoResponse	0	n/a	n/a	4	19	Blank	Neutral	True
193.28	0.3	Control	0.7	0.004	No	2.931	-0.004	2.0	NoResponse	0	0.265	n/a	4	19	ButtonPress	Neutral	True
193.717	1.45	Control	0.7	n/a	No	2.931	n/a	5.0	NoResponse	0	0.015	192.732	4	19	Feedback	Neutral	True
195.171	2.931	Control	0.7	n/a	No	2.931	n/a	n/a	NoResponse	0	0.0	n/a	4	19	ISIslide	Neutral	True
198.13	0.25	Control	0.7143	0.0	Yes	2.62	0.03	n/a	GoodResponse	0	n/a	n/a	4	20	Cue	Neutral	True
198.381	4.05	Control	0.7143	0.0	Yes	2.62	0.001	n/a	GoodResponse	0	n/a	n/a	4	20	Fixation	Neutral	True
202.426	0.2	Control	0.7143	0.004	Yes	2.62	-0.004	2.0	GoodResponse	0	0.193	201.619	4	20	Target	Neutral	True
202.619	0.3	Control	0.7143	0.004	Yes	2.62	-0.004	2.0	GoodResponse	0	0.193	n/a	4	20	ButtonPress	Neutral	True
202.627	0.5	Control	0.7143	n/a	Yes	2.62	n/a	n/a	GoodResponse	0	n/a	n/a	4	20	Blank	Neutral	True
203.128	1.45	Control	0.7143	n/a	Yes	2.62	n/a	5.0	GoodResponse	0	0.018	202.146	4	20	Feedback	Neutral	True
204.583	2.62	Control	0.7143	n/a	Yes	2.62	n/a	n/a	GoodResponse	0	0.0	n/a	4	20	ISIslide	Neutral	True
207.224	0.25	Control	0.6818000000000001	0.0	No	2.776	0.024	n/a	NoResponse	0	n/a	n/a	4	21	Cue	Neutral	True
207.475	4.1	Control	0.6818000000000001	0.0	No	2.776	0.001	n/a	NoResponse	0	n/a	n/a	4	21	Fixation	Neutral	True
211.57	0.19	Control	0.6818000000000001	0.004	No	2.776	-0.004	2.0	NoResponse	0	0.209	210.779	4	21	Target	Neutral	True
211.771	0.51	Control	0.6818000000000001	n/a	No	2.776	n/a	n/a	NoResponse	0	n/a	n/a	4	21	Blank	Neutral	True
211.779	0.3	Control	0.6818000000000001	0.004	No	2.776	-0.004	2.0	NoResponse	0	0.209	n/a	4	21	ButtonPress	Neutral	True
212.272	1.45	Control	0.6818000000000001	n/a	No	2.776	n/a	5.0	NoResponse	0	0.045	211.317	4	21	Feedback	Neutral	True
213.727	2.776	Control	0.6818000000000001	n/a	No	2.776	n/a	n/a	NoResponse	0	0.0	n/a	4	21	ISIslide	Neutral	True
216.518	0.25	Control	0.6522	0.001	No	2.782	0.018	n/a	NoResponse	0	n/a	n/a	4	22	Cue	Neutral	True
216.769	4.0	Control	0.6522	0.0	No	2.782	0.001	n/a	NoResponse	0	n/a	n/a	4	22	Fixation	Neutral	True
220.764	0.18	Control	0.6522	0.004	No	2.782	-0.004	2.0	NoResponse	0	0.206	219.97	4	22	Target	Neutral	True
220.948	0.52	Control	0.6522	n/a	No	2.782	n/a	n/a	NoResponse	0	n/a	n/a	4	22	Blank	Neutral	True
220.97	0.3	Control	0.6522	0.004	No	2.782	-0.004	2.0	NoResponse	0	0.206	n/a	4	22	ButtonPress	Neutral	True
221.467	1.45	Control	0.6522	n/a	No	2.782	n/a	5.0	NoResponse	0	0.02	220.487	4	22	Feedback	Neutral	True
222.921	2.782	Control	0.6522	n/a	No	2.782	n/a	n/a	NoResponse	0	0.0	n/a	4	22	ISIslide	Neutral	True
225.729	0.25	Control	0.625	0.0	No	2.771	0.029	n/a	NoResponse	0	n/a	n/a	4	23	Cue	Neutral	True
225.98	3.9	Control	0.625	0.0	No	2.771	0.001	n/a	NoResponse	0	n/a	n/a	4	23	Fixation	Neutral	True
229.875	0.19	Control	0.625	0.004	No	2.771	-0.004	2.0	NoResponse	0	0.22	229.095	4	23	Target	Neutral	True
230.076	0.51	Control	0.625	n/a	No	2.771	n/a	n/a	NoResponse	0	n/a	n/a	4	23	Blank	Neutral	True
230.095	0.3	Control	0.625	0.004	No	2.771	-0.004	2.0	NoResponse	0	0.22	n/a	4	23	ButtonPress	Neutral	True
230.577	1.45	Control	0.625	n/a	No	2.771	n/a	5.0	NoResponse	0	0.032	229.609	4	23	Feedback	Neutral	True
232.032	2.771	Control	0.625	n/a	No	2.771	n/a	n/a	NoResponse	0	0.0	n/a	4	23	ISIslide	Neutral	True
234.823	0.25	Win2	0.6	0.0	No	3.127	0.023	n/a	LatePress	0	n/a	n/a	4	24	Cue	MissedWin	True
235.074	3.95	Win2	0.6	0.0	No	3.127	0.001	n/a	LatePress	0	n/a	n/a	4	24	Fixation	MissedWin	True
239.019	0.2	Win2	0.6	0.004	No	3.127	-0.004	2.0	LatePress	0	0.202	238.221	4	24	Target	MissedWin	True
239.22	0.5	Win2	0.6	n/a	No	3.127	n/a	n/a	LatePress	0	n/a	n/a	4	24	Blank	MissedWin	True
239.221	0.3	Win2	0.6	0.004	No	3.127	-0.004	2.0	LatePress	0	0.202	n/a	4	24	ButtonPress	MissedWin	True
239.721	1.45	Win2	0.6	n/a	No	3.127	n/a	5.0	LatePress	0	0.01	238.731	4	24	Feedback	MissedWin	True
241.176	3.127	Win2	0.6	n/a	No	3.127	n/a	n/a	LatePress	0	0.0	n/a	4	24	ISIslide	MissedWin	True
244.318	0.25	Win2	0.5769	0.001	No	3.082	0.018	n/a	PrematurePress	0	n/a	n/a	4	25	Cue	MissedWin	False
244.569	4.0	Win2	0.5769	0.0	No	3.082	0.001	2.0	PrematurePress	0	3.574	247.143	4	25	Fixation	MissedWin	False
248.143	0.3	Win2	0.5769	0.0	No	3.082	0.001	2.0	PrematurePress	0	3.574	n/a	4	25	ButtonPress	MissedWin	False
248.565	0.21	Win2	0.5769	0.003	No	3.082	-0.003	2.0	PrematurePress	0	0.077	247.642	4	25	Target	MissedWin	False
248.642	0.3	Win2	0.5769	0.003	No	3.082	-0.003	2.0	PrematurePress	0	0.077	n/a	4	25	ButtonPress	MissedWin	False
248.782	0.49	Win2	0.5769	n/a	No	3.082	n/a	n/a	PrematurePress	0	n/a	n/a	4	25	Blank	MissedWin	False
249.267	1.45	Win2	0.5769	n/a	No	3.082	n/a	5.0	PrematurePress	0	0.026	248.293	4	25	Feedback	MissedWin	False
250.721	3.082	Win2	0.5769	n/a	No	3.082	n/a	n/a	PrematurePress	0	0.0	n/a	4	25	ISIslide	MissedWin	False
253.83	0.25	Win2	0.5556	0.0	No	2.92	0.03	n/a	NoResponse	0	n/a	n/a	4	26	Cue	MissedWin	True
254.081	3.95	Win2	0.5556	0.0	No	2.92	0.001	n/a	NoResponse	0	n/a	n/a	4	26	Fixation	MissedWin	True
258.026	0.22	Win2	0.5556	0.004	No	2.92	-0.004	2.0	NoResponse	0	0.242	257.268	4	26	Target	MissedWin	True
258.26	0.48	Win2	0.5556	n/a	No	2.92	n/a	n/a	NoResponse	0	n/a	n/a	4	26	Blank	MissedWin	True
258.268	0.3	Win2	0.5556	0.004	No	2.92	-0.004	2.0	NoResponse	0	0.242	n/a	4	26	ButtonPress	MissedWin	True
258.728	1.45	Win2	0.5556	n/a	No	2.92	n/a	5.0	NoResponse	0	0.028	257.756	4	26	Feedback	MissedWin	True
260.183	2.92	Win2	0.5556	n/a	No	2.92	n/a	n/a	NoResponse	0	0.0	n/a	4	26	ISIslide	MissedWin	True
263.125	0.25	Lose2	0.5714	0.0	Yes	2.825	0.025	n/a	GoodResponse	0	n/a	n/a	4	27	Cue	AvoidedLoss	True
263.376	4.05	Lose2	0.5714	0.0	Yes	2.825	0.001	n/a	GoodResponse	0	n/a	n/a	4	27	Fixation	AvoidedLoss	True
267.421	0.23	Lose2	0.5714	0.004	Yes	2.825	-0.004	2.0	GoodResponse	0	0.19	266.611	4	27	Target	AvoidedLoss	True
267.611	0.3	Lose2	0.5714	0.004	Yes	2.825	-0.004	2.0	GoodResponse	0	0.19	n/a	4	27	ButtonPress	AvoidedLoss	True
267.655	0.47	Lose2	0.5714	n/a	Yes	2.825	n/a	n/a	GoodResponse	0	n/a	n/a	4	27	Blank	AvoidedLoss	True
268.123	1.45	Lose2	0.5714	n/a	Yes	2.825	n/a	5.0	GoodResponse	0	0.048	267.171	4	27	Feedback	AvoidedLoss	True
269.578	2.825	Lose2	0.5714	n/a	Yes	2.825	n/a	n/a	GoodResponse	0	0.0	n/a	4	27	ISIslide	AvoidedLoss	True
272.419	0.25	Control	0.5861999999999999	0.001	Yes	2.831	0.019	n/a	GoodResponse	0	n/a	n/a	4	28	Cue	Neutral	True
272.67	4.05	Control	0.5861999999999999	0.0	Yes	2.831	0.001	n/a	GoodResponse	0	n/a	n/a	4	28	Fixation	Neutral	True
276.716	0.24	Control	0.5861999999999999	0.003	Yes	2.831	-0.003	2.0	GoodResponse	0	0.221	275.937	4	28	Target	Neutral	True
276.937	0.3	Control	0.5861999999999999	0.003	Yes	2.831	-0.003	2.0	GoodResponse	0	0.221	n/a	4	28	ButtonPress	Neutral	True
276.966	0.46	Control	0.5861999999999999	n/a	Yes	2.831	n/a	n/a	GoodResponse	0	n/a	n/a	4	28	Blank	Neutral	True
277.418	1.45	Control	0.5861999999999999	n/a	Yes	2.831	n/a	5.0	GoodResponse	0	0.02	276.438	4	28	Feedback	Neutral	True
278.872	2.831	Control	0.5861999999999999	n/a	Yes	2.831	n/a	n/a	GoodResponse	0	0.0	n/a	4	28	ISIslide	Neutral	True
281.731	0.25	Lose2	0.6	0.0	Yes	2.819	0.031	n/a	GoodResponse	0	n/a	n/a	4	29	Cue	AvoidedLoss	False
281.981	3.95	Lose2	0.6	0.001	Yes	2.819	0.0	2.0	GoodResponse	0	3.694	284.675	4	29	Fixation	AvoidedLoss	False
285.675	0.3	Lose2	0.6	0.001	Yes	2.819	0.0	2.0	GoodResponse	0	3.694	n/a	4	29	ButtonPress	AvoidedLoss	False
285.927	0.25	Lose2	0.6	0.004	Yes	2.819	-0.004	2.0	GoodResponse	0	0.22	285.147	4	29	Target	AvoidedLoss	False
286.147	0.3	Lose2	0.6	0.004	Yes	2.819	-0.004	2.0	GoodResponse	0	0.22	n/a	4	29	ButtonPress	AvoidedLoss	False
286.177	0.45	Lose2	0.6	n/a	Yes	2.819	n/a	n/a	GoodResponse	0	n/a	n/a	4	29	Blank	AvoidedLoss	False
286.629	1.45	Lose2	0.6	n/a	Yes	2.819	n/a	5.0	GoodResponse	0	0.029	285.658	4	29	Feedback	AvoidedLoss	False
288.083	2.819	Lose2	0.6	n/a	Yes	2.819	n/a	n/a	GoodResponse	0	0.0	n/a	4	29	ISIslide	AvoidedLoss	False
290.925	0.25	Win2	0.6129	0.0	Yes	2.775	0.025	n/a	GoodResponse	1	n/a	n/a	5	30	Cue	Win	True
291.176	3.9	Win2	0.6129	0.0	Yes	2.775	0.001	n/a	GoodResponse	1	n/a	n/a	5	30	Fixation	Win	True
295.071	0.26	Win2	0.6129	0.004	Yes	2.775	-0.004	2.0	GoodResponse	1	0.211	294.282	5	30	Target	Win	True
295.282	0.3	Win2	0.6129	0.004	Yes	2.775	-0.004	2.0	GoodResponse	1	0.211	n/a	5	30	ButtonPress	Win	True
295.338	0.44	Win2	0.6129	n/a	Yes	2.775	n/a	n/a	GoodResponse	1	n/a	n/a	5	30	Blank	Win	True
295.773	1.45	Win2	0.6129	n/a	Yes	2.775	n/a	5.0	GoodResponse	1	0.007	294.78	5	30	Feedback	Win	True
297.227	2.775	Win2	0.6129	n/a	Yes	2.775	n/a	n/a	GoodResponse	1	0.0	n/a	5	30	ISIslide	Win	True
300.019	0.25	Lose2	0.5938	0.0	No	2.831	0.019	n/a	NoResponse	-1	n/a	n/a	4	31	Cue	Loss	True
300.27	4.05	Lose2	0.5938	0.0	No	2.831	0.001	n/a	NoResponse	-1	n/a	n/a	4	31	Fixation	Loss	True
304.315	0.27	Lose2	0.5938	0.004	No	2.831	-0.004	2.0	NoResponse	-1	0.285	303.6	4	31	Target	Loss	True
304.599	0.43	Lose2	0.5938	n/a	No	2.831	n/a	n/a	NoResponse	-1	n/a	n/a	4	31	Blank	Loss	True
304.6	0.3	Lose2	0.5938	0.004	No	2.831	-0.004	2.0	NoResponse	-1	0.285	n/a	4	31	ButtonPress	Loss	True
305.017	1.45	Lose2	0.5938	n/a	No	2.831	n/a	5.0	NoResponse	-1	0.031	304.048	4	31	Feedback	Loss	True
306.472	2.831	Lose2	0.5938	n/a	No	2.831	n/a	n/a	NoResponse	-1	0.0	n/a	4	31	ISIslide	Loss	True
309.33	0.25	Lose2	0.6061	0.0	Yes	2.62	0.03	n/a	GoodResponse	0	n/a	n/a	4	32	Cue	AvoidedLoss	True
309.581	4.15	Lose2	0.6061	0.0	Yes	2.62	0.001	n/a	GoodResponse	0	n/a	n/a	4	32	Fixation	AvoidedLoss	True
313.727	0.28	Lose2	0.6061	0.003	Yes	2.62	-0.003	2.0	GoodResponse	0	0.2	312.927	4	32	Target	AvoidedLoss	True
313.927	0.3	Lose2	0.6061	0.003	Yes	2.62	-0.003	2.0	GoodResponse	0	0.2	n/a	4	32	ButtonPress	AvoidedLoss	True
314.011	0.42	Lose2	0.6061	n/a	Yes	2.62	n/a	n/a	GoodResponse	0	n/a	n/a	4	32	Blank	AvoidedLoss	True
314.429	1.45	Lose2	0.6061	n/a	Yes	2.62	n/a	5.0	GoodResponse	0	0.034	313.463	4	32	Feedback	AvoidedLoss	True
315.883	2.62	Lose2	0.6061	n/a	Yes	2.62	n/a	n/a	GoodResponse	0	0.0	n/a	4	32	ISIslide	AvoidedLoss	True
318.524	0.25	Win2	0.6175999999999999	0.0	Yes	2.676	0.024	n/a	GoodResponse	1	n/a	n/a	5	33	Cue	Win	True
318.775	4.0	Win2	0.6175999999999999	0.0	Yes	2.676	0.001	n/a	GoodResponse	1	n/a	n/a	5	33	Fixation	Win	True
322.77	0.29	Win2	0.6175999999999999	0.004	Yes	2.676	-0.004	2.0	GoodResponse	1	0.173	321.943	5	33	Target	Win	True
322.943	0.3	Win2	0.6175999999999999	0.004	Yes	2.676	-0.004	2.0	GoodResponse	1	0.173	n/a	5	33	ButtonPress	Win	True
323.071	0.41	Win2	0.6175999999999999	n/a	Yes	2.676	n/a	n/a	GoodResponse	1	n/a	n/a	5	33	Blank	Win	True
323.473	1.45	Win2	0.6175999999999999	n/a	Yes	2.676	n/a	5.0	GoodResponse	1	0.015	322.488	5	33	Feedback	Win	True
324.927	2.676	Win2	0.6175999999999999	n/a	Yes	2.676	n/a	n/a	GoodResponse	1	0.0	n/a	5	33	ISIslide	Win	True
327.618	0.25	Lose2	0.6286	0.0	Yes	2.632	0.018	n/a	GoodResponse	0	n/a	n/a	5	34	Cue	AvoidedLoss	True
327.869	4.05	Lose2	0.6286	0.0	Yes	2.632	0.001	n/a	GoodResponse	0	n/a	n/a	5	34	Fixation	AvoidedLoss	True
331.915	0.3	Lose2	0.6286	0.003	Yes	2.632	-0.003	2.0	GoodResponse	0	0.199	331.114	5	34	Target	AvoidedLoss	True
332.114	0.3	Lose2	0.6286	0.003	Yes	2.632	-0.003	2.0	GoodResponse	0	0.199	n/a	5	34	ButtonPress	AvoidedLoss	True
332.215	0.4	Lose2	0.6286	n/a	Yes	2.632	n/a	n/a	GoodResponse	0	n/a	n/a	5	34	Blank	AvoidedLoss	True
332.617	1.45	Lose2	0.6286	n/a	Yes	2.632	n/a	5.0	GoodResponse	0	0.041	331.658	5	34	Feedback	AvoidedLoss	True
334.071	2.632	Lose2	0.6286	n/a	Yes	2.632	n/a	n/a	GoodResponse	0	0.0	n/a	5	34	ISIslide	AvoidedLoss	True
336.729	0.25	Lose2	0.6389	0.0	Yes	2.671	0.029	n/a	GoodResponse	0	n/a	n/a	5	35	Cue	AvoidedLoss	True
336.98	4.0	Lose2	0.6389	0.0	Yes	2.671	0.001	n/a	GoodResponse	0	n/a	n/a	5	35	Fixation	AvoidedLoss	True
340.975	0.31	Lose2	0.6389	0.004	Yes	2.671	-0.004	2.0	GoodResponse	0	0.196	340.171	5	35	Target	AvoidedLoss	True
341.171	0.3	Lose2	0.6389	0.004	Yes	2.671	-0.004	2.0	GoodResponse	0	0.196	n/a	5	35	ButtonPress	AvoidedLoss	True
341.293	0.39	Lose2	0.6389	n/a	Yes	2.671	n/a	n/a	GoodResponse	0	n/a	n/a	5	35	Blank	AvoidedLoss	True
341.677	1.45	Lose2	0.6389	n/a	Yes	2.671	n/a	5.0	GoodResponse	0	0.006	340.683	5	35	Feedback	AvoidedLoss	True
343.132	2.671	Lose2	0.6389	n/a	Yes	2.671	n/a	n/a	GoodResponse	0	0.0	n/a	5	35	ISIslide	AvoidedLoss	True
345.823	0.25	Control	0.6486	0.0	Yes	2.677	0.023	n/a	GoodResponse	0	n/a	n/a	5	36	Cue	Neutral	True
346.074	4.0	Control	0.6486	0.0	Yes	2.677	0.001	n/a	GoodResponse	0	n/a	n/a	5	36	Fixation	Neutral	True
350.069	0.32	Control	0.6486	0.004	Yes	2.677	-0.004	2.0	GoodResponse	0	0.178	349.247	5	36	Target	Neutral	True
350.247	0.3	Control	0.6486	0.004	Yes	2.677	-0.004	2.0	GoodResponse	0	0.178	n/a	5	36	ButtonPress	Neutral	True
350.403	0.38	Control	0.6486	n/a	Yes	2.677	n/a	n/a	GoodResponse	0	n/a	n/a	5	36	Blank	Neutral	True
350.771	1.45	Control	0.6486	n/a	Yes	2.677	n/a	5.0	GoodResponse	0	0.034	349.805	5	36	Feedback	Neutral	True
352.226	2.677	Control	0.6486	n/a	Yes	2.677	n/a	n/a	GoodResponse	0	0.0	n/a	5	36	ISIslide	Neutral	True
354.917	0.25	Win2	0.6579	0.0	Yes	2.883	0.017	n/a	GoodResponse	1	n/a	n/a	6	37	Cue	Win	False
355.168	4.0	Win2	0.6579	0.0	Yes	2.883	0.001	2.0	GoodResponse	1	3.261	357.429	6	37	Fixation	Win	False
358.429	0.3	Win2	0.6579	0.0	Yes	2.883	0.001	2.0	GoodResponse	1	3.261	n/a	6	37	ButtonPress	Win	False
359.163	0.33	Win2	0.6579	0.004	Yes	2.883	-0.004	2.0	GoodResponse	1	0.236	358.399	6	37	Target	Win	False
359.399	0.3	Win2	0.6579	0.004	Yes	2.883	-0.004	2.0	GoodResponse	1	0.236	n/a	6	37	ButtonPress	Win	False
359.497	0.37	Win2	0.6579	n/a	Yes	2.883	n/a	n/a	GoodResponse	1	n/a	n/a	6	37	Blank	Win	False
359.865	1.45	Win2	0.6579	n/a	Yes	2.883	n/a	5.0	GoodResponse	1	0.012	358.877	6	37	Feedback	Win	False
361.319	2.883	Win2	0.6579	n/a	Yes	2.883	n/a	n/a	GoodResponse	1	0.0	n/a	6	37	ISIslide	Win	False
364.228	0.25	Lose2	0.6667000000000001	0.0	Yes	2.822	0.028	n/a	GoodResponse	0	n/a	n/a	6	38	Cue	AvoidedLoss	True
364.479	3.95	Lose2	0.6667000000000001	0.0	Yes	2.822	0.001	n/a	GoodResponse	0	n/a	n/a	6	38	Fixation	AvoidedLoss	True
368.424	0.33	Lose2	0.6667000000000001	0.004	Yes	2.822	-0.004	2.0	GoodResponse	0	0.191	367.615	6	38	Target	AvoidedLoss	True
368.615	0.3	Lose2	0.6667000000000001	0.004	Yes	2.822	-0.004	2.0	GoodResponse	0	0.191	n/a	6	38	ButtonPress	AvoidedLoss	True
368.758	0.37	Lose2	0.6667000000000001	n/a	Yes	2.822	n/a	n/a	GoodResponse	0	n/a	n/a	6	38	Blank	AvoidedLoss	True
369.126	1.45	Lose2	0.6667000000000001	n/a	Yes	2.822	n/a	5.0	GoodResponse	0	0.02	368.146	6	38	Feedback	AvoidedLoss	True
370.581	2.822	Lose2	0.6667000000000001	n/a	Yes	2.822	n/a	n/a	GoodResponse	0	0.0	n/a	6	38	ISIslide	AvoidedLoss	True
373.422	0.25	Win2	0.675	0.001	Yes	2.978	0.022	n/a	GoodResponse	1	n/a	n/a	7	39	Cue	Win	True
373.673	4.1	Win2	0.675	0.0	Yes	2.978	0.001	n/a	GoodResponse	1	n/a	n/a	7	39	Fixation	Win	True
377.769	0.32	Win2	0.675	0.003	Yes	2.978	-0.003	2.0	GoodResponse	1	0.285	377.054	7	39	Target	Win	True
378.054	0.3	Win2	0.675	0.003	Yes	2.978	-0.003	2.0	GoodResponse	1	0.285	n/a	7	39	ButtonPress	Win	True
378.103	0.38	Win2	0.675	n/a	Yes	2.978	n/a	n/a	GoodResponse	1	n/a	n/a	7	39	Blank	Win	True
378.471	1.45	Win2	0.675	n/a	Yes	2.978	n/a	5.0	GoodResponse	1	0.041	377.512	7	39	Feedback	Win	True
379.925	2.978	Win2	0.675	n/a	Yes	2.978	n/a	n/a	GoodResponse	1	0.0	n/a	7	39	ISIslide	Win	True
382.918	0.25	Win2	0.6829000000000001	0.0	Yes	2.732	0.018	n/a	GoodResponse	1	n/a	n/a	8	40	Cue	Win	True
383.168	3.95	Win2	0.6829000000000001	0.0	Yes	2.732	0.0	n/a	GoodResponse	1	n/a	n/a	8	40	Fixation	Win	True
387.13	0.31	Win2	0.6829000000000001	0.0	Yes	2.732	0.012	2.0	GoodResponse	1	0.235	386.365	8	40	Target	Win	True
387.365	0.3	Win2	0.6829000000000001	0.0	Yes	2.732	0.012	2.0	GoodResponse	1	0.235	n/a	8	40	ButtonPress	Win	True
387.431	0.39	Win2	0.6829000000000001	n/a	Yes	2.732	n/a	n/a	GoodResponse	1	n/a	n/a	8	40	Blank	Win	True
387.816	1.45	Win2	0.6829000000000001	n/a	Yes	2.732	n/a	5.0	GoodResponse	1	0.013	386.829	8	40	Feedback	Win	True
389.27	2.732	Win2	0.6829000000000001	n/a	Yes	2.732	n/a	n/a	GoodResponse	1	0.0	n/a	8	40	ISIslide	Win	True
392.028	0.25	Win2	0.6905	0.0	Yes	2.772	0.028	n/a	GoodResponse	1	n/a	n/a	9	41	Cue	Win	True
392.279	3.9	Win2	0.6905	0.0	Yes	2.772	0.001	n/a	GoodResponse	1	n/a	n/a	9	41	Fixation	Win	True
396.174	0.3	Win2	0.6905	0.004	Yes	2.772	-0.004	2.0	GoodResponse	1	0.165	395.339	9	41	Target	Win	True
396.339	0.3	Win2	0.6905	0.004	Yes	2.772	-0.004	2.0	GoodResponse	1	0.165	n/a	9	41	ButtonPress	Win	True
396.475	0.4	Win2	0.6905	n/a	Yes	2.772	n/a	n/a	GoodResponse	1	n/a	n/a	9	41	Blank	Win	True
396.876	1.45	Win2	0.6905	n/a	Yes	2.772	n/a	5.0	GoodResponse	1	0.026	395.902	9	41	Feedback	Win	True
398.33	2.772	Win2	0.6905	n/a	Yes	2.772	n/a	n/a	GoodResponse	1	0.0	n/a	9	41	ISIslide	Win	True
401.122	0.25	Control	0.6744	0.0	No	2.928	0.022	n/a	NoResponse	0	n/a	n/a	9	42	Cue	Neutral	True
401.373	3.85	Control	0.6744	0.0	No	2.928	0.001	n/a	NoResponse	0	n/a	n/a	9	42	Fixation	Neutral	True
405.218	0.29	Control	0.6744	0.004	No	2.928	-0.004	2.0	NoResponse	0	0.497	404.715	9	42	Target	Neutral	True
405.519	0.41	Control	0.6744	n/a	No	2.928	n/a	n/a	NoResponse	0	n/a	n/a	9	42	Blank	Neutral	True
405.715	0.3	Control	0.6744	0.004	No	2.928	-0.004	2.0	NoResponse	0	0.497	n/a	9	42	ButtonPress	Neutral	True
405.92	1.45	Control	0.6744	n/a	No	2.928	n/a	5.0	NoResponse	0	0.007	404.927	9	42	Feedback	Neutral	True
407.374	2.928	Control	0.6744	n/a	No	2.928	n/a	n/a	NoResponse	0	0.0	n/a	9	42	ISIslide	Neutral	True
410.316	0.25	Win2	0.6818000000000001	0.001	Yes	3.184	0.016	n/a	GoodResponse	1	n/a	n/a	10	43	Cue	Win	True
410.567	4.0	Win2	0.6818000000000001	0.0	Yes	3.184	0.001	n/a	GoodResponse	1	n/a	n/a	10	43	Fixation	Win	True
414.563	0.28	Win2	0.6818000000000001	0.003	Yes	3.184	-0.003	2.0	GoodResponse	1	0.223	413.786	10	43	Target	Win	True
414.786	0.3	Win2	0.6818000000000001	0.003	Yes	3.184	-0.003	2.0	GoodResponse	1	0.223	n/a	10	43	ButtonPress	Win	True
414.847	0.42	Win2	0.6818000000000001	n/a	Yes	3.184	n/a	n/a	GoodResponse	1	n/a	n/a	10	43	Blank	Win	True
415.265	1.45	Win2	0.6818000000000001	n/a	Yes	3.184	n/a	5.0	GoodResponse	1	0.027	414.292	10	43	Feedback	Win	True
416.719	3.184	Win2	0.6818000000000001	n/a	Yes	3.184	n/a	n/a	GoodResponse	1	0.0	n/a	10	43	ISIslide	Win	True
419.929	0.25	Win2	0.6889	0.0	Yes	2.971	0.029	n/a	GoodResponse	1	n/a	n/a	11	44	Cue	Win	True
420.179	4.0	Win2	0.6889	0.0	Yes	2.971	0.0	n/a	GoodResponse	1	n/a	n/a	11	44	Fixation	Win	True
424.175	0.27	Win2	0.6889	0.004	Yes	2.971	-0.004	2.0	GoodResponse	1	0.255	423.43	11	44	Target	Win	True
424.43	0.3	Win2	0.6889	0.004	Yes	2.971	-0.004	2.0	GoodResponse	1	0.255	n/a	11	44	ButtonPress	Win	True
424.459	0.43	Win2	0.6889	n/a	Yes	2.971	n/a	n/a	GoodResponse	1	n/a	n/a	11	44	Blank	Win	True
424.877	1.45	Win2	0.6889	n/a	Yes	2.971	n/a	5.0	GoodResponse	1	0.024	423.901	11	44	Feedback	Win	True
426.331	2.971	Win2	0.6889	n/a	Yes	2.971	n/a	n/a	GoodResponse	1	0.0	n/a	11	44	ISIslide	Win	True
429.323	0.25	Control	0.6957	0.001	Yes	2.877	0.023	n/a	GoodResponse	0	n/a	n/a	11	45	Cue	Neutral	True
429.574	4.1	Control	0.6957	0.0	Yes	2.877	0.001	n/a	GoodResponse	0	n/a	n/a	11	45	Fixation	Neutral	True
433.67	0.26	Control	0.6957	0.003	Yes	2.877	-0.003	2.0	GoodResponse	0	0.153	432.823	11	45	Target	Neutral	True
433.823	0.3	Control	0.6957	0.003	Yes	2.877	-0.003	2.0	GoodResponse	0	0.153	n/a	11	45	ButtonPress	Neutral	True
433.937	0.44	Control	0.6957	n/a	Yes	2.877	n/a	n/a	GoodResponse	0	n/a	n/a	11	45	Blank	Neutral	True
434.372	1.45	Control	0.6957	n/a	Yes	2.877	n/a	5.0	GoodResponse	0	0.042	433.414	11	45	Feedback	Neutral	True
435.826	2.877	Control	0.6957	n/a	Yes	2.877	n/a	n/a	GoodResponse	0	0.0	n/a	11	45	ISIslide	Neutral	True
438.718	0.25	Lose2	0.7021	0.0	Yes	3.382	0.018	n/a	GoodResponse	0	n/a	n/a	11	46	Cue	AvoidedLoss	True
438.969	4.0	Lose2	0.7021	0.0	Yes	3.382	0.001	n/a	GoodResponse	0	n/a	n/a	11	46	Fixation	AvoidedLoss	True
442.964	0.25	Lose2	0.7021	0.004	Yes	3.382	-0.004	2.0	GoodResponse	0	0.21	442.174	11	46	Target	AvoidedLoss	True
443.174	0.3	Lose2	0.7021	0.004	Yes	3.382	-0.004	2.0	GoodResponse	0	0.21	n/a	11	46	ButtonPress	AvoidedLoss	True
443.215	0.45	Lose2	0.7021	n/a	Yes	3.382	n/a	n/a	GoodResponse	0	n/a	n/a	11	46	Blank	AvoidedLoss	True
443.666	1.45	Lose2	0.7021	n/a	Yes	3.382	n/a	5.0	GoodResponse	0	0.016	442.682	11	46	Feedback	AvoidedLoss	True
445.121	3.382	Lose2	0.7021	n/a	Yes	3.382	n/a	n/a	GoodResponse	0	0.0	n/a	11	46	ISIslide	AvoidedLoss	True
448.531	0.25	Lose2	0.7082999999999999	0.0	Yes	2.669	0.031	n/a	GoodResponse	0	n/a	n/a	11	47	Cue	AvoidedLoss	True
448.782	4.0	Lose2	0.7082999999999999	0.0	Yes	2.669	0.001	n/a	GoodResponse	0	n/a	n/a	11	47	Fixation	AvoidedLoss	True
452.777	0.24	Lose2	0.7082999999999999	0.004	Yes	2.669	-0.004	2.0	GoodResponse	0	0.234	452.011	11	47	Target	AvoidedLoss	True
453.011	0.3	Lose2	0.7082999999999999	0.004	Yes	2.669	-0.004	2.0	GoodResponse	0	0.234	n/a	11	47	ButtonPress	AvoidedLoss	True
453.028	0.46	Lose2	0.7082999999999999	n/a	Yes	2.669	n/a	n/a	GoodResponse	0	n/a	n/a	11	47	Blank	AvoidedLoss	True
453.479	1.45	Lose2	0.7082999999999999	n/a	Yes	2.669	n/a	5.0	GoodResponse	0	0.008	452.487	11	47	Feedback	AvoidedLoss	True
454.934	2.669	Lose2	0.7082999999999999	n/a	Yes	2.669	n/a	n/a	GoodResponse	0	0.0	n/a	11	47	ISIslide	AvoidedLoss	True
457.625	0.25	Lose2	0.6939	0.0	No	3.025	0.025	n/a	NoResponse	-1	n/a	n/a	10	48	Cue	Loss	True
457.876	3.95	Lose2	0.6939	0.0	No	3.025	0.001	n/a	NoResponse	-1	n/a	n/a	10	48	Fixation	Loss	True
461.821	0.23	Lose2	0.6939	0.004	No	3.025	-0.004	2.0	NoResponse	-1	0.262	461.083	10	48	Target	Loss	True
462.055	0.47	Lose2	0.6939	n/a	No	3.025	n/a	n/a	NoResponse	-1	n/a	n/a	10	48	Blank	Loss	True
462.083	0.3	Lose2	0.6939	0.004	No	3.025	-0.004	2.0	NoResponse	-1	0.262	n/a	10	48	ButtonPress	Loss	True
462.523	1.45	Lose2	0.6939	n/a	No	3.025	n/a	5.0	NoResponse	-1	0.037	461.56	10	48	Feedback	Loss	True
463.977	3.025	Lose2	0.6939	n/a	No	3.025	n/a	n/a	NoResponse	-1	0.0	n/a	10	48	ISIslide	Loss	True
467.02	0.25	Control	0.68	0.0	No	2.88	0.02	n/a	NoResponse	0	n/a	n/a	10	49	Cue	Neutral	True
467.271	4.0	Control	0.68	0.0	No	2.88	0.001	n/a	NoResponse	0	n/a	n/a	10	49	Fixation	Neutral	True
471.266	0.22	Control	0.68	0.004	No	2.88	-0.004	2.0	NoResponse	0	0.352	470.618	10	49	Target	Neutral	True
471.5	0.48	Control	0.68	n/a	No	2.88	n/a	n/a	NoResponse	0	n/a	n/a	10	49	Blank	Neutral	True
471.618	0.3	Control	0.68	0.004	No	2.88	-0.004	2.0	NoResponse	0	0.352	n/a	10	49	ButtonPress	Neutral	True
471.968	1.45	Control	0.68	n/a	No	2.88	n/a	5.0	NoResponse	0	0.007	470.975	10	49	Feedback	Neutral	True
473.422	2.88	Control	0.68	n/a	No	2.88	n/a	n/a	NoResponse	0	0.0	n/a	10	49	ISIslide	Neutral	True
476.314	0.25	Control	0.6862999999999999	0.001	Yes	2.786	0.014	n/a	GoodResponse	0	n/a	n/a	10	50	Cue	Neutral	False
476.565	4.0	Control	0.6862999999999999	0.0	Yes	2.786	0.001	2.0	GoodResponse	0	3.557	479.122	10	50	Fixation	Neutral	False
480.122	0.3	Control	0.6862999999999999	0.0	Yes	2.786	0.001	2.0	GoodResponse	0	3.557	n/a	10	50	ButtonPress	Neutral	False
480.56	0.21	Control	0.6862999999999999	0.004	Yes	2.786	-0.004	2.0	GoodResponse	0	0.119	479.679	10	50	Target	Neutral	False
480.679	0.3	Control	0.6862999999999999	0.004	Yes	2.786	-0.004	2.0	GoodResponse	0	0.119	n/a	10	50	ButtonPress	Neutral	False
480.778	0.49	Control	0.6862999999999999	n/a	Yes	2.786	n/a	n/a	GoodResponse	0	n/a	n/a	10	50	Blank	Neutral	False
481.263	1.45	Control	0.6862999999999999	n/a	Yes	2.786	n/a	5.0	GoodResponse	0	0.029	480.292	10	50	Feedback	Neutral	False
482.717	2.786	Control	0.6862999999999999	n/a	Yes	2.786	n/a	n/a	GoodResponse	0	0.0	n/a	10	50	ISIslide	Neutral	False
485.525	0.25	Control	0.6731	0.0	No	2.725	0.025	n/a	NoResponse	0	n/a	n/a	10	51	Cue	Neutral	True
485.776	3.95	Control	0.6731	0.0	No	2.725	0.001	n/a	NoResponse	0	n/a	n/a	10	51	Fixation	Neutral	True
489.721	0.2	Control	0.6731	0.004	No	2.725	-0.004	2.0	NoResponse	0	0.283	489.004	10	51	Target	Neutral	True
489.922	0.5	Control	0.6731	n/a	No	2.725	n/a	n/a	NoResponse	0	n/a	n/a	10	51	Blank	Neutral	True
490.004	0.3	Control	0.6731	0.004	No	2.725	-0.004	2.0	NoResponse	0	0.283	n/a	10	51	ButtonPress	Neutral	True
490.423	1.45	Control	0.6731	n/a	No	2.725	n/a	5.0	NoResponse	0	0.04	489.463	10	51	Feedback	Neutral	True
491.878	2.725	Control	0.6731	n/a	No	2.725	n/a	n/a	NoResponse	0	0.0	n/a	10	51	ISIslide	Neutral	True
494.619	0.25	Control	0.6604000000000001	0.0	No	2.631	0.019	n/a	PrematurePress	0	n/a	n/a	10	52	Cue	Neutral	False
494.87	4.05	Control	0.6604000000000001	0.0	No	2.631	0.001	2.0	PrematurePress	0	3.663	497.533	10	52	Fixation	Neutral	False
498.533	0.3	Control	0.6604000000000001	0.0	No	2.631	0.001	2.0	PrematurePress	0	3.663	n/a	10	52	ButtonPress	Neutral	False
498.916	0.19	Control	0.6604000000000001	0.003	No	2.631	-0.003	2.0	PrematurePress	0	0.09	498.006	10	52	Target	Neutral	False
499.006	0.3	Control	0.6604000000000001	0.003	No	2.631	-0.003	2.0	PrematurePress	0	0.09	n/a	10	52	ButtonPress	Neutral	False
499.116	0.51	Control	0.6604000000000001	n/a	No	2.631	n/a	n/a	PrematurePress	0	n/a	n/a	10	52	Blank	Neutral	False
499.618	1.45	Control	0.6604000000000001	n/a	No	2.631	n/a	5.0	PrematurePress	0	0.016	498.634	10	52	Feedback	Neutral	False
501.072	2.631	Control	0.6604000000000001	n/a	No	2.631	n/a	n/a	PrematurePress	0	0.0	n/a	10	52	ISIslide	Neutral	False
503.73	0.25	Win2	0.6667000000000001	0.0	Yes	2.92	0.03	n/a	GoodResponse	1	n/a	n/a	11	53	Cue	Win	True
503.981	4.05	Win2	0.6667000000000001	0.0	Yes	2.92	0.001	n/a	GoodResponse	1	n/a	n/a	11	53	Fixation	Win	True
508.026	0.19	Win2	0.6667000000000001	0.004	Yes	2.92	-0.004	2.0	GoodResponse	1	0.187	507.213	11	53	Target	Win	True
508.213	0.3	Win2	0.6667000000000001	0.004	Yes	2.92	-0.004	2.0	GoodResponse	1	0.187	n/a	11	53	ButtonPress	Win	True
508.227	0.51	Win2	0.6667000000000001	n/a	Yes	2.92	n/a	n/a	GoodResponse	1	n/a	n/a	11	53	Blank	Win	True
508.728	1.45	Win2	0.6667000000000001	n/a	Yes	2.92	n/a	5.0	GoodResponse	1	0.027	507.755	11	53	Feedback	Win	True
510.183	2.92	Win2	0.6667000000000001	n/a	Yes	2.92	n/a	n/a	GoodResponse	1	0.0	n/a	11	53	ISIslide	Win	True
513.125	0.25	Win2	0.6545000000000001	0.0	No	2.725	0.025	n/a	NoResponse	0	n/a	n/a	11	54	Cue	MissedWin	True
513.376	3.95	Win2	0.6545000000000001	0.0	No	2.725	0.001	n/a	NoResponse	0	n/a	n/a	11	54	Fixation	MissedWin	True
517.321	0.18	Win2	0.6545000000000001	0.004	No	2.725	-0.004	2.0	NoResponse	0	0.21	516.531	11	54	Target	MissedWin	True
517.505	0.52	Win2	0.6545000000000001	n/a	No	2.725	n/a	n/a	NoResponse	0	n/a	n/a	11	54	Blank	MissedWin	True
517.531	0.3	Win2	0.6545000000000001	0.004	No	2.725	-0.004	2.0	NoResponse	0	0.21	n/a	11	54	ButtonPress	MissedWin	True
518.023	1.45	Win2	0.6545000000000001	n/a	No	2.725	n/a	5.0	NoResponse	0	0.0	517.023	11	54	Feedback	MissedWin	True
519.477	2.725	Win2	0.6545000000000001	n/a	No	2.725	n/a	n/a	NoResponse	0	0.0	n/a	11	54	ISIslide	MissedWin	True
522.219	0.25	Control	0.6429	0.0	No	3.031	0.019	n/a	NoResponse	0	n/a	n/a	11	55	Cue	Neutral	True
522.47	3.95	Control	0.6429	0.0	No	3.031	0.001	n/a	NoResponse	0	n/a	n/a	11	55	Fixation	Neutral	True
526.415	0.19	Control	0.6429	0.004	No	3.031	-0.004	2.0	NoResponse	0	0.208	525.623	11	55	Target	Neutral	True
526.615	0.51	Control	0.6429	n/a	No	3.031	n/a	n/a	NoResponse	0	n/a	n/a	11	55	Blank	Neutral	True
526.623	0.3	Control	0.6429	0.004	No	3.031	-0.004	2.0	NoResponse	0	0.208	n/a	11	55	ButtonPress	Neutral	True
527.117	1.45	Control	0.6429	n/a	No	3.031	n/a	5.0	NoResponse	0	0.028	526.145	11	55	Feedback	Neutral	True
528.571	3.031	Control	0.6429	n/a	No	3.031	n/a	n/a	NoResponse	0	0.0	n/a	11	55	ISIslide	Neutral	True
531.63	0.25	Control	0.6491	0.0	Yes	2.82	0.03	n/a	GoodResponse	0	n/a	n/a	11	56	Cue	Neutral	False
531.881	3.95	Control	0.6491	0.0	Yes	2.82	0.001	2.0	GoodResponse	0	0.013	530.894	11	56	Fixation	Neutral	False
531.894	0.3	Control	0.6491	0.0	Yes	2.82	0.001	2.0	GoodResponse	0	0.013	n/a	11	56	ButtonPress	Neutral	False
535.826	0.2	Control	0.6491	0.004	Yes	2.82	-0.004	2.0	GoodResponse	0	0.186	535.012	11	56	Target	Neutral	False
536.012	0.3	Control	0.6491	0.004	Yes	2.82	-0.004	2.0	GoodResponse	0	0.186	n/a	11	56	ButtonPress	Neutral	False
536.027	0.5	Control	0.6491	n/a	Yes	2.82	n/a	n/a	GoodResponse	0	n/a	n/a	11	56	Blank	Neutral	False
536.528	1.45	Control	0.6491	n/a	Yes	2.82	n/a	5.0	GoodResponse	0	0.032	535.56	11	56	Feedback	Neutral	False
537.983	2.82	Control	0.6491	n/a	Yes	2.82	n/a	n/a	GoodResponse	0	0.0	n/a	11	56	ISIslide	Neutral	False
540.825	0.25	Control	0.6379	0.0	No	3.475	0.025	n/a	NoResponse	0	n/a	n/a	11	57	Cue	Neutral	True
541.075	4.0	Control	0.6379	0.0	No	3.475	0.0	n/a	NoResponse	0	n/a	n/a	11	57	Fixation	Neutral	True
545.071	0.21	Control	0.6379	0.004	No	3.475	-0.004	2.0	NoResponse	0	0.681	544.752	11	57	Target	Neutral	True
545.288	0.49	Control	0.6379	n/a	No	3.475	n/a	n/a	NoResponse	0	n/a	n/a	11	57	Blank	Neutral	True
545.752	0.3	Control	0.6379	0.004	No	3.475	-0.004	2.0	NoResponse	0	0.681	n/a	11	57	ButtonPress	Neutral	True
545.773	1.45	Control	0.6379	n/a	No	3.475	n/a	5.0	NoResponse	0	0.007	544.78	11	57	Feedback	Neutral	True
547.227	3.475	Control	0.6379	n/a	No	3.475	n/a	n/a	NoResponse	0	0.0	n/a	11	57	ISIslide	Neutral	True
550.721	0.25	Win2	0.6441	0.0	Yes	2.729	0.021	n/a	GoodResponse	1	n/a	n/a	12	58	Cue	Win	True
550.972	4.05	Win2	0.6441	0.0	Yes	2.729	0.001	n/a	GoodResponse	1	n/a	n/a	12	58	Fixation	Win	True
555.017	0.22	Win2	0.6441	0.004	Yes	2.729	-0.004	2.0	GoodResponse	1	0.197	554.214	12	58	Target	Win	True
555.214	0.3	Win2	0.6441	0.004	Yes	2.729	-0.004	2.0	GoodResponse	1	0.197	n/a	12	58	ButtonPress	Win	True
555.251	0.48	Win2	0.6441	n/a	Yes	2.729	n/a	n/a	GoodResponse	1	n/a	n/a	12	58	Blank	Win	True
555.719	1.45	Win2	0.6441	n/a	Yes	2.729	n/a	5.0	GoodResponse	1	0.012	554.731	12	58	Feedback	Win	True
557.174	2.729	Win2	0.6441	n/a	Yes	2.729	n/a	n/a	GoodResponse	1	0.0	n/a	12	58	ISIslide	Win	True
559.915	0.25	Lose2	0.65	0.0	Yes	2.685	0.015	n/a	GoodResponse	0	n/a	n/a	12	59	Cue	AvoidedLoss	True
560.166	4.0	Lose2	0.65	0.0	Yes	2.685	0.001	n/a	GoodResponse	0	n/a	n/a	12	59	Fixation	AvoidedLoss	True
564.161	0.23	Lose2	0.65	0.004	Yes	2.685	-0.004	2.0	GoodResponse	0	0.177	563.338	12	59	Target	AvoidedLoss	True
564.338	0.3	Lose2	0.65	0.004	Yes	2.685	-0.004	2.0	GoodResponse	0	0.177	n/a	12	59	ButtonPress	AvoidedLoss	True
564.395	0.47	Lose2	0.65	n/a	Yes	2.685	n/a	n/a	GoodResponse	0	n/a	n/a	12	59	Blank	AvoidedLoss	True
564.863	1.45	Lose2	0.65	n/a	Yes	2.685	n/a	5.0	GoodResponse	0	0.039	563.902	12	59	Feedback	AvoidedLoss	True
566.318	2.685	Lose2	0.65	n/a	Yes	2.685	n/a	n/a	GoodResponse	0	0.0	n/a	12	59	ISIslide	AvoidedLoss	True
569.026	0.25	Control	0.6557	0.0	Yes	2.674	0.026	n/a	GoodResponse	0	n/a	n/a	12	60	Cue	Neutral	True
569.277	4.0	Control	0.6557	0.0	Yes	2.674	0.001	n/a	GoodResponse	0	n/a	n/a	12	60	Fixation	Neutral	True
573.272	0.24	Control	0.6557	0.004	Yes	2.674	-0.004	2.0	GoodResponse	0	0.192	572.464	12	60	Target	Neutral	True
573.464	0.3	Control	0.6557	0.004	Yes	2.674	-0.004	2.0	GoodResponse	0	0.192	n/a	12	60	ButtonPress	Neutral	True
573.523	0.46	Control	0.6557	n/a	Yes	2.674	n/a	n/a	GoodResponse	0	n/a	n/a	12	60	Blank	Neutral	True
573.974	1.45	Control	0.6557	n/a	Yes	2.674	n/a	5.0	GoodResponse	0	0.0	572.974	12	60	Feedback	Neutral	True
575.428	2.674	Control	0.6557	n/a	Yes	2.674	n/a	n/a	GoodResponse	0	0.0	n/a	12	60	ISIslide	Neutral	True
578.12	0.25	Lose2	0.6613	0.0	Yes	2.98	0.02	n/a	GoodResponse	0	n/a	n/a	12	61	Cue	AvoidedLoss	True
578.371	4.0	Lose2	0.6613	0.0	Yes	2.98	0.001	n/a	GoodResponse	0	n/a	n/a	12	61	Fixation	AvoidedLoss	True
582.366	0.24	Lose2	0.6613	0.004	Yes	2.98	-0.004	2.0	GoodResponse	0	0.226	581.592	12	61	Target	AvoidedLoss	True
582.592	0.3	Lose2	0.6613	0.004	Yes	2.98	-0.004	2.0	GoodResponse	0	0.226	n/a	12	61	ButtonPress	AvoidedLoss	True
582.617	0.46	Lose2	0.6613	n/a	Yes	2.98	n/a	n/a	GoodResponse	0	n/a	n/a	12	61	Blank	AvoidedLoss	True
583.068	1.45	Lose2	0.6613	n/a	Yes	2.98	n/a	5.0	GoodResponse	0	0.028	582.096	12	61	Feedback	AvoidedLoss	True
584.522	2.98	Lose2	0.6613	n/a	Yes	2.98	n/a	n/a	GoodResponse	0	0.0	n/a	12	61	ISIslide	AvoidedLoss	True
587.531	0.25	Lose2	0.6667000000000001	0.0	Yes	2.869	0.031	n/a	GoodResponse	0	n/a	n/a	12	62	Cue	AvoidedLoss	True
587.782	3.9	Lose2	0.6667000000000001	0.0	Yes	2.869	0.001	n/a	GoodResponse	0	n/a	n/a	12	62	Fixation	AvoidedLoss	True
591.677	0.24	Lose2	0.6667000000000001	0.004	Yes	2.869	-0.004	2.0	GoodResponse	0	0.238	590.915	12	62	Target	AvoidedLoss	True
591.915	0.3	Lose2	0.6667000000000001	0.004	Yes	2.869	-0.004	2.0	GoodResponse	0	0.238	n/a	12	62	ButtonPress	AvoidedLoss	True
591.928	0.46	Lose2	0.6667000000000001	n/a	Yes	2.869	n/a	n/a	GoodResponse	0	n/a	n/a	12	62	Blank	AvoidedLoss	True
592.379	1.45	Lose2	0.6667000000000001	n/a	Yes	2.869	n/a	5.0	GoodResponse	0	0.034	591.413	12	62	Feedback	AvoidedLoss	True
593.834	2.869	Lose2	0.6667000000000001	n/a	Yes	2.869	n/a	n/a	GoodResponse	0	0.0	n/a	12	62	ISIslide	AvoidedLoss	True
596.726	0.25	Lose2	0.6562	0.0	No	2.624	0.026	n/a	NoResponse	-1	n/a	n/a	11	63	Cue	Loss	True
596.976	4.05	Lose2	0.6562	0.0	No	2.624	0.0	n/a	NoResponse	-1	n/a	n/a	11	63	Fixation	Loss	True
601.022	0.23	Lose2	0.6562	0.004	No	2.624	-0.004	2.0	NoResponse	-1	0.271	600.293	11	63	Target	Loss	True
601.256	0.47	Lose2	0.6562	n/a	No	2.624	n/a	n/a	NoResponse	-1	n/a	n/a	11	63	Blank	Loss	True
601.293	0.3	Lose2	0.6562	0.004	No	2.624	-0.004	2.0	NoResponse	-1	0.271	n/a	11	63	ButtonPress	Loss	True
601.724	1.45	Lose2	0.6562	n/a	No	2.624	n/a	5.0	NoResponse	-1	0.007	600.731	11	63	Feedback	Loss	True
603.178	2.624	Lose2	0.6562	n/a	No	2.624	n/a	n/a	NoResponse	-1	0.0	n/a	11	63	ISIslide	Loss	True
605.82	0.25	Win2	0.6615000000000001	0.0	Yes	3.13	0.02	n/a	GoodResponse	1	n/a	n/a	12	64	Cue	Win	True
606.07	4.15	Win2	0.6615000000000001	0.0	Yes	3.13	0.0	n/a	GoodResponse	1	n/a	n/a	12	64	Fixation	Win	True
610.216	0.23	Win2	0.6615000000000001	0.004	Yes	3.13	-0.004	2.0	GoodResponse	1	0.172	609.388	12	64	Target	Win	True
610.388	0.3	Win2	0.6615000000000001	0.004	Yes	3.13	-0.004	2.0	GoodResponse	1	0.172	n/a	12	64	ButtonPress	Win	True
610.45	0.47	Win2	0.6615000000000001	n/a	Yes	3.13	n/a	n/a	GoodResponse	1	n/a	n/a	12	64	Blank	Win	True
610.918	1.45	Win2	0.6615000000000001	n/a	Yes	3.13	n/a	5.0	GoodResponse	1	0.032	609.95	12	64	Feedback	Win	True
612.373	3.13	Win2	0.6615000000000001	n/a	Yes	3.13	n/a	n/a	GoodResponse	1	0.0	n/a	12	64	ISIslide	Win	True
615.515	0.25	Control	0.6515000000000001	0.0	No	2.785	0.015	n/a	NoResponse	0	n/a	n/a	12	65	Cue	Neutral	True
615.766	4.0	Control	0.6515000000000001	0.0	No	2.785	0.001	n/a	NoResponse	0	n/a	n/a	12	65	Fixation	Neutral	True
619.761	0.23	Control	0.6515000000000001	0.004	No	2.785	-0.004	2.0	NoResponse	0	0.449	619.21	12	65	Target	Neutral	True
619.995	0.47	Control	0.6515000000000001	n/a	No	2.785	n/a	n/a	NoResponse	0	n/a	n/a	12	65	Blank	Neutral	True
620.21	0.3	Control	0.6515000000000001	0.004	No	2.785	-0.004	2.0	NoResponse	0	0.449	n/a	12	65	ButtonPress	Neutral	True
620.464	1.45	Control	0.6515000000000001	n/a	No	2.785	n/a	5.0	NoResponse	0	0.047	619.511	12	65	Feedback	Neutral	True
621.918	2.785	Control	0.6515000000000001	n/a	No	2.785	n/a	n/a	NoResponse	0	0.0	n/a	12	65	ISIslide	Neutral	True
624.726	0.25	Win2	0.6567000000000001	0.0	Yes	2.774	0.026	n/a	GoodResponse	1	n/a	n/a	13	66	Cue	Win	False
624.977	3.9	Win2	0.6567000000000001	0.0	Yes	2.774	0.001	2.0	GoodResponse	1	3.61	627.587	13	66	Fixation	Win	False
628.587	0.3	Win2	0.6567000000000001	0.0	Yes	2.774	0.001	2.0	GoodResponse	1	3.61	n/a	13	66	ButtonPress	Win	False
628.872	0.24	Win2	0.6567000000000001	0.004	Yes	2.774	-0.004	2.0	GoodResponse	1	0.173	628.045	13	66	Target	Win	False
629.045	0.3	Win2	0.6567000000000001	0.004	Yes	2.774	-0.004	2.0	GoodResponse	1	0.173	n/a	13	66	ButtonPress	Win	False
629.123	0.46	Win2	0.6567000000000001	n/a	Yes	2.774	n/a	n/a	GoodResponse	1	n/a	n/a	13	66	Blank	Win	False
629.574	1.45	Win2	0.6567000000000001	n/a	Yes	2.774	n/a	5.0	GoodResponse	1	0.011	628.585	13	66	Feedback	Win	False
631.029	2.774	Win2	0.6567000000000001	n/a	Yes	2.774	n/a	n/a	GoodResponse	1	0.0	n/a	13	66	ISIslide	Win	False
633.82	0.25	Control	0.6618	0.0	Yes	2.73	0.02	n/a	GoodResponse	0	n/a	n/a	13	67	Cue	Neutral	True
634.071	3.95	Control	0.6618	0.0	Yes	2.73	0.001	n/a	GoodResponse	0	n/a	n/a	13	67	Fixation	Neutral	True
638.016	0.24	Control	0.6618	0.004	Yes	2.73	-0.004	2.0	GoodResponse	0	0.182	637.198	13	67	Target	Neutral	True
638.198	0.3	Control	0.6618	0.004	Yes	2.73	-0.004	2.0	GoodResponse	0	0.182	n/a	13	67	ButtonPress	Neutral	True
638.267	0.46	Control	0.6618	n/a	Yes	2.73	n/a	n/a	GoodResponse	0	n/a	n/a	13	67	Blank	Neutral	True
638.718	1.45	Control	0.6618	n/a	Yes	2.73	n/a	5.0	GoodResponse	0	0.037	637.755	13	67	Feedback	Neutral	True
640.173	2.73	Control	0.6618	n/a	Yes	2.73	n/a	n/a	GoodResponse	0	0.0	n/a	13	67	ISIslide	Neutral	True
642.931	0.25	Win2	0.6522	0.0	No	3.069	0.031	n/a	NoResponse	0	n/a	n/a	13	68	Cue	MissedWin	True
643.182	4.0	Win2	0.6522	0.0	No	3.069	0.001	n/a	NoResponse	0	n/a	n/a	13	68	Fixation	MissedWin	True
647.177	0.24	Win2	0.6522	0.004	No	3.069	-0.004	2.0	NoResponse	0	0.294	646.471	13	68	Target	MissedWin	True
647.428	0.46	Win2	0.6522	n/a	No	3.069	n/a	n/a	NoResponse	0	n/a	n/a	13	68	Blank	MissedWin	True
647.471	0.3	Win2	0.6522	0.004	No	3.069	-0.004	2.0	NoResponse	0	0.294	n/a	13	68	ButtonPress	MissedWin	True
647.879	1.45	Win2	0.6522	n/a	No	3.069	n/a	5.0	NoResponse	0	0.047	646.926	13	68	Feedback	MissedWin	True
649.333	3.069	Win2	0.6522	n/a	No	3.069	n/a	n/a	NoResponse	0	0.0	n/a	13	68	ISIslide	MissedWin	True
652.426	0.25	Win2	0.6570999999999999	0.0	Yes	3.224	0.026	n/a	GoodResponse	1	n/a	n/a	14	69	Cue	Win	True
652.677	3.95	Win2	0.6570999999999999	0.0	Yes	3.224	0.001	n/a	GoodResponse	1	n/a	n/a	14	69	Fixation	Win	True
656.622	0.25	Win2	0.6570999999999999	0.004	Yes	3.224	-0.004	2.0	GoodResponse	1	0.218	655.84	14	69	Target	Win	True
656.84	0.3	Win2	0.6570999999999999	0.004	Yes	3.224	-0.004	2.0	GoodResponse	1	0.218	n/a	14	69	ButtonPress	Win	True
656.873	0.45	Win2	0.6570999999999999	n/a	Yes	3.224	n/a	n/a	GoodResponse	1	n/a	n/a	14	69	Blank	Win	True
657.324	1.45	Win2	0.6570999999999999	n/a	Yes	3.224	n/a	5.0	GoodResponse	1	0.016	656.34	14	69	Feedback	Win	True
658.778	3.224	Win2	0.6570999999999999	n/a	Yes	3.224	n/a	n/a	GoodResponse	1	0.0	n/a	14	69	ISIslide	Win	True
662.022	0.25	Lose2	0.662	0.0	Yes	3.028	0.022	n/a	GoodResponse	0	n/a	n/a	14	70	Cue	AvoidedLoss	True
662.272	4.05	Lose2	0.662	0.0	Yes	3.028	0.0	n/a	GoodResponse	0	n/a	n/a	14	70	Fixation	AvoidedLoss	True
666.318	0.25	Lose2	0.662	0.004	Yes	3.028	-0.004	2.0	GoodResponse	0	0.146	665.464	14	70	Target	AvoidedLoss	True
666.464	0.3	Lose2	0.662	0.004	Yes	3.028	-0.004	2.0	GoodResponse	0	0.146	n/a	14	70	ButtonPress	AvoidedLoss	True
666.568	0.45	Lose2	0.662	n/a	Yes	3.028	n/a	n/a	GoodResponse	0	n/a	n/a	14	70	Blank	AvoidedLoss	True
667.02	1.45	Lose2	0.662	n/a	Yes	3.028	n/a	5.0	GoodResponse	0	0.027	666.047	14	70	Feedback	AvoidedLoss	True
668.474	3.028	Lose2	0.662	n/a	Yes	3.028	n/a	n/a	GoodResponse	0	0.0	n/a	14	70	ISIslide	AvoidedLoss	True
671.517	0.25	Win2	0.6528	0.0	No	2.733	0.017	n/a	PrematurePress	0	n/a	n/a	14	71	Cue	MissedWin	True
671.767	4.05	Win2	0.6528	0.0	No	2.733	0.0	n/a	PrematurePress	0	n/a	n/a	14	71	Fixation	MissedWin	True
675.813	0.25	Win2	0.6528	0.004	No	2.733	-0.004	2.0	PrematurePress	0	0.084	674.897	14	71	Target	MissedWin	True
675.897	0.3	Win2	0.6528	0.004	No	2.733	-0.004	2.0	PrematurePress	0	0.084	n/a	14	71	ButtonPress	MissedWin	True
676.064	0.45	Win2	0.6528	n/a	No	2.733	n/a	n/a	PrematurePress	0	n/a	n/a	14	71	Blank	MissedWin	True
676.515	1.45	Win2	0.6528	n/a	No	2.733	n/a	5.0	PrematurePress	0	0.045	675.56	14	71	Feedback	MissedWin	True
677.969	2.733	Win2	0.6528	n/a	No	2.733	n/a	n/a	PrematurePress	0	0.0	n/a	14	71	ISIslide	MissedWin	True
680.728	0.25	Win2	0.6575	0.0	Yes	2.772	0.028	n/a	GoodResponse	1	n/a	n/a	15	72	Cue	Win	True
680.978	4.1	Win2	0.6575	0.0	Yes	2.772	0.0	n/a	GoodResponse	1	n/a	n/a	15	72	Fixation	Win	True
685.074	0.26	Win2	0.6575	0.004	Yes	2.772	-0.004	2.0	GoodResponse	1	0.204	684.278	15	72	Target	Win	True
685.278	0.3	Win2	0.6575	0.004	Yes	2.772	-0.004	2.0	GoodResponse	1	0.204	n/a	15	72	ButtonPress	Win	True
685.341	0.44	Win2	0.6575	n/a	Yes	2.772	n/a	n/a	GoodResponse	1	n/a	n/a	15	72	Blank	Win	True
685.776	1.45	Win2	0.6575	n/a	Yes	2.772	n/a	5.0	GoodResponse	1	0.005	684.781	15	72	Feedback	Win	True
687.23	2.772	Win2	0.6575	n/a	Yes	2.772	n/a	n/a	GoodResponse	1	0.0	n/a	15	72	ISIslide	Win	True
690.022	0.25	Win2	0.6622	0.0	Yes	2.678	0.022	n/a	GoodResponse	1	n/a	n/a	16	73	Cue	Win	True
690.273	4.0	Win2	0.6622	0.0	Yes	2.678	0.001	n/a	GoodResponse	1	n/a	n/a	16	73	Fixation	Win	True
694.268	0.26	Win2	0.6622	0.004	Yes	2.678	-0.004	2.0	GoodResponse	1	0.216	693.484	16	73	Target	Win	True
694.484	0.3	Win2	0.6622	0.004	Yes	2.678	-0.004	2.0	GoodResponse	1	0.216	n/a	16	73	ButtonPress	Win	True
694.536	0.44	Win2	0.6622	n/a	Yes	2.678	n/a	n/a	GoodResponse	1	n/a	n/a	16	73	Blank	Win	True
694.97	1.45	Win2	0.6622	n/a	Yes	2.678	n/a	5.0	GoodResponse	1	0.029	693.999	16	73	Feedback	Win	True
696.425	2.678	Win2	0.6622	n/a	Yes	2.678	n/a	n/a	GoodResponse	1	0.0	n/a	16	73	ISIslide	Win	True
699.116	0.25	Lose2	0.6533	0.0	No	2.634	0.016	n/a	LatePress	-1	n/a	n/a	15	74	Cue	Loss	True
699.367	4.05	Lose2	0.6533	0.0	No	2.634	0.001	n/a	LatePress	-1	n/a	n/a	15	74	Fixation	Loss	True
703.412	0.26	Lose2	0.6533	0.004	No	2.634	-0.004	2.0	LatePress	-1	0.261	702.673	15	74	Target	Loss	True
703.673	0.3	Lose2	0.6533	0.004	No	2.634	-0.004	2.0	LatePress	-1	0.261	n/a	15	74	ButtonPress	Loss	True
703.68	0.44	Lose2	0.6533	n/a	No	2.634	n/a	n/a	LatePress	-1	n/a	n/a	15	74	Blank	Loss	True
704.114	1.45	Lose2	0.6533	n/a	No	2.634	n/a	5.0	LatePress	-1	0.007	703.121	15	74	Feedback	Loss	True
705.569	2.634	Lose2	0.6533	n/a	No	2.634	n/a	n/a	LatePress	-1	0.0	n/a	15	74	ISIslide	Loss	True
708.227	0.25	Lose2	0.6579	0.0	Yes	2.923	0.027	n/a	GoodResponse	0	n/a	n/a	15	75	Cue	AvoidedLoss	True
708.478	3.95	Lose2	0.6579	0.0	Yes	2.923	0.001	n/a	GoodResponse	0	n/a	n/a	15	75	Fixation	AvoidedLoss	True
712.423	0.27	Lose2	0.6579	0.004	Yes	2.923	-0.004	2.0	GoodResponse	0	0.222	711.645	15	75	Target	AvoidedLoss	True
712.645	0.3	Lose2	0.6579	0.004	Yes	2.923	-0.004	2.0	GoodResponse	0	0.222	n/a	15	75	ButtonPress	AvoidedLoss	True
712.707	0.43	Lose2	0.6579	n/a	Yes	2.923	n/a	n/a	GoodResponse	0	n/a	n/a	15	75	Blank	AvoidedLoss	True
713.125	1.45	Lose2	0.6579	n/a	Yes	2.923	n/a	5.0	GoodResponse	0	0.02	712.145	15	75	Feedback	AvoidedLoss	True
714.579	2.923	Lose2	0.6579	n/a	Yes	2.923	n/a	n/a	GoodResponse	0	0.0	n/a	15	75	ISIslide	AvoidedLoss	True
717.521	0.25	Control	0.6623	0.0	Yes	3.229	0.021	n/a	GoodResponse	0	n/a	n/a	15	76	Cue	Neutral	True
717.772	4.05	Control	0.6623	0.0	Yes	3.229	0.001	n/a	GoodResponse	0	n/a	n/a	15	76	Fixation	Neutral	True
721.818	0.27	Control	0.6623	0.003	Yes	3.229	-0.003	2.0	GoodResponse	0	0.182	721.0	15	76	Target	Neutral	True
722	0.3	Control	0.6623	0.003	Yes	3.229	-0.003	2.0	GoodResponse	0	0.182	n/a	15	76	ButtonPress	Neutral	True
722.102	0.43	Control	0.6623	n/a	Yes	3.229	n/a	n/a	GoodResponse	0	n/a	n/a	15	76	Blank	Neutral	True
722.52	1.45	Control	0.6623	n/a	Yes	3.229	n/a	5.0	GoodResponse	0	0.04	721.56	15	76	Feedback	Neutral	True
723.974	3.229	Control	0.6623	n/a	Yes	3.229	n/a	n/a	GoodResponse	0	0.0	n/a	15	76	ISIslide	Neutral	True
727.217	0.25	Lose2	0.6667000000000001	0.0	Yes	2.583	0.017	n/a	GoodResponse	0	n/a	n/a	15	77	Cue	AvoidedLoss	True
727.468	3.95	Lose2	0.6667000000000001	0.0	Yes	2.583	0.001	n/a	GoodResponse	0	n/a	n/a	15	77	Fixation	AvoidedLoss	True
731.413	0.27	Lose2	0.6667000000000001	0.004	Yes	2.583	-0.004	2.0	GoodResponse	0	0.215	730.628	15	77	Target	AvoidedLoss	True
731.628	0.3	Lose2	0.6667000000000001	0.004	Yes	2.583	-0.004	2.0	GoodResponse	0	0.215	n/a	15	77	ButtonPress	AvoidedLoss	True
731.697	0.43	Lose2	0.6667000000000001	n/a	Yes	2.583	n/a	n/a	GoodResponse	0	n/a	n/a	15	77	Blank	AvoidedLoss	True
732.115	1.45	Lose2	0.6667000000000001	n/a	Yes	2.583	n/a	5.0	GoodResponse	0	0.005	731.12	15	77	Feedback	AvoidedLoss	True
733.569	2.583	Lose2	0.6667000000000001	n/a	Yes	2.583	n/a	n/a	GoodResponse	0	0.0	n/a	15	77	ISIslide	AvoidedLoss	True
