onset	duration	cue_type	current_mean_accuracy	duration_error	is_hit	isi_adjusted	onset_delay	response	response_type	reward	rt	rt_time	total_reward	trial_number	trial_phase	trial_type	one_press
11.108	0.25	Control	1.0	0.0	Yes	2.942	0.008	n/a	GoodResponse	0	n/a	n/a	0	0	Cue	Neutral	True
11.359	3.85	Control	1.0	0.0	Yes	2.942	0.001	n/a	GoodResponse	0	n/a	n/a	0	0	Fixation	Neutral	True
15.204	0.4	Control	1.0	0.004	Yes	2.942	-0.004	2.0	GoodResponse	0	0.214	14.418	0	0	Target	Neutral	True
15.418	0.3	Control	1.0	0.004	Yes	2.942	-0.004	2.0	GoodResponse	0	0.214	n/a	0	0	ButtonPress	Neutral	True
15.605	0.3	Control	1.0	n/a	Yes	2.942	n/a	n/a	GoodResponse	0	n/a	n/a	0	0	Blank	Neutral	True
15.906	1.45	Control	1.0	n/a	Yes	2.942	n/a	5.0	GoodResponse	0	0.02	14.926	0	0	Feedback	Neutral	True
17.36	2.942	Control	1.0	n/a	Yes	2.942	n/a	n/a	GoodResponse	0	0.0	n/a	0	0	ISIslide	Neutral	True
20.319	0.25	Lose2	1.0	0.0	Yes	2.781	0.019	n/a	GoodResponse	0	n/a	n/a	0	1	Cue	AvoidedLoss	True
20.57	4.0	Lose2	1.0	0.0	Yes	2.781	0.001	n/a	GoodResponse	0	n/a	n/a	0	1	Fixation	AvoidedLoss	True
24.565	0.39	Lose2	1.0	0.004	Yes	2.781	-0.004	2.0	GoodResponse	0	0.282	23.847	0	1	Target	AvoidedLoss	True
24.847	0.3	Lose2	1.0	0.004	Yes	2.781	-0.004	2.0	GoodResponse	0	0.282	n/a	0	1	ButtonPress	AvoidedLoss	True
24.966	0.31	Lose2	1.0	n/a	Yes	2.781	n/a	n/a	GoodResponse	0	n/a	n/a	0	1	Blank	AvoidedLoss	True
25.267	1.45	Lose2	1.0	n/a	Yes	2.781	n/a	5.0	GoodResponse	0	0.025	24.292	0	1	Feedback	AvoidedLoss	True
26.721	2.781	Lose2	1.0	n/a	Yes	2.781	n/a	n/a	GoodResponse	0	0.0	n/a	0	1	ISIslide	AvoidedLoss	True
29.53	0.25	Control	1.0	0.0	Yes	2.57	0.03	n/a	GoodResponse	0	n/a	n/a	0	2	Cue	Neutral	False
29.781	4.1	Control	1.0	0.0	Yes	2.57	0.001	2.0	GoodResponse	0	2.634	31.415	0	2	Fixation	Neutral	False
32.415	0.3	Control	1.0	0.0	Yes	2.57	0.001	2.0	GoodResponse	0	2.634	n/a	0	2	ButtonPress	Neutral	False
33.876	0.38	Control	1.0	0.004	Yes	2.57	-0.004	2.0	GoodResponse	0	0.287	33.163	0	2	Target	Neutral	False
34.163	0.3	Control	1.0	0.004	Yes	2.57	-0.004	2.0	GoodResponse	0	0.287	n/a	0	2	ButtonPress	Neutral	False
34.261	0.32	Control	1.0	n/a	Yes	2.57	n/a	n/a	GoodResponse	0	n/a	n/a	0	2	Blank	Neutral	False
34.578	1.45	Control	1.0	n/a	Yes	2.57	n/a	5.0	GoodResponse	0	0.031	33.609	0	2	Feedback	Neutral	False
36.033	2.57	Control	1.0	n/a	Yes	2.57	n/a	n/a	GoodResponse	0	0.0	n/a	0	2	ISIslide	Neutral	False
38.624	0.25	Win2	1.0	0.0	Yes	2.826	0.024	n/a	GoodResponse	1	n/a	n/a	1	3	Cue	Win	True
38.875	3.95	Win2	1.0	0.0	Yes	2.826	0.001	n/a	GoodResponse	1	n/a	n/a	1	3	Fixation	Win	True
42.82	0.37	Win2	1.0	0.004	Yes	2.826	-0.004	2.0	GoodResponse	1	0.205	42.025	1	3	Target	Win	True
43.025	0.3	Win2	1.0	0.004	Yes	2.826	-0.004	2.0	GoodResponse	1	0.205	n/a	1	3	ButtonPress	Win	True
43.204	0.33	Win2	1.0	n/a	Yes	2.826	n/a	n/a	GoodResponse	1	n/a	n/a	1	3	Blank	Win	True
43.522	1.45	Win2	1.0	n/a	Yes	2.826	n/a	5.0	GoodResponse	1	0.014	42.536	1	3	Feedback	Win	True
44.976	2.826	Win2	1.0	n/a	Yes	2.826	n/a	n/a	GoodResponse	1	0.0	n/a	1	3	ISIslide	Win	True
47.818	0.25	Win2	1.0	0.0	Yes	3.282	0.018	n/a	GoodResponse	1	n/a	n/a	2	4	Cue	Win	True
48.069	4.0	Win2	1.0	0.0	Yes	3.282	0.001	n/a	GoodResponse	1	n/a	n/a	2	4	Fixation	Win	True
52.064	0.36	Win2	1.0	0.004	Yes	3.282	-0.004	2.0	GoodResponse	1	0.199	51.263	2	4	Target	Win	True
52.263	0.3	Win2	1.0	0.004	Yes	3.282	-0.004	2.0	GoodResponse	1	0.199	n/a	2	4	ButtonPress	Win	True
52.432	0.34	Win2	1.0	n/a	Yes	3.282	n/a	n/a	GoodResponse	1	n/a	n/a	2	4	Blank	Win	True
52.766	1.45	Win2	1.0	n/a	Yes	3.282	n/a	5.0	GoodResponse	1	0.038	51.804	2	4	Feedback	Win	True
54.221	3.282	Win2	1.0	n/a	Yes	3.282	n/a	n/a	GoodResponse	1	0.0	n/a	2	4	ISIslide	Win	True
57.531	0.25	Win2	1.0	0.0	Yes	2.769	0.031	n/a	GoodResponse	1	n/a	n/a	3	5	Cue	Win	True
57.781	4.0	Win2	1.0	0.0	Yes	2.769	0.0	n/a	GoodResponse	1	n/a	n/a	3	5	Fixation	Win	True
61.777	0.35	Win2	1.0	0.004	Yes	2.769	-0.004	2.0	GoodResponse	1	0.271	61.048	3	5	Target	Win	True
62.048	0.3	Win2	1.0	0.004	Yes	2.769	-0.004	2.0	GoodResponse	1	0.271	n/a	3	5	ButtonPress	Win	True
62.128	0.35	Win2	1.0	n/a	Yes	2.769	n/a	n/a	GoodResponse	1	n/a	n/a	3	5	Blank	Win	True
62.479	1.45	Win2	1.0	n/a	Yes	2.769	n/a	5.0	GoodResponse	1	0.033	61.512	3	5	Feedback	Win	True
63.933	2.769	Win2	1.0	n/a	Yes	2.769	n/a	n/a	GoodResponse	1	0.0	n/a	3	5	ISIslide	Win	True
66.725	0.25	Lose2	1.0	0.0	Yes	2.725	0.025	n/a	GoodResponse	0	n/a	n/a	3	6	Cue	AvoidedLoss	True
66.976	3.95	Lose2	1.0	0.0	Yes	2.725	0.001	n/a	GoodResponse	0	n/a	n/a	3	6	Fixation	AvoidedLoss	True
70.921	0.34	Lose2	1.0	0.004	Yes	2.725	-0.004	2.0	GoodResponse	0	0.21	70.131	3	6	Target	AvoidedLoss	True
71.131	0.3	Lose2	1.0	0.004	Yes	2.725	-0.004	2.0	GoodResponse	0	0.21	n/a	3	6	ButtonPress	AvoidedLoss	True
71.272	0.36	Lose2	1.0	n/a	Yes	2.725	n/a	n/a	GoodResponse	0	n/a	n/a	3	6	Blank	AvoidedLoss	True
71.623	1.45	Lose2	1.0	n/a	Yes	2.725	n/a	5.0	GoodResponse	0	0.011	70.634	3	6	Feedback	AvoidedLoss	True
73.077	2.725	Lose2	1.0	n/a	Yes	2.725	n/a	n/a	GoodResponse	0	0.0	n/a	3	6	ISIslide	AvoidedLoss	True
75.819	0.25	Lose2	1.0	0.0	Yes	4.031	0.019	n/a	GoodResponse	0	n/a	n/a	3	7	Cue	AvoidedLoss	False
76.069	4.05	Lose2	1.0	0.001	Yes	4.031	0.0	2.0	GoodResponse	0	3.648	78.717	3	7	Fixation	AvoidedLoss	False
79.717	0.3	Lose2	1.0	0.001	Yes	4.031	0.0	2.0	GoodResponse	0	3.648	n/a	3	7	ButtonPress	AvoidedLoss	False
80.115	0.33	Lose2	1.0	0.004	Yes	4.031	-0.004	2.0	GoodResponse	0	0.233	79.348	3	7	Target	AvoidedLoss	False
80.348	0.3	Lose2	1.0	0.004	Yes	4.031	-0.004	2.0	GoodResponse	0	0.233	n/a	3	7	ButtonPress	AvoidedLoss	False
80.449	0.37	Lose2	1.0	n/a	Yes	4.031	n/a	n/a	GoodResponse	0	n/a	n/a	3	7	Blank	AvoidedLoss	False
80.817	1.45	Lose2	1.0	n/a	Yes	4.031	n/a	5.0	GoodResponse	0	0.035	79.852	3	7	Feedback	AvoidedLoss	False
82.271	4.031	Lose2	1.0	n/a	Yes	4.031	n/a	n/a	GoodResponse	0	0.0	n/a	3	7	ISIslide	AvoidedLoss	False
86.317	0.25	Lose2	1.0	0.0	Yes	3.033	0.017	n/a	GoodResponse	0	n/a	n/a	3	8	Cue	AvoidedLoss	True
86.568	3.95	Lose2	1.0	0.0	Yes	3.033	0.001	n/a	GoodResponse	0	n/a	n/a	3	8	Fixation	AvoidedLoss	True
90.513	0.32	Lose2	1.0	0.004	Yes	3.033	-0.004	2.0	GoodResponse	0	0.226	89.739	3	8	Target	AvoidedLoss	True
90.739	0.3	Lose2	1.0	0.004	Yes	3.033	-0.004	2.0	GoodResponse	0	0.226	n/a	3	8	ButtonPress	AvoidedLoss	True
90.847	0.38	Lose2	1.0	n/a	Yes	3.033	n/a	n/a	GoodResponse	0	n/a	n/a	3	8	Blank	AvoidedLoss	True
91.215	1.45	Lose2	1.0	n/a	Yes	3.033	n/a	5.0	GoodResponse	0	0.028	90.243	3	8	Feedback	AvoidedLoss	True
92.669	3.033	Lose2	1.0	n/a	Yes	3.033	n/a	n/a	GoodResponse	0	0.0	n/a	3	8	ISIslide	AvoidedLoss	True
95.728	0.25	Lose2	1.0	0.001	Yes	3.122	0.028	n/a	GoodResponse	0	n/a	n/a	3	9	Cue	AvoidedLoss	True
95.979	3.95	Lose2	1.0	0.0	Yes	3.122	0.001	n/a	GoodResponse	0	n/a	n/a	3	9	Fixation	AvoidedLoss	True
99.924	0.31	Lose2	1.0	0.004	Yes	3.122	-0.004	2.0	GoodResponse	0	0.269	99.193	3	9	Target	AvoidedLoss	True
100.193	0.3	Lose2	1.0	0.004	Yes	3.122	-0.004	2.0	GoodResponse	0	0.269	n/a	3	9	ButtonPress	AvoidedLoss	True
100.242	0.39	Lose2	1.0	n/a	Yes	3.122	n/a	n/a	GoodResponse	0	n/a	n/a	3	9	Blank	AvoidedLoss	True
100.626	1.45	Lose2	1.0	n/a	Yes	3.122	n/a	5.0	GoodResponse	0	0.031	99.657	3	9	Feedback	AvoidedLoss	True
102.081	3.122	Lose2	1.0	n/a	Yes	3.122	n/a	n/a	GoodResponse	0	0.0	n/a	3	9	ISIslide	AvoidedLoss	True
105.224	0.25	Control	1.0	0.0	Yes	3.276	0.024	n/a	GoodResponse	0	n/a	n/a	3	10	Cue	Neutral	True
105.474	4.0	Control	1.0	0.0	Yes	3.276	0.0	n/a	GoodResponse	0	n/a	n/a	3	10	Fixation	Neutral	True
109.47	0.3	Control	1.0	0.004	Yes	3.276	-0.004	2.0	GoodResponse	0	0.251	108.721	3	10	Target	Neutral	True
109.721	0.3	Control	1.0	0.004	Yes	3.276	-0.004	2.0	GoodResponse	0	0.251	n/a	3	10	ButtonPress	Neutral	True
109.771	0.4	Control	1.0	n/a	Yes	3.276	n/a	n/a	GoodResponse	0	n/a	n/a	3	10	Blank	Neutral	True
110.172	1.45	Control	1.0	n/a	Yes	3.276	n/a	5.0	GoodResponse	0	0.046	109.218	3	10	Feedback	Neutral	True
111.626	3.276	Control	1.0	n/a	Yes	3.276	n/a	n/a	GoodResponse	0	0.0	n/a	3	10	ISIslide	Neutral	True
114.919	0.25	Lose2	0.9167000000000001	0.0	No	2.731	0.019	n/a	NoResponse	-1	n/a	n/a	2	11	Cue	Loss	True
115.17	4.05	Lose2	0.9167000000000001	0.0	No	2.731	0.001	n/a	NoResponse	-1	n/a	n/a	2	11	Fixation	Loss	True
119.216	0.29	Lose2	0.9167000000000001	0.003	No	2.731	-0.003	2.0	NoResponse	-1	0.312	118.528	2	11	Target	Loss	True
119.516	0.41	Lose2	0.9167000000000001	n/a	No	2.731	n/a	n/a	NoResponse	-1	n/a	n/a	2	11	Blank	Loss	True
119.528	0.3	Lose2	0.9167000000000001	0.003	No	2.731	-0.003	2.0	NoResponse	-1	0.312	n/a	2	11	ButtonPress	Loss	True
119.918	1.45	Lose2	0.9167000000000001	n/a	No	2.731	n/a	5.0	NoResponse	-1	0.008	118.926	2	11	Feedback	Loss	True
121.372	2.731	Lose2	0.9167000000000001	n/a	No	2.731	n/a	n/a	NoResponse	-1	0.0	n/a	2	11	ISIslide	Loss	True
124.13	0.25	Control	0.9231	0.0	Yes	2.97	0.03	n/a	GoodResponse	0	n/a	n/a	2	12	Cue	Neutral	True
124.381	3.9	Control	0.9231	0.0	Yes	2.97	0.001	n/a	GoodResponse	0	n/a	n/a	2	12	Fixation	Neutral	True
128.276	0.28	Control	0.9231	0.004	Yes	2.97	-0.004	2.0	GoodResponse	0	0.252	127.528	2	12	Target	Neutral	True
128.528	0.3	Control	0.9231	0.004	Yes	2.97	-0.004	2.0	GoodResponse	0	0.252	n/a	2	12	ButtonPress	Neutral	True
128.56	0.42	Control	0.9231	n/a	Yes	2.97	n/a	n/a	GoodResponse	0	n/a	n/a	2	12	Blank	Neutral	True
128.978	1.45	Control	0.9231	n/a	Yes	2.97	n/a	5.0	GoodResponse	0	0.021	127.999	2	12	Feedback	Neutral	True
130.433	2.97	Control	0.9231	n/a	Yes	2.97	n/a	n/a	GoodResponse	0	0.0	n/a	2	12	ISIslide	Neutral	True
133.425	0.25	Control	0.9286	0.0	Yes	2.775	0.025	n/a	GoodResponse	0	n/a	n/a	2	13	Cue	Neutral	True
133.676	4.0	Control	0.9286	0.0	Yes	2.775	0.001	n/a	GoodResponse	0	n/a	n/a	2	13	Fixation	Neutral	True
137.671	0.27	Control	0.9286	0.004	Yes	2.775	-0.004	2.0	GoodResponse	0	0.21	136.881	2	13	Target	Neutral	True
137.881	0.3	Control	0.9286	0.004	Yes	2.775	-0.004	2.0	GoodResponse	0	0.21	n/a	2	13	ButtonPress	Neutral	True
137.955	0.43	Control	0.9286	n/a	Yes	2.775	n/a	n/a	GoodResponse	0	n/a	n/a	2	13	Blank	Neutral	True
138.373	1.45	Control	0.9286	n/a	Yes	2.775	n/a	5.0	GoodResponse	0	0.041	137.414	2	13	Feedback	Neutral	True
139.827	2.775	Control	0.9286	n/a	Yes	2.775	n/a	n/a	GoodResponse	0	0.0	n/a	2	13	ISIslide	Neutral	True
142.619	0.25	Win2	0.9333	0.0	Yes	2.681	0.019	n/a	GoodResponse	1	n/a	n/a	3	14	Cue	Win	True
142.87	4.1	Win2	0.9333	0.0	Yes	2.681	0.001	n/a	GoodResponse	1	n/a	n/a	3	14	Fixation	Win	True
146.966	0.26	Win2	0.9333	0.003	Yes	2.681	-0.003	2.0	GoodResponse	1	0.237	146.203	3	14	Target	Win	True
147.203	0.3	Win2	0.9333	0.003	Yes	2.681	-0.003	2.0	GoodResponse	1	0.237	n/a	3	14	ButtonPress	Win	True
147.233	0.44	Win2	0.9333	n/a	Yes	2.681	n/a	n/a	GoodResponse	1	n/a	n/a	3	14	Blank	Win	True
147.668	1.45	Win2	0.9333	n/a	Yes	2.681	n/a	5.0	GoodResponse	1	0.014	146.682	3	14	Feedback	Win	True
149.122	2.681	Win2	0.9333	n/a	Yes	2.681	n/a	n/a	GoodResponse	1	0.0	n/a	3	14	ISIslide	Win	True
151.83	0.25	Control	0.9375	0.0	Yes	2.97	0.03	n/a	GoodResponse	0	n/a	n/a	3	15	Cue	Neutral	True
152.081	4.0	Control	0.9375	0.0	Yes	2.97	0.001	n/a	GoodResponse	0	n/a	n/a	3	15	Fixation	Neutral	True
156.076	0.25	Control	0.9375	0.004	Yes	2.97	-0.004	2.0	GoodResponse	0	0.201	155.277	3	15	Target	Neutral	True
156.277	0.3	Control	0.9375	0.004	Yes	2.97	-0.004	2.0	GoodResponse	0	0.201	n/a	3	15	ButtonPress	Neutral	True
156.327	0.45	Control	0.9375	n/a	Yes	2.97	n/a	n/a	GoodResponse	0	n/a	n/a	3	15	Blank	Neutral	True
156.778	1.45	Control	0.9375	n/a	Yes	2.97	n/a	5.0	GoodResponse	0	0.025	155.803	3	15	Feedback	Neutral	True
158.233	2.97	Control	0.9375	n/a	Yes	2.97	n/a	n/a	GoodResponse	0	0.0	n/a	3	15	ISIslide	Neutral	True
161.225	0.25	Win2	0.9412	0.0	Yes	2.875	0.025	n/a	GoodResponse	1	n/a	n/a	4	16	Cue	Win	True
161.476	4.0	Win2	0.9412	0.0	Yes	2.875	0.001	n/a	GoodResponse	1	n/a	n/a	4	16	Fixation	Win	True
165.471	0.24	Win2	0.9412	0.004	Yes	2.875	-0.004	2.0	GoodResponse	1	0.196	164.667	4	16	Target	Win	True
165.667	0.3	Win2	0.9412	0.004	Yes	2.875	-0.004	2.0	GoodResponse	1	0.196	n/a	4	16	ButtonPress	Win	True
165.722	0.46	Win2	0.9412	n/a	Yes	2.875	n/a	n/a	GoodResponse	1	n/a	n/a	4	16	Blank	Win	True
166.173	1.45	Win2	0.9412	n/a	Yes	2.875	n/a	5.0	GoodResponse	1	0.045	165.218	4	16	Feedback	Win	True
167.627	2.875	Win2	0.9412	n/a	Yes	2.875	n/a	n/a	GoodResponse	1	0.0	n/a	4	16	ISIslide	Win	True
170.519	0.25	Lose2	0.8889	0.001	No	2.731	0.019	n/a	NoResponse	-1	n/a	n/a	3	17	Cue	Loss	True
170.77	3.95	Lose2	0.8889	0.0	No	2.731	0.001	n/a	NoResponse	-1	n/a	n/a	3	17	Fixation	Loss	True
174.715	0.23	Lose2	0.8889	0.004	No	2.731	-0.004	2.0	NoResponse	-1	0.266	173.981	3	17	Target	Loss	True
174.949	0.47	Lose2	0.8889	n/a	No	2.731	n/a	n/a	NoResponse	-1	n/a	n/a	3	17	Blank	Loss	True
174.981	0.3	Lose2	0.8889	0.004	No	2.731	-0.004	2.0	NoResponse	-1	0.266	n/a	3	17	ButtonPress	Loss	True
175.418	1.45	Lose2	0.8889	n/a	No	2.731	n/a	5.0	NoResponse	-1	0.02	174.438	3	17	Feedback	Loss	True
176.872	2.731	Lose2	0.8889	n/a	No	2.731	n/a	n/a	NoResponse	-1	0.0	n/a	3	17	ISIslide	Loss	True
179.63	0.25	Lose2	0.8946999999999999	0.0	Yes	2.72	0.03	n/a	GoodResponse	0	n/a	n/a	3	18	Cue	AvoidedLoss	True
179.881	4.05	Lose2	0.8946999999999999	0.0	Yes	2.72	0.001	n/a	GoodResponse	0	n/a	n/a	3	18	Fixation	AvoidedLoss	True
183.926	0.22	Lose2	0.8946999999999999	0.004	Yes	2.72	-0.004	2.0	GoodResponse	0	0.185	183.111	3	18	Target	AvoidedLoss	True
184.111	0.3	Lose2	0.8946999999999999	0.004	Yes	2.72	-0.004	2.0	GoodResponse	0	0.185	n/a	3	18	ButtonPress	AvoidedLoss	True
184.16	0.48	Lose2	0.8946999999999999	n/a	Yes	2.72	n/a	n/a	GoodResponse	0	n/a	n/a	3	18	Blank	AvoidedLoss	True
184.628	1.45	Lose2	0.8946999999999999	n/a	Yes	2.72	n/a	5.0	GoodResponse	0	0.029	183.657	3	18	Feedback	AvoidedLoss	True
186.083	2.72	Lose2	0.8946999999999999	n/a	Yes	2.72	n/a	n/a	GoodResponse	0	0.0	n/a	3	18	ISIslide	AvoidedLoss	True
188.824	0.25	Control	0.85	0.001	No	2.926	0.024	n/a	NoResponse	0	n/a	n/a	3	19	Cue	Neutral	True
189.075	3.95	Control	0.85	0.0	No	2.926	0.001	n/a	NoResponse	0	n/a	n/a	3	19	Fixation	Neutral	True
193.02	0.21	Control	0.85	0.004	No	2.926	-0.004	2.0	NoResponse	0	0.323	192.343	3	19	Target	Neutral	True
193.238	0.49	Control	0.85	n/a	No	2.926	n/a	n/a	NoResponse	0	n/a	n/a	3	19	Blank	Neutral	True
193.343	0.3	Control	0.85	0.004	No	2.926	-0.004	2.0	NoResponse	0	0.323	n/a	3	19	ButtonPress	Neutral	True
193.722	1.45	Control	0.85	n/a	No	2.926	n/a	5.0	NoResponse	0	0.008	192.73	3	19	Feedback	Neutral	True
195.177	2.926	Control	0.85	n/a	No	2.926	n/a	n/a	NoResponse	0	0.0	n/a	3	19	ISIslide	Neutral	True
198.119	0.25	Control	0.8571	0.0	Yes	2.631	0.019	n/a	GoodResponse	0	n/a	n/a	3	20	Cue	Neutral	True
198.37	4.05	Control	0.8571	0.0	Yes	2.631	0.001	n/a	GoodResponse	0	n/a	n/a	3	20	Fixation	Neutral	True
202.415	0.2	Control	0.8571	0.004	Yes	2.631	-0.004	2.0	GoodResponse	0	0.196	201.611	3	20	Target	Neutral	True
202.611	0.3	Control	0.8571	0.004	Yes	2.631	-0.004	2.0	GoodResponse	0	0.196	n/a	3	20	ButtonPress	Neutral	True
202.616	0.5	Control	0.8571	n/a	Yes	2.631	n/a	n/a	GoodResponse	0	n/a	n/a	3	20	Blank	Neutral	True
203.117	1.45	Control	0.8571	n/a	Yes	2.631	n/a	5.0	GoodResponse	0	0.028	202.145	3	20	Feedback	Neutral	True
204.572	2.631	Control	0.8571	n/a	Yes	2.631	n/a	n/a	GoodResponse	0	0.0	n/a	3	20	ISIslide	Neutral	True
207.23	0.25	Control	0.8181999999999999	0.0	No	2.77	0.03	n/a	NoResponse	0	n/a	n/a	3	21	Cue	Neutral	True
207.48	4.1	Control	0.8181999999999999	0.0	No	2.77	0.0	n/a	NoResponse	0	n/a	n/a	3	21	Fixation	Neutral	True
211.576	0.19	Control	0.8181999999999999	0.004	No	2.77	-0.004	2.0	NoResponse	0	0.216	210.792	3	21	Target	Neutral	True
211.777	0.51	Control	0.8181999999999999	n/a	No	2.77	n/a	n/a	NoResponse	0	n/a	n/a	3	21	Blank	Neutral	True
211.792	0.3	Control	0.8181999999999999	0.004	No	2.77	-0.004	2.0	NoResponse	0	0.216	n/a	3	21	ButtonPress	Neutral	True
212.278	1.45	Control	0.8181999999999999	n/a	No	2.77	n/a	5.0	NoResponse	0	0.038	211.316	3	21	Feedback	Neutral	True
213.732	2.77	Control	0.8181999999999999	n/a	No	2.77	n/a	n/a	NoResponse	0	0.0	n/a	3	21	ISIslide	Neutral	True
216.524	0.25	Control	0.7826000000000001	0.0	No	2.776	0.024	n/a	NoResponse	0	n/a	n/a	3	22	Cue	Neutral	True
216.775	4.0	Control	0.7826000000000001	0.0	No	2.776	0.001	2.0	NoResponse	0	3.825	219.6	3	22	Fixation	Neutral	True
220.6	0.3	Control	0.7826000000000001	0.0	No	2.776	0.001	2.0	NoResponse	0	3.825	n/a	3	22	ButtonPress	Neutral	True
220.77	0.18	Control	0.7826000000000001	0.004	No	2.776	-0.004	n/a	NoResponse	0	n/a	n/a	3	22	Target	Neutral	True
220.954	0.52	Control	0.7826000000000001	n/a	No	2.776	n/a	n/a	NoResponse	0	n/a	n/a	3	22	Blank	Neutral	True
221.472	1.45	Control	0.7826000000000001	n/a	No	2.776	n/a	5.0	NoResponse	0	0.015	220.487	3	22	Feedback	Neutral	True
222.927	2.776	Control	0.7826000000000001	n/a	No	2.776	n/a	n/a	NoResponse	0	0.0	n/a	3	22	ISIslide	Neutral	True
225.718	0.25	Control	0.75	0.0	No	2.782	0.018	n/a	NoResponse	0	n/a	n/a	3	23	Cue	Neutral	True
225.969	3.9	Control	0.75	0.0	No	2.782	0.001	n/a	NoResponse	0	n/a	n/a	3	23	Fixation	Neutral	True
229.864	0.17	Control	0.75	0.004	No	2.782	-0.004	2.0	NoResponse	0	0.212	229.076	3	23	Target	Neutral	True
230.048	0.53	Control	0.75	n/a	No	2.782	n/a	n/a	NoResponse	0	n/a	n/a	3	23	Blank	Neutral	True
230.076	0.3	Control	0.75	0.004	No	2.782	-0.004	2.0	NoResponse	0	0.212	n/a	3	23	ButtonPress	Neutral	True
230.566	1.45	Control	0.75	n/a	No	2.782	n/a	5.0	NoResponse	0	0.042	229.608	3	23	Feedback	Neutral	True
232.021	2.782	Control	0.75	n/a	No	2.782	n/a	n/a	NoResponse	0	0.0	n/a	3	23	ISIslide	Neutral	True
234.829	0.25	Win2	0.72	0.0	No	3.121	0.029	n/a	NoResponse	0	n/a	n/a	3	24	Cue	MissedWin	False
235.08	3.95	Win2	0.72	0.0	No	3.121	0.001	2.0	NoResponse	0	3.029	237.109	3	24	Fixation	MissedWin	False
238.109	0.3	Win2	0.72	0.0	No	3.121	0.001	2.0	NoResponse	0	3.029	n/a	3	24	ButtonPress	MissedWin	False
239.025	0.16	Win2	0.72	0.004	No	3.121	-0.004	2.0	NoResponse	0	0.23	238.255	3	24	Target	MissedWin	False
239.192	0.54	Win2	0.72	n/a	No	3.121	n/a	n/a	NoResponse	0	n/a	n/a	3	24	Blank	MissedWin	False
239.255	0.3	Win2	0.72	0.004	No	3.121	-0.004	2.0	NoResponse	0	0.23	n/a	3	24	ButtonPress	MissedWin	False
239.727	1.45	Win2	0.72	n/a	No	3.121	n/a	5.0	NoResponse	0	0.007	238.734	3	24	Feedback	MissedWin	False
241.181	3.121	Win2	0.72	n/a	No	3.121	n/a	n/a	NoResponse	0	0.0	n/a	3	24	ISIslide	MissedWin	False
244.324	0.25	Win2	0.6923	0.0	No	3.076	0.024	n/a	NoResponse	0	n/a	n/a	3	25	Cue	MissedWin	True
244.575	4.0	Win2	0.6923	0.0	No	3.076	0.001	n/a	NoResponse	0	n/a	n/a	3	25	Fixation	MissedWin	True
248.57	0.15	Win2	0.6923	0.004	No	3.076	-0.004	2.0	NoResponse	0	0.211	247.781	3	25	Target	MissedWin	True
248.721	0.55	Win2	0.6923	n/a	No	3.076	n/a	n/a	NoResponse	0	n/a	n/a	3	25	Blank	MissedWin	True
248.781	0.3	Win2	0.6923	0.004	No	3.076	-0.004	2.0	NoResponse	0	0.211	n/a	3	25	ButtonPress	MissedWin	True
249.272	1.45	Win2	0.6923	n/a	No	3.076	n/a	5.0	NoResponse	0	0.019	248.291	3	25	Feedback	MissedWin	True
250.727	3.076	Win2	0.6923	n/a	No	3.076	n/a	n/a	NoResponse	0	0.0	n/a	3	25	ISIslide	MissedWin	True
253.819	0.25	Win2	0.6667000000000001	0.0	No	2.931	0.019	n/a	NoResponse	0	n/a	n/a	3	26	Cue	MissedWin	True
254.07	3.95	Win2	0.6667000000000001	0.0	No	2.931	0.001	n/a	NoResponse	0	n/a	n/a	3	26	Fixation	MissedWin	True
258.015	0.15	Win2	0.6667000000000001	0.004	No	2.931	-0.004	2.0	NoResponse	0	0.256	257.271	3	26	Target	MissedWin	True
258.166	0.55	Win2	0.6667000000000001	n/a	No	2.931	n/a	n/a	NoResponse	0	n/a	n/a	3	26	Blank	MissedWin	True
258.271	0.3	Win2	0.6667000000000001	0.004	No	2.931	-0.004	2.0	NoResponse	0	0.256	n/a	3	26	ButtonPress	MissedWin	True
258.717	1.45	Win2	0.6667000000000001	n/a	No	2.931	n/a	5.0	NoResponse	0	0.038	257.755	3	26	Feedback	MissedWin	True
260.172	2.931	Win2	0.6667000000000001	n/a	No	2.931	n/a	n/a	NoResponse	0	0.0	n/a	3	26	ISIslide	MissedWin	True
263.131	0.25	Lose2	0.6429	0.0	No	2.819	0.031	n/a	NoResponse	-1	n/a	n/a	2	27	Cue	Loss	True
263.381	4.05	Lose2	0.6429	0.0	No	2.819	0.0	n/a	NoResponse	-1	n/a	n/a	2	27	Fixation	Loss	True
267.427	0.15	Lose2	0.6429	0.004	No	2.819	-0.004	2.0	NoResponse	-1	0.216	266.643	2	27	Target	Loss	True
267.577	0.55	Lose2	0.6429	n/a	No	2.819	n/a	n/a	NoResponse	-1	n/a	n/a	2	27	Blank	Loss	True
267.643	0.3	Lose2	0.6429	0.004	No	2.819	-0.004	2.0	NoResponse	-1	0.216	n/a	2	27	ButtonPress	Loss	True
268.129	1.45	Lose2	0.6429	n/a	No	2.819	n/a	5.0	NoResponse	-1	0.04	267.169	2	27	Feedback	Loss	True
269.583	2.819	Lose2	0.6429	n/a	No	2.819	n/a	n/a	NoResponse	-1	0.0	n/a	2	27	ISIslide	Loss	True
272.425	0.25	Control	0.6207	0.0	No	2.825	0.025	n/a	NoResponse	0	n/a	n/a	2	28	Cue	Neutral	True
272.676	4.05	Control	0.6207	0.0	No	2.825	0.001	n/a	NoResponse	0	n/a	n/a	2	28	Fixation	Neutral	True
276.721	0.16	Control	0.6207	0.004	No	2.825	-0.004	2.0	NoResponse	0	0.234	275.955	2	28	Target	Neutral	True
276.889	0.54	Control	0.6207	n/a	No	2.825	n/a	n/a	NoResponse	0	n/a	n/a	2	28	Blank	Neutral	True
276.955	0.3	Control	0.6207	0.004	No	2.825	-0.004	2.0	NoResponse	0	0.234	n/a	2	28	ButtonPress	Neutral	True
277.424	1.45	Control	0.6207	n/a	No	2.825	n/a	5.0	NoResponse	0	0.014	276.438	2	28	Feedback	Neutral	True
278.878	2.825	Control	0.6207	n/a	No	2.825	n/a	n/a	NoResponse	0	0.0	n/a	2	28	ISIslide	Neutral	True
281.72	0.25	Lose2	0.6	0.0	No	2.83	0.02	n/a	NoResponse	-1	n/a	n/a	1	29	Cue	Loss	True
281.97	3.95	Lose2	0.6	0.001	No	2.83	0.0	n/a	NoResponse	-1	n/a	n/a	1	29	Fixation	Loss	True
285.916	0.17	Lose2	0.6	0.004	No	2.83	-0.004	2.0	NoResponse	-1	0.2	285.116	1	29	Target	Loss	True
286.1	0.53	Lose2	0.6	n/a	No	2.83	n/a	n/a	NoResponse	-1	n/a	n/a	1	29	Blank	Loss	True
286.116	0.3	Lose2	0.6	0.004	No	2.83	-0.004	2.0	NoResponse	-1	0.2	n/a	1	29	ButtonPress	Loss	True
286.618	1.45	Lose2	0.6	n/a	No	2.83	n/a	5.0	NoResponse	-1	0.039	285.657	1	29	Feedback	Loss	True
288.072	2.83	Lose2	0.6	n/a	No	2.83	n/a	n/a	NoResponse	-1	0.0	n/a	1	29	ISIslide	Loss	True
290.931	0.25	Win2	0.5806	0.0	No	2.769	0.031	n/a	LatePress	0	n/a	n/a	1	30	Cue	MissedWin	True
291.181	3.9	Win2	0.5806	0.001	No	2.769	0.0	n/a	LatePress	0	n/a	n/a	1	30	Fixation	MissedWin	True
295.076	0.18	Win2	0.5806	0.005	No	2.769	-0.005	2.0	LatePress	0	0.183	294.259	1	30	Target	MissedWin	True
295.259	0.3	Win2	0.5806	0.005	No	2.769	-0.005	2.0	LatePress	0	0.183	n/a	1	30	ButtonPress	MissedWin	True
295.26	0.52	Win2	0.5806	n/a	No	2.769	n/a	n/a	LatePress	0	n/a	n/a	1	30	Blank	MissedWin	True
295.779	1.45	Win2	0.5806	n/a	No	2.769	n/a	5.0	LatePress	0	0.049	294.828	1	30	Feedback	MissedWin	True
297.233	2.769	Win2	0.5806	n/a	No	2.769	n/a	n/a	LatePress	0	0.0	n/a	1	30	ISIslide	MissedWin	True
300.025	0.25	Lose2	0.5938	0.0	Yes	2.825	0.025	n/a	GoodResponse	0	n/a	n/a	1	31	Cue	AvoidedLoss	True
300.275	4.05	Lose2	0.5938	0.0	Yes	2.825	0.0	n/a	GoodResponse	0	n/a	n/a	1	31	Fixation	AvoidedLoss	True
304.321	0.19	Lose2	0.5938	0.004	Yes	2.825	-0.004	2.0	GoodResponse	0	0.188	303.509	1	31	Target	AvoidedLoss	True
304.509	0.3	Lose2	0.5938	0.004	Yes	2.825	-0.004	2.0	GoodResponse	0	0.188	n/a	1	31	ButtonPress	AvoidedLoss	True
304.521	0.51	Lose2	0.5938	n/a	Yes	2.825	n/a	n/a	GoodResponse	0	n/a	n/a	1	31	Blank	AvoidedLoss	True
305.023	1.45	Lose2	0.5938	n/a	Yes	2.825	n/a	5.0	GoodResponse	0	0.024	304.047	1	31	Feedback	AvoidedLoss	True
306.477	2.825	Lose2	0.5938	n/a	Yes	2.825	n/a	n/a	GoodResponse	0	0.0	n/a	1	31	ISIslide	AvoidedLoss	True
309.319	0.25	Lose2	0.6061	0.0	Yes	2.631	0.019	n/a	GoodResponse	0	n/a	n/a	1	32	Cue	AvoidedLoss	True
309.57	4.15	Lose2	0.6061	0.0	Yes	2.631	0.001	n/a	GoodResponse	0	n/a	n/a	1	32	Fixation	AvoidedLoss	True
313.716	0.2	Lose2	0.6061	0.003	Yes	2.631	-0.003	2.0	GoodResponse	0	0.199	312.915	1	32	Target	AvoidedLoss	True
313.915	0.3	Lose2	0.6061	0.003	Yes	2.631	-0.003	2.0	GoodResponse	0	0.199	n/a	1	32	ButtonPress	AvoidedLoss	True
313.916	0.5	Lose2	0.6061	n/a	Yes	2.631	n/a	n/a	GoodResponse	0	n/a	n/a	1	32	Blank	AvoidedLoss	True
314.418	1.45	Lose2	0.6061	n/a	Yes	2.631	n/a	5.0	GoodResponse	0	0.044	313.462	1	32	Feedback	AvoidedLoss	True
315.872	2.631	Lose2	0.6061	n/a	Yes	2.631	n/a	n/a	GoodResponse	0	0.0	n/a	1	32	ISIslide	AvoidedLoss	True
318.53	0.25	Win2	0.5882000000000001	0.0	No	2.67	0.03	n/a	NoResponse	0	n/a	n/a	1	33	Cue	MissedWin	True
318.781	4.0	Win2	0.5882000000000001	0.0	No	2.67	0.001	n/a	NoResponse	0	n/a	n/a	1	33	Fixation	MissedWin	True
322.776	0.21	Win2	0.5882000000000001	0.004	No	2.67	-0.004	2.0	NoResponse	0	0.226	322.002	1	33	Target	MissedWin	True
322.994	0.49	Win2	0.5882000000000001	n/a	No	2.67	n/a	n/a	NoResponse	0	n/a	n/a	1	33	Blank	MissedWin	True
323.002	0.3	Win2	0.5882000000000001	0.004	No	2.67	-0.004	2.0	NoResponse	0	0.226	n/a	1	33	ButtonPress	MissedWin	True
323.478	1.45	Win2	0.5882000000000001	n/a	No	2.67	n/a	5.0	NoResponse	0	0.008	322.486	1	33	Feedback	MissedWin	True
324.933	2.67	Win2	0.5882000000000001	n/a	No	2.67	n/a	n/a	NoResponse	0	0.0	n/a	1	33	ISIslide	MissedWin	True
327.624	0.25	Lose2	0.5714	0.0	No	2.626	0.024	n/a	NoResponse	-1	n/a	n/a	0	34	Cue	Loss	True
327.875	4.05	Lose2	0.5714	0.0	No	2.626	0.001	n/a	NoResponse	-1	n/a	n/a	0	34	Fixation	Loss	True
331.92	0.22	Lose2	0.5714	0.004	No	2.626	-0.004	2.0	NoResponse	-1	0.243	331.163	0	34	Target	Loss	True
332.154	0.48	Lose2	0.5714	n/a	No	2.626	n/a	n/a	NoResponse	-1	n/a	n/a	0	34	Blank	Loss	True
332.163	0.3	Lose2	0.5714	0.004	No	2.626	-0.004	2.0	NoResponse	-1	0.243	n/a	0	34	ButtonPress	Loss	True
332.622	1.45	Lose2	0.5714	n/a	No	2.626	n/a	5.0	NoResponse	-1	0.035	331.657	0	34	Feedback	Loss	True
334.077	2.626	Lose2	0.5714	n/a	No	2.626	n/a	n/a	NoResponse	-1	0.0	n/a	0	34	ISIslide	Loss	True
336.718	0.25	Lose2	0.5832999999999999	0.0	Yes	2.682	0.018	n/a	GoodResponse	0	n/a	n/a	0	35	Cue	AvoidedLoss	True
336.969	4.0	Lose2	0.5832999999999999	0.0	Yes	2.682	0.001	n/a	GoodResponse	0	n/a	n/a	0	35	Fixation	AvoidedLoss	True
340.964	0.23	Lose2	0.5832999999999999	0.004	Yes	2.682	-0.004	2.0	GoodResponse	0	0.217	340.181	0	35	Target	AvoidedLoss	True
341.181	0.3	Lose2	0.5832999999999999	0.004	Yes	2.682	-0.004	2.0	GoodResponse	0	0.217	n/a	0	35	ButtonPress	AvoidedLoss	True
341.198	0.47	Lose2	0.5832999999999999	n/a	Yes	2.682	n/a	n/a	GoodResponse	0	n/a	n/a	0	35	Blank	AvoidedLoss	True
341.666	1.45	Lose2	0.5832999999999999	n/a	Yes	2.682	n/a	5.0	GoodResponse	0	0.015	340.681	0	35	Feedback	AvoidedLoss	True
343.121	2.682	Lose2	0.5832999999999999	n/a	Yes	2.682	n/a	n/a	GoodResponse	0	0.0	n/a	0	35	ISIslide	AvoidedLoss	True
345.829	0.25	Control	0.5946	0.0	Yes	2.671	0.029	n/a	GoodResponse	0	n/a	n/a	0	36	Cue	Neutral	True
346.079	4.0	Control	0.5946	0.001	Yes	2.671	0.0	n/a	GoodResponse	0	n/a	n/a	0	36	Fixation	Neutral	True
350.075	0.24	Control	0.5946	0.004	Yes	2.671	-0.004	2.0	GoodResponse	0	0.235	349.31	0	36	Target	Neutral	True
350.31	0.3	Control	0.5946	0.004	Yes	2.671	-0.004	2.0	GoodResponse	0	0.235	n/a	0	36	ButtonPress	Neutral	True
350.326	0.46	Control	0.5946	n/a	Yes	2.671	n/a	n/a	GoodResponse	0	n/a	n/a	0	36	Blank	Neutral	True
350.777	1.45	Control	0.5946	n/a	Yes	2.671	n/a	5.0	GoodResponse	0	0.026	349.803	0	36	Feedback	Neutral	True
352.231	2.671	Control	0.5946	n/a	Yes	2.671	n/a	n/a	GoodResponse	0	0.0	n/a	0	36	ISIslide	Neutral	True
354.923	0.25	Win2	0.6053000000000001	0.0	Yes	2.877	0.023	n/a	GoodResponse	1	n/a	n/a	1	37	Cue	Win	True
355.173	4.0	Win2	0.6053000000000001	0.0	Yes	2.877	0.0	n/a	GoodResponse	1	n/a	n/a	1	37	Fixation	Win	True
359.169	0.25	Win2	0.6053000000000001	0.004	Yes	2.877	-0.004	2.0	GoodResponse	1	0.2	358.369	1	37	Target	Win	True
359.369	0.3	Win2	0.6053000000000001	0.004	Yes	2.877	-0.004	2.0	GoodResponse	1	0.2	n/a	1	37	ButtonPress	Win	True
359.419	0.45	Win2	0.6053000000000001	n/a	Yes	2.877	n/a	n/a	GoodResponse	1	n/a	n/a	1	37	Blank	Win	True
359.871	1.45	Win2	0.6053000000000001	n/a	Yes	2.877	n/a	5.0	GoodResponse	1	0.007	358.878	1	37	Feedback	Win	True
361.325	2.877	Win2	0.6053000000000001	n/a	Yes	2.877	n/a	n/a	GoodResponse	1	0.0	n/a	1	37	ISIslide	Win	True
364.217	0.25	Lose2	0.6154	0.0	Yes	2.833	0.017	n/a	GoodResponse	0	n/a	n/a	1	38	Cue	AvoidedLoss	True
364.468	3.95	Lose2	0.6154	0.0	Yes	2.833	0.001	n/a	GoodResponse	0	n/a	n/a	1	38	Fixation	AvoidedLoss	True
368.413	0.26	Lose2	0.6154	0.004	Yes	2.833	-0.004	2.0	GoodResponse	0	0.23	367.643	1	38	Target	AvoidedLoss	True
368.643	0.3	Lose2	0.6154	0.004	Yes	2.833	-0.004	2.0	GoodResponse	0	0.23	n/a	1	38	ButtonPress	AvoidedLoss	True
368.681	0.44	Lose2	0.6154	n/a	Yes	2.833	n/a	n/a	GoodResponse	0	n/a	n/a	1	38	Blank	AvoidedLoss	True
369.115	1.45	Lose2	0.6154	n/a	Yes	2.833	n/a	5.0	GoodResponse	0	0.03	368.145	1	38	Feedback	AvoidedLoss	True
370.57	2.833	Lose2	0.6154	n/a	Yes	2.833	n/a	n/a	GoodResponse	0	0.0	n/a	1	38	ISIslide	AvoidedLoss	True
373.428	0.25	Win2	0.6	0.0	No	2.972	0.028	n/a	NoResponse	0	n/a	n/a	1	39	Cue	MissedWin	True
373.679	4.1	Win2	0.6	0.0	No	2.972	0.001	n/a	NoResponse	0	n/a	n/a	1	39	Fixation	MissedWin	True
377.775	0.27	Win2	0.6	0.003	No	2.972	-0.003	2.0	NoResponse	0	0.337	377.112	1	39	Target	MissedWin	True
378.059	0.43	Win2	0.6	n/a	No	2.972	n/a	n/a	NoResponse	0	n/a	n/a	1	39	Blank	MissedWin	True
378.112	0.3	Win2	0.6	0.003	No	2.972	-0.003	2.0	NoResponse	0	0.337	n/a	1	39	ButtonPress	MissedWin	True
378.477	1.45	Win2	0.6	n/a	No	2.972	n/a	5.0	NoResponse	0	0.033	377.51	1	39	Feedback	MissedWin	True
379.931	2.972	Win2	0.6	n/a	No	2.972	n/a	n/a	NoResponse	0	0.0	n/a	1	39	ISIslide	MissedWin	True
382.923	0.25	Win2	0.6098	0.0	Yes	2.727	0.023	n/a	GoodResponse	1	n/a	n/a	2	40	Cue	Win	True
383.174	3.95	Win2	0.6098	0.0	Yes	2.727	0.001	n/a	GoodResponse	1	n/a	n/a	2	40	Fixation	Win	True
387.119	0.28	Win2	0.6098	0.004	Yes	2.727	-0.004	2.0	GoodResponse	1	0.211	386.33	2	40	Target	Win	True
387.33	0.3	Win2	0.6098	0.004	Yes	2.727	-0.004	2.0	GoodResponse	1	0.211	n/a	2	40	ButtonPress	Win	True
387.403	0.42	Win2	0.6098	n/a	Yes	2.727	n/a	n/a	GoodResponse	1	n/a	n/a	2	40	Blank	Win	True
387.821	1.45	Win2	0.6098	n/a	Yes	2.727	n/a	5.0	GoodResponse	1	0.007	386.828	2	40	Feedback	Win	True
389.276	2.727	Win2	0.6098	n/a	Yes	2.727	n/a	n/a	GoodResponse	1	0.0	n/a	2	40	ISIslide	Win	True
392.017	0.25	Win2	0.619	0.0	Yes	2.783	0.017	n/a	GoodResponse	1	n/a	n/a	3	41	Cue	Win	True
392.268	3.9	Win2	0.619	0.0	Yes	2.783	0.001	n/a	GoodResponse	1	n/a	n/a	3	41	Fixation	Win	True
396.163	0.29	Win2	0.619	0.004	Yes	2.783	-0.004	2.0	GoodResponse	1	0.209	395.372	3	41	Target	Win	True
396.372	0.3	Win2	0.619	0.004	Yes	2.783	-0.004	2.0	GoodResponse	1	0.209	n/a	3	41	ButtonPress	Win	True
396.464	0.41	Win2	0.619	n/a	Yes	2.783	n/a	n/a	GoodResponse	1	n/a	n/a	3	41	Blank	Win	True
396.865	1.45	Win2	0.619	n/a	Yes	2.783	n/a	5.0	GoodResponse	1	0.035	395.9	3	41	Feedback	Win	True
398.32	2.783	Win2	0.619	n/a	Yes	2.783	n/a	n/a	GoodResponse	1	0.0	n/a	3	41	ISIslide	Win	True
401.128	0.25	Control	0.6279	0.0	Yes	2.922	0.028	n/a	GoodResponse	0	n/a	n/a	3	42	Cue	Neutral	True
401.379	3.85	Control	0.6279	0.0	Yes	2.922	0.001	n/a	GoodResponse	0	n/a	n/a	3	42	Fixation	Neutral	True
405.224	0.3	Control	0.6279	0.004	Yes	2.922	-0.004	2.0	GoodResponse	0	0.229	404.453	3	42	Target	Neutral	True
405.453	0.3	Control	0.6279	0.004	Yes	2.922	-0.004	2.0	GoodResponse	0	0.229	n/a	3	42	ButtonPress	Neutral	True
405.524	0.4	Control	0.6279	n/a	Yes	2.922	n/a	n/a	GoodResponse	0	n/a	n/a	3	42	Blank	Neutral	True
405.926	1.45	Control	0.6279	n/a	Yes	2.922	n/a	5.0	GoodResponse	0	0.048	404.974	3	42	Feedback	Neutral	True
407.38	2.922	Control	0.6279	n/a	Yes	2.922	n/a	n/a	GoodResponse	0	0.0	n/a	3	42	ISIslide	Neutral	True
410.322	0.25	Win2	0.6136	0.0	No	3.178	0.022	n/a	NoResponse	0	n/a	n/a	3	43	Cue	MissedWin	True
410.573	4.0	Win2	0.6136	0.0	No	3.178	0.001	2.0	NoResponse	0	3.914	413.487	3	43	Fixation	MissedWin	True
414.487	0.3	Win2	0.6136	0.0	No	3.178	0.001	2.0	NoResponse	0	3.914	n/a	3	43	ButtonPress	MissedWin	True
414.568	0.31	Win2	0.6136	0.004	No	3.178	-0.004	n/a	NoResponse	0	n/a	n/a	3	43	Target	MissedWin	True
414.886	0.39	Win2	0.6136	n/a	No	3.178	n/a	n/a	NoResponse	0	n/a	n/a	3	43	Blank	MissedWin	True
415.27	1.45	Win2	0.6136	n/a	No	3.178	n/a	5.0	NoResponse	0	0.021	414.291	3	43	Feedback	MissedWin	True
416.725	3.178	Win2	0.6136	n/a	No	3.178	n/a	n/a	NoResponse	0	0.0	n/a	3	43	ISIslide	MissedWin	True
419.918	0.25	Win2	0.6222	0.0	Yes	2.982	0.018	n/a	GoodResponse	1	n/a	n/a	4	44	Cue	Win	True
420.168	4.0	Win2	0.6222	0.0	Yes	2.982	0.0	n/a	GoodResponse	1	n/a	n/a	4	44	Fixation	Win	True
424.164	0.32	Win2	0.6222	0.004	Yes	2.982	-0.004	2.0	GoodResponse	1	0.252	423.416	4	44	Target	Win	True
424.416	0.3	Win2	0.6222	0.004	Yes	2.982	-0.004	2.0	GoodResponse	1	0.252	n/a	4	44	ButtonPress	Win	True
424.498	0.38	Win2	0.6222	n/a	Yes	2.982	n/a	n/a	GoodResponse	1	n/a	n/a	4	44	Blank	Win	True
424.866	1.45	Win2	0.6222	n/a	Yes	2.982	n/a	5.0	GoodResponse	1	0.035	423.901	4	44	Feedback	Win	True
426.32	2.982	Win2	0.6222	n/a	Yes	2.982	n/a	n/a	GoodResponse	1	0.0	n/a	4	44	ISIslide	Win	True
429.329	0.25	Control	0.6304	0.0	Yes	2.871	0.029	n/a	GoodResponse	0	n/a	n/a	4	45	Cue	Neutral	True
429.58	4.1	Control	0.6304	0.0	Yes	2.871	0.001	n/a	GoodResponse	0	n/a	n/a	4	45	Fixation	Neutral	True
433.676	0.33	Control	0.6304	0.003	Yes	2.871	-0.003	2.0	GoodResponse	0	0.224	432.9	4	45	Target	Neutral	True
433.9	0.3	Control	0.6304	0.003	Yes	2.871	-0.003	2.0	GoodResponse	0	0.224	n/a	4	45	ButtonPress	Neutral	True
434.01	0.37	Control	0.6304	n/a	Yes	2.871	n/a	n/a	GoodResponse	0	n/a	n/a	4	45	Blank	Neutral	True
434.378	1.45	Control	0.6304	n/a	Yes	2.871	n/a	5.0	GoodResponse	0	0.035	433.413	4	45	Feedback	Neutral	True
435.832	2.871	Control	0.6304	n/a	Yes	2.871	n/a	n/a	GoodResponse	0	0.0	n/a	4	45	ISIslide	Neutral	True
438.724	0.25	Lose2	0.6383	0.0	Yes	3.376	0.024	n/a	GoodResponse	0	n/a	n/a	4	46	Cue	AvoidedLoss	True
438.975	4.0	Lose2	0.6383	0.0	Yes	3.376	0.001	n/a	GoodResponse	0	n/a	n/a	4	46	Fixation	AvoidedLoss	True
442.97	0.34	Lose2	0.6383	0.004	Yes	3.376	-0.004	2.0	GoodResponse	0	0.209	442.179	4	46	Target	AvoidedLoss	True
443.179	0.3	Lose2	0.6383	0.004	Yes	3.376	-0.004	2.0	GoodResponse	0	0.209	n/a	4	46	ButtonPress	AvoidedLoss	True
443.321	0.36	Lose2	0.6383	n/a	Yes	3.376	n/a	n/a	GoodResponse	0	n/a	n/a	4	46	Blank	AvoidedLoss	True
443.672	1.45	Lose2	0.6383	n/a	Yes	3.376	n/a	5.0	GoodResponse	0	0.009	442.681	4	46	Feedback	AvoidedLoss	True
445.127	3.376	Lose2	0.6383	n/a	Yes	3.376	n/a	n/a	GoodResponse	0	0.0	n/a	4	46	ISIslide	AvoidedLoss	True
448.52	0.25	Lose2	0.6457999999999999	0.0	Yes	2.68	0.02	n/a	GoodResponse	0	n/a	n/a	4	47	Cue	AvoidedLoss	True
448.771	4.0	Lose2	0.6457999999999999	0.0	Yes	2.68	0.001	n/a	GoodResponse	0	n/a	n/a	4	47	Fixation	AvoidedLoss	True
452.766	0.35	Lose2	0.6457999999999999	0.004	Yes	2.68	-0.004	2.0	GoodResponse	0	0.223	451.989	4	47	Target	AvoidedLoss	True
452.989	0.3	Lose2	0.6457999999999999	0.004	Yes	2.68	-0.004	2.0	GoodResponse	0	0.223	n/a	4	47	ButtonPress	AvoidedLoss	True
453.117	0.35	Lose2	0.6457999999999999	n/a	Yes	2.68	n/a	n/a	GoodResponse	0	n/a	n/a	4	47	Blank	AvoidedLoss	True
453.468	1.45	Lose2	0.6457999999999999	n/a	Yes	2.68	n/a	5.0	GoodResponse	0	0.017	452.485	4	47	Feedback	AvoidedLoss	True
454.923	2.68	Lose2	0.6457999999999999	n/a	Yes	2.68	n/a	n/a	GoodResponse	0	0.0	n/a	4	47	ISIslide	AvoidedLoss	True
457.631	0.25	Lose2	0.6327	0.0	No	3.019	0.031	n/a	NoResponse	-1	n/a	n/a	3	48	Cue	Loss	True
457.882	3.95	Lose2	0.6327	0.0	No	3.019	0.001	n/a	NoResponse	-1	n/a	n/a	3	48	Fixation	Loss	True
461.827	0.36	Lose2	0.6327	0.004	No	3.019	-0.004	2.0	NoResponse	-1	0.42	461.247	3	48	Target	Loss	True
462.194	0.34	Lose2	0.6327	n/a	No	3.019	n/a	n/a	NoResponse	-1	n/a	n/a	3	48	Blank	Loss	True
462.247	0.3	Lose2	0.6327	0.004	No	3.019	-0.004	2.0	NoResponse	-1	0.42	n/a	3	48	ButtonPress	Loss	True
462.529	1.45	Lose2	0.6327	n/a	No	3.019	n/a	5.0	NoResponse	-1	0.03	461.559	3	48	Feedback	Loss	True
463.983	3.019	Lose2	0.6327	n/a	No	3.019	n/a	n/a	NoResponse	-1	0.0	n/a	3	48	ISIslide	Loss	True
467.026	0.25	Control	0.64	0.0	Yes	2.874	0.026	n/a	GoodResponse	0	n/a	n/a	3	49	Cue	Neutral	True
467.276	4.0	Control	0.64	0.0	Yes	2.874	0.0	n/a	GoodResponse	0	n/a	n/a	3	49	Fixation	Neutral	True
471.272	0.37	Control	0.64	0.004	Yes	2.874	-0.004	2.0	GoodResponse	0	0.343	470.615	3	49	Target	Neutral	True
471.615	0.3	Control	0.64	0.004	Yes	2.874	-0.004	2.0	GoodResponse	0	0.343	n/a	3	49	ButtonPress	Neutral	True
471.656	0.33	Control	0.64	n/a	Yes	2.874	n/a	n/a	GoodResponse	0	n/a	n/a	3	49	Blank	Neutral	True
471.974	1.45	Control	0.64	n/a	Yes	2.874	n/a	5.0	GoodResponse	0	0.048	471.022	3	49	Feedback	Neutral	True
473.428	2.874	Control	0.64	n/a	Yes	2.874	n/a	n/a	GoodResponse	0	0.0	n/a	3	49	ISIslide	Neutral	True
476.32	0.25	Control	0.6470999999999999	0.0	Yes	2.78	0.02	n/a	GoodResponse	0	n/a	n/a	3	50	Cue	Neutral	True
476.571	4.0	Control	0.6470999999999999	0.0	Yes	2.78	0.001	n/a	GoodResponse	0	n/a	n/a	3	50	Fixation	Neutral	True
480.566	0.38	Control	0.6470999999999999	0.004	Yes	2.78	-0.004	2.0	GoodResponse	0	0.211	479.777	3	50	Target	Neutral	True
480.777	0.3	Control	0.6470999999999999	0.004	Yes	2.78	-0.004	2.0	GoodResponse	0	0.211	n/a	3	50	ButtonPress	Neutral	True
480.951	0.32	Control	0.6470999999999999	n/a	Yes	2.78	n/a	n/a	GoodResponse	0	n/a	n/a	3	50	Blank	Neutral	True
481.268	1.45	Control	0.6470999999999999	n/a	Yes	2.78	n/a	5.0	GoodResponse	0	0.023	480.291	3	50	Feedback	Neutral	True
482.723	2.78	Control	0.6470999999999999	n/a	Yes	2.78	n/a	n/a	GoodResponse	0	0.0	n/a	3	50	ISIslide	Neutral	True
485.514	0.25	Control	0.6537999999999999	0.001	Yes	2.736	0.014	n/a	GoodResponse	0	n/a	n/a	3	51	Cue	Neutral	False
485.765	3.95	Control	0.6537999999999999	0.0	Yes	2.736	0.001	2.0	GoodResponse	0	3.653	488.418	3	51	Fixation	Neutral	False
489.418	0.3	Control	0.6537999999999999	0.0	Yes	2.736	0.001	2.0	GoodResponse	0	3.653	n/a	3	51	ButtonPress	Neutral	False
489.71	0.39	Control	0.6537999999999999	0.004	Yes	2.736	-0.004	2.0	GoodResponse	0	0.188	488.898	3	51	Target	Neutral	False
489.898	0.3	Control	0.6537999999999999	0.004	Yes	2.736	-0.004	2.0	GoodResponse	0	0.188	n/a	3	51	ButtonPress	Neutral	False
490.112	0.31	Control	0.6537999999999999	n/a	Yes	2.736	n/a	n/a	GoodResponse	0	n/a	n/a	3	51	Blank	Neutral	False
490.412	1.45	Control	0.6537999999999999	n/a	Yes	2.736	n/a	5.0	GoodResponse	0	0.001	489.413	3	51	Feedback	Neutral	False
491.867	2.736	Control	0.6537999999999999	n/a	Yes	2.736	n/a	n/a	GoodResponse	0	0.0	n/a	3	51	ISIslide	Neutral	False
494.625	0.25	Control	0.6604000000000001	0.0	Yes	2.625	0.025	n/a	GoodResponse	0	n/a	n/a	3	52	Cue	Neutral	True
494.876	4.05	Control	0.6604000000000001	0.0	Yes	2.625	0.001	n/a	GoodResponse	0	n/a	n/a	3	52	Fixation	Neutral	True
498.921	0.4	Control	0.6604000000000001	0.004	Yes	2.625	-0.004	2.0	GoodResponse	0	0.179	498.1	3	52	Target	Neutral	True
499.1	0.3	Control	0.6604000000000001	0.004	Yes	2.625	-0.004	2.0	GoodResponse	0	0.179	n/a	3	52	ButtonPress	Neutral	True
499.323	0.3	Control	0.6604000000000001	n/a	Yes	2.625	n/a	n/a	GoodResponse	0	n/a	n/a	3	52	Blank	Neutral	True
499.623	1.45	Control	0.6604000000000001	n/a	Yes	2.625	n/a	5.0	GoodResponse	0	0.009	498.632	3	52	Feedback	Neutral	True
501.078	2.625	Control	0.6604000000000001	n/a	Yes	2.625	n/a	n/a	GoodResponse	0	0.0	n/a	3	52	ISIslide	Neutral	True
503.719	0.25	Win2	0.6667000000000001	0.0	Yes	2.931	0.019	n/a	GoodResponse	1	n/a	n/a	4	53	Cue	Win	True
503.97	4.05	Win2	0.6667000000000001	0.0	Yes	2.931	0.001	n/a	GoodResponse	1	n/a	n/a	4	53	Fixation	Win	True
508.015	0.4	Win2	0.6667000000000001	0.004	Yes	2.931	-0.004	2.0	GoodResponse	1	0.204	507.219	4	53	Target	Win	True
508.219	0.3	Win2	0.6667000000000001	0.004	Yes	2.931	-0.004	2.0	GoodResponse	1	0.204	n/a	4	53	ButtonPress	Win	True
508.416	0.3	Win2	0.6667000000000001	n/a	Yes	2.931	n/a	n/a	GoodResponse	1	n/a	n/a	4	53	Blank	Win	True
508.717	1.45	Win2	0.6667000000000001	n/a	Yes	2.931	n/a	5.0	GoodResponse	1	0.037	507.754	4	53	Feedback	Win	True
510.172	2.931	Win2	0.6667000000000001	n/a	Yes	2.931	n/a	n/a	GoodResponse	1	0.0	n/a	4	53	ISIslide	Win	True
513.131	0.25	Win2	0.6727	0.0	Yes	2.719	0.031	n/a	GoodResponse	1	n/a	n/a	5	54	Cue	Win	True
513.381	3.95	Win2	0.6727	0.0	Yes	2.719	0.0	n/a	GoodResponse	1	n/a	n/a	5	54	Fixation	Win	True
517.343	0.39	Win2	0.6727	0.0	Yes	2.719	0.012	2.0	GoodResponse	1	0.215	516.558	5	54	Target	Win	True
517.558	0.3	Win2	0.6727	0.0	Yes	2.719	0.012	2.0	GoodResponse	1	0.215	n/a	5	54	ButtonPress	Win	True
517.728	0.31	Win2	0.6727	n/a	Yes	2.719	n/a	n/a	GoodResponse	1	n/a	n/a	5	54	Blank	Win	True
518.029	1.45	Win2	0.6727	n/a	Yes	2.719	n/a	5.0	GoodResponse	1	0.043	517.072	5	54	Feedback	Win	True
519.483	2.719	Win2	0.6727	n/a	Yes	2.719	n/a	n/a	GoodResponse	1	0.0	n/a	5	54	ISIslide	Win	True
522.225	0.25	Control	0.6607	0.0	No	3.025	0.025	n/a	NoResponse	0	n/a	n/a	5	55	Cue	Neutral	True
522.475	3.95	Control	0.6607	0.0	No	3.025	0.0	n/a	NoResponse	0	n/a	n/a	5	55	Fixation	Neutral	True
526.437	0.38	Control	0.6607	0.0	No	3.025	0.012	2.0	NoResponse	0	0.393	525.83	5	55	Target	Neutral	True
526.805	0.32	Control	0.6607	n/a	No	3.025	n/a	n/a	NoResponse	0	n/a	n/a	5	55	Blank	Neutral	True
526.83	0.3	Control	0.6607	0.0	No	3.025	0.012	2.0	NoResponse	0	0.393	n/a	5	55	ButtonPress	Neutral	True
527.123	1.45	Control	0.6607	n/a	No	3.025	n/a	5.0	NoResponse	0	0.021	526.144	5	55	Feedback	Neutral	True
528.577	3.025	Control	0.6607	n/a	No	3.025	n/a	n/a	NoResponse	0	0.0	n/a	5	55	ISIslide	Neutral	True
531.619	0.25	Control	0.6491	0.0	No	2.831	0.019	n/a	NoResponse	0	n/a	n/a	5	56	Cue	Neutral	True
531.87	3.95	Control	0.6491	0.0	No	2.831	0.001	n/a	NoResponse	0	n/a	n/a	5	56	Fixation	Neutral	True
535.815	0.38	Control	0.6491	0.004	No	2.831	-0.004	2.0	NoResponse	0	0.442	535.257	5	56	Target	Neutral	True
536.2	0.32	Control	0.6491	n/a	No	2.831	n/a	n/a	NoResponse	0	n/a	n/a	5	56	Blank	Neutral	True
536.257	0.3	Control	0.6491	0.004	No	2.831	-0.004	2.0	NoResponse	0	0.442	n/a	5	56	ButtonPress	Neutral	True
536.517	1.45	Control	0.6491	n/a	No	2.831	n/a	5.0	NoResponse	0	0.041	535.558	5	56	Feedback	Neutral	True
537.972	2.831	Control	0.6491	n/a	No	2.831	n/a	n/a	NoResponse	0	0.0	n/a	5	56	ISIslide	Neutral	True
540.83	0.25	Control	0.6552	0.0	Yes	3.47	0.03	n/a	GoodResponse	0	n/a	n/a	5	57	Cue	Neutral	True
541.081	4.0	Control	0.6552	0.0	Yes	3.47	0.001	n/a	GoodResponse	0	n/a	n/a	5	57	Fixation	Neutral	True
545.076	0.39	Control	0.6552	0.004	Yes	3.47	-0.004	2.0	GoodResponse	0	0.297	544.373	5	57	Target	Neutral	True
545.373	0.3	Control	0.6552	0.004	Yes	3.47	-0.004	2.0	GoodResponse	0	0.297	n/a	5	57	ButtonPress	Neutral	True
545.478	0.31	Control	0.6552	n/a	Yes	3.47	n/a	n/a	GoodResponse	0	n/a	n/a	5	57	Blank	Neutral	True
545.779	1.45	Control	0.6552	n/a	Yes	3.47	n/a	5.0	GoodResponse	0	0.048	544.827	5	57	Feedback	Neutral	True
547.233	3.47	Control	0.6552	n/a	Yes	3.47	n/a	n/a	GoodResponse	0	0.0	n/a	5	57	ISIslide	Neutral	True
550.727	0.25	Win2	0.6609999999999999	0.0	Yes	2.723	0.027	n/a	GoodResponse	1	n/a	n/a	6	58	Cue	Win	True
550.977	4.05	Win2	0.6609999999999999	0.001	Yes	2.723	0.0	n/a	GoodResponse	1	n/a	n/a	6	58	Fixation	Win	True
555.023	0.39	Win2	0.6609999999999999	0.004	Yes	2.723	-0.004	2.0	GoodResponse	1	0.197	554.22	6	58	Target	Win	True
555.22	0.3	Win2	0.6609999999999999	0.004	Yes	2.723	-0.004	2.0	GoodResponse	1	0.197	n/a	6	58	ButtonPress	Win	True
555.424	0.31	Win2	0.6609999999999999	n/a	Yes	2.723	n/a	n/a	GoodResponse	1	n/a	n/a	6	58	Blank	Win	True
555.725	1.45	Win2	0.6609999999999999	n/a	Yes	2.723	n/a	5.0	GoodResponse	1	0.007	554.732	6	58	Feedback	Win	True
557.179	2.723	Win2	0.6609999999999999	n/a	Yes	2.723	n/a	n/a	GoodResponse	1	0.0	n/a	6	58	ISIslide	Win	True
559.921	0.25	Lose2	0.6667000000000001	0.0	Yes	2.679	0.021	n/a	GoodResponse	0	n/a	n/a	6	59	Cue	AvoidedLoss	True
560.172	4.0	Lose2	0.6667000000000001	0.0	Yes	2.679	0.001	n/a	GoodResponse	0	n/a	n/a	6	59	Fixation	AvoidedLoss	True
564.167	0.39	Lose2	0.6667000000000001	0.004	Yes	2.679	-0.004	2.0	GoodResponse	0	0.18	563.347	6	59	Target	AvoidedLoss	True
564.347	0.3	Lose2	0.6667000000000001	0.004	Yes	2.679	-0.004	2.0	GoodResponse	0	0.18	n/a	6	59	ButtonPress	AvoidedLoss	True
564.568	0.31	Lose2	0.6667000000000001	n/a	Yes	2.679	n/a	n/a	GoodResponse	0	n/a	n/a	6	59	Blank	AvoidedLoss	True
564.869	1.45	Lose2	0.6667000000000001	n/a	Yes	2.679	n/a	5.0	GoodResponse	0	0.031	563.9	6	59	Feedback	AvoidedLoss	True
566.323	2.679	Lose2	0.6667000000000001	n/a	Yes	2.679	n/a	n/a	GoodResponse	0	0.0	n/a	6	59	ISIslide	AvoidedLoss	True
569.015	0.25	Control	0.6720999999999999	0.0	Yes	2.685	0.015	n/a	GoodResponse	0	n/a	n/a	6	60	Cue	Neutral	True
569.266	4.0	Control	0.6720999999999999	0.0	Yes	2.685	0.001	n/a	GoodResponse	0	n/a	n/a	6	60	Fixation	Neutral	True
573.261	0.38	Control	0.6720999999999999	0.004	Yes	2.685	-0.004	2.0	GoodResponse	0	0.212	572.473	6	60	Target	Neutral	True
573.473	0.3	Control	0.6720999999999999	0.004	Yes	2.685	-0.004	2.0	GoodResponse	0	0.212	n/a	6	60	ButtonPress	Neutral	True
573.645	0.32	Control	0.6720999999999999	n/a	Yes	2.685	n/a	n/a	GoodResponse	0	n/a	n/a	6	60	Blank	Neutral	True
573.963	1.45	Control	0.6720999999999999	n/a	Yes	2.685	n/a	5.0	GoodResponse	0	0.011	572.974	6	60	Feedback	Neutral	True
575.417	2.685	Control	0.6720999999999999	n/a	Yes	2.685	n/a	n/a	GoodResponse	0	0.0	n/a	6	60	ISIslide	Neutral	True
578.126	0.25	Lose2	0.6774	0.0	Yes	2.974	0.026	n/a	GoodResponse	0	n/a	n/a	6	61	Cue	AvoidedLoss	True
578.376	4.0	Lose2	0.6774	0.0	Yes	2.974	0.0	n/a	GoodResponse	0	n/a	n/a	6	61	Fixation	AvoidedLoss	True
582.372	0.37	Lose2	0.6774	0.004	Yes	2.974	-0.004	2.0	GoodResponse	0	0.207	581.579	6	61	Target	AvoidedLoss	True
582.579	0.3	Lose2	0.6774	0.004	Yes	2.974	-0.004	2.0	GoodResponse	0	0.207	n/a	6	61	ButtonPress	AvoidedLoss	True
582.756	0.33	Lose2	0.6774	n/a	Yes	2.974	n/a	n/a	GoodResponse	0	n/a	n/a	6	61	Blank	AvoidedLoss	True
583.074	1.45	Lose2	0.6774	n/a	Yes	2.974	n/a	5.0	GoodResponse	0	0.022	582.096	6	61	Feedback	AvoidedLoss	True
584.528	2.974	Lose2	0.6774	n/a	Yes	2.974	n/a	n/a	GoodResponse	0	0.0	n/a	6	61	ISIslide	AvoidedLoss	True
587.52	0.25	Lose2	0.6825	0.0	Yes	2.88	0.02	n/a	GoodResponse	0	n/a	n/a	6	62	Cue	AvoidedLoss	True
587.771	3.9	Lose2	0.6825	0.0	Yes	2.88	0.001	n/a	GoodResponse	0	n/a	n/a	6	62	Fixation	AvoidedLoss	True
591.666	0.36	Lose2	0.6825	0.004	Yes	2.88	-0.004	2.0	GoodResponse	0	0.212	590.878	6	62	Target	AvoidedLoss	True
591.878	0.3	Lose2	0.6825	0.004	Yes	2.88	-0.004	2.0	GoodResponse	0	0.212	n/a	6	62	ButtonPress	AvoidedLoss	True
592.034	0.34	Lose2	0.6825	n/a	Yes	2.88	n/a	n/a	GoodResponse	0	n/a	n/a	6	62	Blank	AvoidedLoss	True
592.368	1.45	Lose2	0.6825	n/a	Yes	2.88	n/a	5.0	GoodResponse	0	0.045	591.413	6	62	Feedback	AvoidedLoss	True
593.823	2.88	Lose2	0.6825	n/a	Yes	2.88	n/a	n/a	GoodResponse	0	0.0	n/a	6	62	ISIslide	AvoidedLoss	True
596.731	0.25	Lose2	0.6875	0.0	Yes	2.619	0.031	n/a	GoodResponse	0	n/a	n/a	6	63	Cue	AvoidedLoss	True
596.982	4.05	Lose2	0.6875	0.0	Yes	2.619	0.001	n/a	GoodResponse	0	n/a	n/a	6	63	Fixation	AvoidedLoss	True
601.028	0.35	Lose2	0.6875	0.003	Yes	2.619	-0.003	2.0	GoodResponse	0	0.192	600.22	6	63	Target	AvoidedLoss	True
601.22	0.3	Lose2	0.6875	0.003	Yes	2.619	-0.003	2.0	GoodResponse	0	0.192	n/a	6	63	ButtonPress	AvoidedLoss	True
601.379	0.35	Lose2	0.6875	n/a	Yes	2.619	n/a	n/a	GoodResponse	0	n/a	n/a	6	63	Blank	AvoidedLoss	True
601.73	1.45	Lose2	0.6875	n/a	Yes	2.619	n/a	5.0	GoodResponse	0	0.048	600.778	6	63	Feedback	AvoidedLoss	True
603.184	2.619	Lose2	0.6875	n/a	Yes	2.619	n/a	n/a	GoodResponse	0	0.0	n/a	6	63	ISIslide	AvoidedLoss	True
605.825	0.25	Win2	0.6923	0.0	Yes	3.125	0.025	n/a	GoodResponse	1	n/a	n/a	7	64	Cue	Win	False
606.076	4.15	Win2	0.6923	0.0	Yes	3.125	0.001	2.0	GoodResponse	1	3.259	608.335	7	64	Fixation	Win	False
609.335	0.3	Win2	0.6923	0.0	Yes	3.125	0.001	2.0	GoodResponse	1	3.259	n/a	7	64	ButtonPress	Win	False
610.222	0.34	Win2	0.6923	0.003	Yes	3.125	-0.003	2.0	GoodResponse	1	0.217	609.439	7	64	Target	Win	False
610.439	0.3	Win2	0.6923	0.003	Yes	3.125	-0.003	2.0	GoodResponse	1	0.217	n/a	7	64	ButtonPress	Win	False
610.573	0.36	Win2	0.6923	n/a	Yes	3.125	n/a	n/a	GoodResponse	1	n/a	n/a	7	64	Blank	Win	False
610.924	1.45	Win2	0.6923	n/a	Yes	3.125	n/a	5.0	GoodResponse	1	0.025	609.949	7	64	Feedback	Win	False
612.378	3.125	Win2	0.6923	n/a	Yes	3.125	n/a	n/a	GoodResponse	1	0.0	n/a	7	64	ISIslide	Win	False
615.521	0.25	Control	0.6970000000000001	0.0	Yes	2.779	0.021	n/a	GoodResponse	0	n/a	n/a	7	65	Cue	Neutral	True
615.772	4.0	Control	0.6970000000000001	0.0	Yes	2.779	0.001	n/a	GoodResponse	0	n/a	n/a	7	65	Fixation	Neutral	True
619.767	0.33	Control	0.6970000000000001	0.004	Yes	2.779	-0.004	2.0	GoodResponse	0	0.293	619.06	7	65	Target	Neutral	True
620.06	0.3	Control	0.6970000000000001	0.004	Yes	2.779	-0.004	2.0	GoodResponse	0	0.293	n/a	7	65	ButtonPress	Neutral	True
620.101	0.37	Control	0.6970000000000001	n/a	Yes	2.779	n/a	n/a	GoodResponse	0	n/a	n/a	7	65	Blank	Neutral	True
620.469	1.45	Control	0.6970000000000001	n/a	Yes	2.779	n/a	5.0	GoodResponse	0	0.041	619.51	7	65	Feedback	Neutral	True
621.924	2.779	Control	0.6970000000000001	n/a	Yes	2.779	n/a	n/a	GoodResponse	0	0.0	n/a	7	65	ISIslide	Neutral	True
624.732	0.25	Win2	0.7015	0.0	Yes	2.768	0.032	n/a	GoodResponse	1	n/a	n/a	8	66	Cue	Win	True
624.983	3.9	Win2	0.7015	0.0	Yes	2.768	0.001	n/a	GoodResponse	1	n/a	n/a	8	66	Fixation	Win	True
628.878	0.32	Win2	0.7015	0.004	Yes	2.768	-0.004	2.0	GoodResponse	1	0.202	628.08	8	66	Target	Win	True
629.08	0.3	Win2	0.7015	0.004	Yes	2.768	-0.004	2.0	GoodResponse	1	0.202	n/a	8	66	ButtonPress	Win	True
629.212	0.38	Win2	0.7015	n/a	Yes	2.768	n/a	n/a	GoodResponse	1	n/a	n/a	8	66	Blank	Win	True
629.58	1.45	Win2	0.7015	n/a	Yes	2.768	n/a	5.0	GoodResponse	1	0.007	628.587	8	66	Feedback	Win	True
631.034	2.768	Win2	0.7015	n/a	Yes	2.768	n/a	n/a	GoodResponse	1	0.0	n/a	8	66	ISIslide	Win	True
633.826	0.25	Control	0.7059000000000001	0.0	Yes	2.724	0.026	n/a	GoodResponse	0	n/a	n/a	8	67	Cue	Neutral	True
634.077	3.95	Control	0.7059000000000001	0.0	Yes	2.724	0.001	n/a	GoodResponse	0	n/a	n/a	8	67	Fixation	Neutral	True
638.022	0.31	Control	0.7059000000000001	0.004	Yes	2.724	-0.004	2.0	GoodResponse	0	0.284	637.306	8	67	Target	Neutral	True
638.306	0.3	Control	0.7059000000000001	0.004	Yes	2.724	-0.004	2.0	GoodResponse	0	0.284	n/a	8	67	ButtonPress	Neutral	True
638.34	0.39	Control	0.7059000000000001	n/a	Yes	2.724	n/a	n/a	GoodResponse	0	n/a	n/a	8	67	Blank	Neutral	True
638.724	1.45	Control	0.7059000000000001	n/a	Yes	2.724	n/a	5.0	GoodResponse	0	0.03	637.754	8	67	Feedback	Neutral	True
640.178	2.724	Control	0.7059000000000001	n/a	Yes	2.724	n/a	n/a	GoodResponse	0	0.0	n/a	8	67	ISIslide	Neutral	True
642.92	0.25	Win2	0.7101000000000001	0.0	Yes	3.08	0.02	n/a	GoodResponse	1	n/a	n/a	9	68	Cue	Win	True
643.171	4.0	Win2	0.7101000000000001	0.0	Yes	3.08	0.001	n/a	GoodResponse	1	n/a	n/a	9	68	Fixation	Win	True
647.166	0.3	Win2	0.7101000000000001	0.004	Yes	3.08	-0.004	2.0	GoodResponse	1	0.273	646.439	9	68	Target	Win	True
647.439	0.3	Win2	0.7101000000000001	0.004	Yes	3.08	-0.004	2.0	GoodResponse	1	0.273	n/a	9	68	ButtonPress	Win	True
647.467	0.4	Win2	0.7101000000000001	n/a	Yes	3.08	n/a	n/a	GoodResponse	1	n/a	n/a	9	68	Blank	Win	True
647.868	1.45	Win2	0.7101000000000001	n/a	Yes	3.08	n/a	5.0	GoodResponse	1	0.008	646.876	9	68	Feedback	Win	True
649.322	3.08	Win2	0.7101000000000001	n/a	Yes	3.08	n/a	n/a	GoodResponse	1	0.0	n/a	9	68	ISIslide	Win	True
652.415	0.25	Win2	0.7143	0.0	Yes	3.235	0.015	n/a	GoodResponse	1	n/a	n/a	10	69	Cue	Win	True
652.666	3.95	Win2	0.7143	0.0	Yes	3.235	0.001	n/a	GoodResponse	1	n/a	n/a	10	69	Fixation	Win	True
656.611	0.29	Win2	0.7143	0.004	Yes	3.235	-0.004	2.0	GoodResponse	1	0.229	655.84	10	69	Target	Win	True
656.84	0.3	Win2	0.7143	0.004	Yes	3.235	-0.004	2.0	GoodResponse	1	0.229	n/a	10	69	ButtonPress	Win	True
656.912	0.41	Win2	0.7143	n/a	Yes	3.235	n/a	n/a	GoodResponse	1	n/a	n/a	10	69	Blank	Win	True
657.313	1.45	Win2	0.7143	n/a	Yes	3.235	n/a	5.0	GoodResponse	1	0.026	656.339	10	69	Feedback	Win	True
658.767	3.235	Win2	0.7143	n/a	Yes	3.235	n/a	n/a	GoodResponse	1	0.0	n/a	10	69	ISIslide	Win	True
662.027	0.25	Lose2	0.7182999999999999	0.0	Yes	3.023	0.027	n/a	GoodResponse	0	n/a	n/a	10	70	Cue	AvoidedLoss	True
662.278	4.05	Lose2	0.7182999999999999	0.0	Yes	3.023	0.001	n/a	GoodResponse	0	n/a	n/a	10	70	Fixation	AvoidedLoss	True
666.323	0.28	Lose2	0.7182999999999999	0.004	Yes	3.023	-0.004	2.0	GoodResponse	0	0.203	665.526	10	70	Target	AvoidedLoss	True
666.526	0.3	Lose2	0.7182999999999999	0.004	Yes	3.023	-0.004	2.0	GoodResponse	0	0.203	n/a	10	70	ButtonPress	AvoidedLoss	True
666.608	0.42	Lose2	0.7182999999999999	n/a	Yes	3.023	n/a	n/a	GoodResponse	0	n/a	n/a	10	70	Blank	AvoidedLoss	True
667.026	1.45	Lose2	0.7182999999999999	n/a	Yes	3.023	n/a	5.0	GoodResponse	0	0.021	666.047	10	70	Feedback	AvoidedLoss	True
668.48	3.023	Lose2	0.7182999999999999	n/a	Yes	3.023	n/a	n/a	GoodResponse	0	0.0	n/a	10	70	ISIslide	AvoidedLoss	True
671.522	0.25	Win2	0.7222	0.0	Yes	2.728	0.022	n/a	GoodResponse	1	n/a	n/a	11	71	Cue	Win	True
671.773	4.05	Win2	0.7222	0.0	Yes	2.728	0.001	n/a	GoodResponse	1	n/a	n/a	11	71	Fixation	Win	True
675.819	0.27	Win2	0.7222	0.003	Yes	2.728	-0.003	2.0	GoodResponse	1	0.206	675.025	11	71	Target	Win	True
676.025	0.3	Win2	0.7222	0.003	Yes	2.728	-0.003	2.0	GoodResponse	1	0.206	n/a	11	71	ButtonPress	Win	True
676.103	0.43	Win2	0.7222	n/a	Yes	2.728	n/a	n/a	GoodResponse	1	n/a	n/a	11	71	Blank	Win	True
676.521	1.45	Win2	0.7222	n/a	Yes	2.728	n/a	5.0	GoodResponse	1	0.037	675.558	11	71	Feedback	Win	True
677.975	2.728	Win2	0.7222	n/a	Yes	2.728	n/a	n/a	GoodResponse	1	0.0	n/a	11	71	ISIslide	Win	True
680.717	0.25	Win2	0.726	0.0	Yes	2.783	0.017	n/a	GoodResponse	1	n/a	n/a	12	72	Cue	Win	True
680.967	4.1	Win2	0.726	0.0	Yes	2.783	0.0	n/a	GoodResponse	1	n/a	n/a	12	72	Fixation	Win	True
685.063	0.26	Win2	0.726	0.004	Yes	2.783	-0.004	2.0	GoodResponse	1	0.21	684.273	12	72	Target	Win	True
685.273	0.3	Win2	0.726	0.004	Yes	2.783	-0.004	2.0	GoodResponse	1	0.21	n/a	12	72	ButtonPress	Win	True
685.33	0.44	Win2	0.726	n/a	Yes	2.783	n/a	n/a	GoodResponse	1	n/a	n/a	12	72	Blank	Win	True
685.765	1.45	Win2	0.726	n/a	Yes	2.783	n/a	5.0	GoodResponse	1	0.013	684.778	12	72	Feedback	Win	True
687.219	2.783	Win2	0.726	n/a	Yes	2.783	n/a	n/a	GoodResponse	1	0.0	n/a	12	72	ISIslide	Win	True
690.028	0.25	Win2	0.7297	0.0	Yes	2.672	0.028	n/a	GoodResponse	1	n/a	n/a	13	73	Cue	Win	True
690.279	4.0	Win2	0.7297	0.0	Yes	2.672	0.001	n/a	GoodResponse	1	n/a	n/a	13	73	Fixation	Win	True
694.274	0.25	Win2	0.7297	0.004	Yes	2.672	-0.004	2.0	GoodResponse	1	0.248	693.522	13	73	Target	Win	True
694.522	0.3	Win2	0.7297	0.004	Yes	2.672	-0.004	2.0	GoodResponse	1	0.248	n/a	13	73	ButtonPress	Win	True
694.525	0.45	Win2	0.7297	n/a	Yes	2.672	n/a	n/a	GoodResponse	1	n/a	n/a	13	73	Blank	Win	True
694.976	1.45	Win2	0.7297	n/a	Yes	2.672	n/a	5.0	GoodResponse	1	0.021	693.997	13	73	Feedback	Win	True
696.43	2.672	Win2	0.7297	n/a	Yes	2.672	n/a	n/a	GoodResponse	1	0.0	n/a	13	73	ISIslide	Win	True
699.122	0.25	Lose2	0.7333	0.0	Yes	2.628	0.022	n/a	GoodResponse	0	n/a	n/a	13	74	Cue	AvoidedLoss	True
699.373	4.05	Lose2	0.7333	0.0	Yes	2.628	0.001	n/a	GoodResponse	0	n/a	n/a	13	74	Fixation	AvoidedLoss	True
703.418	0.24	Lose2	0.7333	0.004	Yes	2.628	-0.004	2.0	GoodResponse	0	0.198	702.616	13	74	Target	AvoidedLoss	True
703.616	0.3	Lose2	0.7333	0.004	Yes	2.628	-0.004	2.0	GoodResponse	0	0.198	n/a	13	74	ButtonPress	AvoidedLoss	True
703.669	0.46	Lose2	0.7333	n/a	Yes	2.628	n/a	n/a	GoodResponse	0	n/a	n/a	13	74	Blank	AvoidedLoss	True
704.12	1.45	Lose2	0.7333	n/a	Yes	2.628	n/a	5.0	GoodResponse	0	0.048	703.168	13	74	Feedback	AvoidedLoss	True
705.575	2.628	Lose2	0.7333	n/a	Yes	2.628	n/a	n/a	GoodResponse	0	0.0	n/a	13	74	ISIslide	AvoidedLoss	True
708.216	0.25	Lose2	0.7237	0.0	No	2.934	0.016	n/a	NoResponse	-1	n/a	n/a	12	75	Cue	Loss	True
708.467	3.95	Lose2	0.7237	0.0	No	2.934	0.001	n/a	NoResponse	-1	n/a	n/a	12	75	Fixation	Loss	True
712.412	0.23	Lose2	0.7237	0.004	No	2.934	-0.004	2.0	NoResponse	-1	0.268	711.68	12	75	Target	Loss	True
712.646	0.47	Lose2	0.7237	n/a	No	2.934	n/a	n/a	NoResponse	-1	n/a	n/a	12	75	Blank	Loss	True
712.68	0.3	Lose2	0.7237	0.004	No	2.934	-0.004	2.0	NoResponse	-1	0.268	n/a	12	75	ButtonPress	Loss	True
713.114	1.45	Lose2	0.7237	n/a	No	2.934	n/a	5.0	NoResponse	-1	0.03	712.144	12	75	Feedback	Loss	True
714.568	2.934	Lose2	0.7237	n/a	No	2.934	n/a	n/a	NoResponse	-1	0.0	n/a	12	75	ISIslide	Loss	True
717.527	0.25	Control	0.7273000000000001	0.0	Yes	3.223	0.027	n/a	GoodResponse	0	n/a	n/a	12	76	Cue	Neutral	True
717.778	4.05	Control	0.7273000000000001	0.0	Yes	3.223	0.001	n/a	GoodResponse	0	n/a	n/a	12	76	Fixation	Neutral	True
721.823	0.22	Control	0.7273000000000001	0.004	Yes	3.223	-0.004	2.0	GoodResponse	0	0.216	721.039	12	76	Target	Neutral	True
722.039	0.3	Control	0.7273000000000001	0.004	Yes	3.223	-0.004	2.0	GoodResponse	0	0.216	n/a	12	76	ButtonPress	Neutral	True
722.057	0.48	Control	0.7273000000000001	n/a	Yes	3.223	n/a	n/a	GoodResponse	0	n/a	n/a	12	76	Blank	Neutral	True
722.525	1.45	Control	0.7273000000000001	n/a	Yes	3.223	n/a	5.0	GoodResponse	0	0.034	721.559	12	76	Feedback	Neutral	True
723.98	3.223	Control	0.7273000000000001	n/a	Yes	3.223	n/a	n/a	GoodResponse	0	0.0	n/a	12	76	ISIslide	Neutral	True
727.223	0.25	Lose2	0.7179000000000001	0.0	No	2.577	0.023	n/a	NoResponse	-1	n/a	n/a	11	77	Cue	Loss	True
727.474	3.95	Lose2	0.7179000000000001	0.0	No	2.577	0.001	n/a	NoResponse	-1	n/a	n/a	11	77	Fixation	Loss	True
731.419	0.21	Lose2	0.7179000000000001	0.004	No	2.577	-0.004	2.0	NoResponse	-1	0.251	730.67	11	77	Target	Loss	True
731.636	0.49	Lose2	0.7179000000000001	n/a	No	2.577	n/a	n/a	NoResponse	-1	n/a	n/a	11	77	Blank	Loss	True
731.67	0.3	Lose2	0.7179000000000001	0.004	No	2.577	-0.004	2.0	NoResponse	-1	0.251	n/a	11	77	ButtonPress	Loss	True
732.121	1.45	Lose2	0.7179000000000001	n/a	No	2.577	n/a	5.0	NoResponse	-1	0.047	731.168	11	77	Feedback	Loss	True
733.575	2.577	Lose2	0.7179000000000001	n/a	No	2.577	n/a	n/a	NoResponse	-1	0.0	n/a	11	77	ISIslide	Loss	True
