onset	duration	cue_type	current_mean_accuracy	duration_error	is_hit	isi_adjusted	onset_delay	response	response_type	reward	rt	rt_time	total_reward	trial_number	trial_phase	trial_type	one_press
11.109	0.25	Control	1.0	0.0	Yes	2.941	0.009	n/a	GoodResponse	0	n/a	n/a	0	0	Cue	Neutral	True
11.359	3.85	Control	1.0	0.0	Yes	2.941	0.0	n/a	GoodResponse	0	n/a	n/a	0	0	Fixation	Neutral	True
15.207	0.4	Control	1.0	0.002	Yes	2.941	-0.002	4.0	GoodResponse	0	0.199	14.406	0	0	Target	Neutral	True
15.406	0.3	Control	1.0	0.002	Yes	2.941	-0.002	4.0	GoodResponse	0	0.199	n/a	0	0	ButtonPress	Neutral	True
15.607	0.3	Control	1.0	n/a	Yes	2.941	n/a	n/a	GoodResponse	0	n/a	n/a	0	0	Blank	Neutral	True
15.907	1.45	Control	1.0	n/a	Yes	2.941	n/a	5.0	GoodResponse	0	1.095	16.002	0	0	Feedback	Neutral	True
17.357	2.941	Control	1.0	n/a	Yes	2.941	n/a	n/a	GoodResponse	0	0.0	n/a	0	0	ISIslide	Neutral	True
20.339	0.25	Lose2	1.0	0.0	Yes	2.761	0.039	4.0	GoodResponse	0	0.248	19.587	0	1	Cue	AvoidedLoss	False
20.587	0.3	Lose2	1.0	0.0	Yes	2.761	0.039	4.0	GoodResponse	0	0.248	n/a	0	1	ButtonPress	AvoidedLoss	False
20.589	4.0	Lose2	1.0	0.0	Yes	2.761	0.0	n/a	GoodResponse	0	n/a	n/a	0	1	Fixation	AvoidedLoss	False
24.587	0.39	Lose2	1.0	0.002	Yes	2.761	-0.002	4.0	GoodResponse	0	0.205	23.792	0	1	Target	AvoidedLoss	False
24.792	0.3	Lose2	1.0	0.002	Yes	2.761	-0.002	4.0	GoodResponse	0	0.205	n/a	0	1	ButtonPress	AvoidedLoss	False
24.987	0.31	Lose2	1.0	n/a	Yes	2.761	n/a	n/a	GoodResponse	0	n/a	n/a	0	1	Blank	AvoidedLoss	False
25.287	1.45	Lose2	1.0	n/a	Yes	2.761	n/a	n/a	GoodResponse	0	n/a	n/a	0	1	Feedback	AvoidedLoss	False
26.737	2.761	Lose2	1.0	n/a	Yes	2.761	n/a	n/a	GoodResponse	0	0.0	n/a	0	1	ISIslide	AvoidedLoss	False
29.519	0.25	Control	1.0	0.0	Yes	2.581	0.019	n/a	GoodResponse	0	n/a	n/a	0	2	Cue	Neutral	False
29.769	4.1	Control	1.0	0.0	Yes	2.581	0.0	4.0	GoodResponse	0	0.06	28.829	0	2	Fixation	Neutral	False
29.829	0.3	Control	1.0	0.0	Yes	2.581	0.0	4.0	GoodResponse	0	0.06	n/a	0	2	ButtonPress	Neutral	False
33.867	0.38	Control	1.0	0.002	Yes	2.581	-0.002	4.0	GoodResponse	0	0.211	33.078	0	2	Target	Neutral	False
34.078	0.3	Control	1.0	0.002	Yes	2.581	-0.002	4.0	GoodResponse	0	0.211	n/a	0	2	ButtonPress	Neutral	False
34.251	0.32	Control	1.0	n/a	Yes	2.581	n/a	n/a	GoodResponse	0	n/a	n/a	0	2	Blank	Neutral	False
34.567	1.45	Control	1.0	n/a	Yes	2.581	n/a	5.0	GoodResponse	0	0.435	34.002	0	2	Feedback	Neutral	False
36.017	2.581	Control	1.0	n/a	Yes	2.581	n/a	n/a	GoodResponse	0	0.0	n/a	0	2	ISIslide	Neutral	False
38.632	0.25	Win2	1.0	0.001	Yes	2.818	0.032	n/a	GoodResponse	1	n/a	n/a	1	3	Cue	Win	True
38.882	3.95	Win2	1.0	0.0	Yes	2.818	0.0	n/a	GoodResponse	1	n/a	n/a	1	3	Fixation	Win	True
42.831	0.37	Win2	1.0	0.001	Yes	2.818	-0.001	4.0	GoodResponse	1	0.194	42.025	1	3	Target	Win	True
43.025	0.3	Win2	1.0	0.001	Yes	2.818	-0.001	4.0	GoodResponse	1	0.194	n/a	1	3	ButtonPress	Win	True
43.198	0.33	Win2	1.0	n/a	Yes	2.818	n/a	n/a	GoodResponse	1	n/a	n/a	1	3	Blank	Win	True
43.531	1.45	Win2	1.0	n/a	Yes	2.818	n/a	n/a	GoodResponse	1	n/a	n/a	1	3	Feedback	Win	True
44.98	2.818	Win2	1.0	n/a	Yes	2.818	n/a	n/a	GoodResponse	1	0.0	n/a	1	3	ISIslide	Win	True
47.829	0.25	Win2	1.0	0.0	Yes	3.271	0.029	n/a	GoodResponse	1	n/a	n/a	2	4	Cue	Win	True
48.079	4.0	Win2	1.0	0.0	Yes	3.271	0.0	n/a	GoodResponse	1	n/a	n/a	2	4	Fixation	Win	True
52.078	0.36	Win2	1.0	0.001	Yes	3.271	-0.001	4.0	GoodResponse	1	0.198	51.276	2	4	Target	Win	True
52.276	0.3	Win2	1.0	0.001	Yes	3.271	-0.001	4.0	GoodResponse	1	0.198	n/a	2	4	ButtonPress	Win	True
52.444	0.34	Win2	1.0	n/a	Yes	3.271	n/a	n/a	GoodResponse	1	n/a	n/a	2	4	Blank	Win	True
52.778	1.45	Win2	1.0	n/a	Yes	3.271	n/a	5.0	GoodResponse	1	0.224	52.002	2	4	Feedback	Win	True
54.227	3.271	Win2	1.0	n/a	Yes	3.271	n/a	n/a	GoodResponse	1	0.0	n/a	2	4	ISIslide	Win	True
57.526	0.25	Win2	1.0	0.0	Yes	2.774	0.026	n/a	GoodResponse	1	n/a	n/a	3	5	Cue	Win	False
57.776	4.0	Win2	1.0	0.0	Yes	2.774	0.0	4.0	GoodResponse	1	2.792	59.568	3	5	Fixation	Win	False
60.568	0.3	Win2	1.0	0.0	Yes	2.774	0.0	4.0	GoodResponse	1	2.792	n/a	3	5	ButtonPress	Win	False
61.774	0.35	Win2	1.0	0.002	Yes	2.774	-0.002	4.0	GoodResponse	1	0.193	60.967	3	5	Target	Win	False
61.967	0.3	Win2	1.0	0.002	Yes	2.774	-0.002	4.0	GoodResponse	1	0.193	n/a	3	5	ButtonPress	Win	False
62.124	0.35	Win2	1.0	n/a	Yes	2.774	n/a	n/a	GoodResponse	1	n/a	n/a	3	5	Blank	Win	False
62.474	1.45	Win2	1.0	n/a	Yes	2.774	n/a	5.0	GoodResponse	1	0.528	62.002	3	5	Feedback	Win	False
63.924	2.774	Win2	1.0	n/a	Yes	2.774	n/a	n/a	GoodResponse	1	0.0	n/a	3	5	ISIslide	Win	False
66.723	0.25	Lose2	1.0	0.0	Yes	2.727	0.023	n/a	GoodResponse	0	n/a	n/a	3	6	Cue	AvoidedLoss	True
66.973	3.95	Lose2	1.0	0.0	Yes	2.727	0.0	n/a	GoodResponse	0	n/a	n/a	3	6	Fixation	AvoidedLoss	True
70.921	0.34	Lose2	1.0	0.002	Yes	2.727	-0.002	4.0	GoodResponse	0	0.175	70.096	3	6	Target	AvoidedLoss	True
71.096	0.3	Lose2	1.0	0.002	Yes	2.727	-0.002	4.0	GoodResponse	0	0.175	n/a	3	6	ButtonPress	AvoidedLoss	True
71.271	0.36	Lose2	1.0	n/a	Yes	2.727	n/a	n/a	GoodResponse	0	n/a	n/a	3	6	Blank	AvoidedLoss	True
71.621	1.45	Lose2	1.0	n/a	Yes	2.727	n/a	5.0	GoodResponse	0	1.38	72.001	3	6	Feedback	AvoidedLoss	True
73.07	2.727	Lose2	1.0	n/a	Yes	2.727	n/a	n/a	GoodResponse	0	0.0	n/a	3	6	ISIslide	AvoidedLoss	True
75.82	0.25	Lose2	1.0	0.0	Yes	4.03	0.02	n/a	GoodResponse	0	n/a	n/a	3	7	Cue	AvoidedLoss	True
76.069	4.05	Lose2	1.0	0.001	Yes	4.03	-0.001	n/a	GoodResponse	0	n/a	n/a	3	7	Fixation	AvoidedLoss	True
80.118	0.33	Lose2	1.0	0.002	Yes	4.03	-0.002	4.0	GoodResponse	0	0.194	79.312	3	7	Target	AvoidedLoss	True
80.312	0.3	Lose2	1.0	0.002	Yes	4.03	-0.002	4.0	GoodResponse	0	0.194	n/a	3	7	ButtonPress	AvoidedLoss	True
80.451	0.37	Lose2	1.0	n/a	Yes	4.03	n/a	n/a	GoodResponse	0	n/a	n/a	3	7	Blank	AvoidedLoss	True
80.818	1.45	Lose2	1.0	n/a	Yes	4.03	n/a	5.0	GoodResponse	0	0.183	80.001	3	7	Feedback	AvoidedLoss	True
82.267	4.03	Lose2	1.0	n/a	Yes	4.03	n/a	n/a	GoodResponse	0	0.0	n/a	3	7	ISIslide	AvoidedLoss	True
86.316	0.25	Lose2	1.0	0.0	Yes	3.034	0.016	n/a	GoodResponse	0	n/a	n/a	3	8	Cue	AvoidedLoss	False
86.566	3.95	Lose2	1.0	0.0	Yes	3.034	0.0	4.0	GoodResponse	0	0.022	85.588	3	8	Fixation	AvoidedLoss	False
86.588	0.3	Lose2	1.0	0.0	Yes	3.034	0.0	4.0	GoodResponse	0	0.022	n/a	3	8	ButtonPress	AvoidedLoss	False
90.514	0.32	Lose2	1.0	0.002	Yes	3.034	-0.002	4.0	GoodResponse	0	0.202	89.716	3	8	Target	AvoidedLoss	False
90.716	0.3	Lose2	1.0	0.002	Yes	3.034	-0.002	4.0	GoodResponse	0	0.202	n/a	3	8	ButtonPress	AvoidedLoss	False
90.848	0.38	Lose2	1.0	n/a	Yes	3.034	n/a	n/a	GoodResponse	0	n/a	n/a	3	8	Blank	AvoidedLoss	False
91.214	1.45	Lose2	1.0	n/a	Yes	3.034	n/a	n/a	GoodResponse	0	n/a	n/a	3	8	Feedback	AvoidedLoss	False
92.664	3.034	Lose2	1.0	n/a	Yes	3.034	n/a	n/a	GoodResponse	0	0.0	n/a	3	8	ISIslide	AvoidedLoss	False
95.729	0.25	Lose2	1.0	0.0	Yes	3.121	0.029	n/a	GoodResponse	0	n/a	n/a	3	9	Cue	AvoidedLoss	True
95.979	3.95	Lose2	1.0	0.0	Yes	3.121	0.0	n/a	GoodResponse	0	n/a	n/a	3	9	Fixation	AvoidedLoss	True
99.928	0.31	Lose2	1.0	0.001	Yes	3.121	-0.001	4.0	GoodResponse	0	0.198	99.126	3	9	Target	AvoidedLoss	True
100.126	0.3	Lose2	1.0	0.001	Yes	3.121	-0.001	4.0	GoodResponse	0	0.198	n/a	3	9	ButtonPress	AvoidedLoss	True
100.244	0.39	Lose2	1.0	n/a	Yes	3.121	n/a	n/a	GoodResponse	0	n/a	n/a	3	9	Blank	AvoidedLoss	True
100.628	1.45	Lose2	1.0	n/a	Yes	3.121	n/a	5.0	GoodResponse	0	0.374	100.002	3	9	Feedback	AvoidedLoss	True
102.077	3.121	Lose2	1.0	n/a	Yes	3.121	n/a	n/a	GoodResponse	0	0.0	n/a	3	9	ISIslide	AvoidedLoss	True
105.226	0.25	Control	1.0	0.0	Yes	3.274	0.026	n/a	GoodResponse	0	n/a	n/a	3	10	Cue	Neutral	True
105.476	4.0	Control	1.0	0.0	Yes	3.274	0.0	n/a	GoodResponse	0	n/a	n/a	3	10	Fixation	Neutral	True
109.474	0.3	Control	1.0	0.002	Yes	3.274	-0.002	4.0	GoodResponse	0	0.219	108.693	3	10	Target	Neutral	True
109.693	0.3	Control	1.0	0.002	Yes	3.274	-0.002	4.0	GoodResponse	0	0.219	n/a	3	10	ButtonPress	Neutral	True
109.774	0.4	Control	1.0	n/a	Yes	3.274	n/a	n/a	GoodResponse	0	n/a	n/a	3	10	Blank	Neutral	True
110.174	1.45	Control	1.0	n/a	Yes	3.274	n/a	5.0	GoodResponse	0	0.828	110.002	3	10	Feedback	Neutral	True
111.624	3.274	Control	1.0	n/a	Yes	3.274	n/a	n/a	GoodResponse	0	0.0	n/a	3	10	ISIslide	Neutral	True
114.923	0.25	Lose2	0.9167000000000001	0.0	No	2.727	0.023	n/a	NoResponse	-1	n/a	n/a	2	11	Cue	Loss	True
115.172	4.05	Lose2	0.9167000000000001	0.001	No	2.727	-0.001	4.0	NoResponse	-1	2.594	116.766	2	11	Fixation	Loss	True
117.766	0.3	Lose2	0.9167000000000001	0.001	No	2.727	-0.001	4.0	NoResponse	-1	2.594	n/a	2	11	ButtonPress	Loss	True
119.221	0.29	Lose2	0.9167000000000001	0.002	No	2.727	-0.002	n/a	NoResponse	-1	n/a	n/a	2	11	Target	Loss	True
119.521	0.41	Lose2	0.9167000000000001	n/a	No	2.727	n/a	n/a	NoResponse	-1	n/a	n/a	2	11	Blank	Loss	True
119.921	1.45	Lose2	0.9167000000000001	n/a	No	2.727	n/a	5.0	NoResponse	-1	1.08	120.001	2	11	Feedback	Loss	True
121.37	2.727	Lose2	0.9167000000000001	n/a	No	2.727	n/a	n/a	NoResponse	-1	0.0	n/a	2	11	ISIslide	Loss	True
124.119	0.25	Control	0.9231	0.0	Yes	2.981	0.019	n/a	GoodResponse	0	n/a	n/a	2	12	Cue	Neutral	False
124.369	3.9	Control	0.9231	0.0	Yes	2.981	0.0	4.0	GoodResponse	0	0.083	123.452	2	12	Fixation	Neutral	False
124.452	0.3	Control	0.9231	0.0	Yes	2.981	0.0	4.0	GoodResponse	0	0.083	n/a	2	12	ButtonPress	Neutral	False
128.268	0.28	Control	0.9231	0.001	Yes	2.981	-0.001	4.0	GoodResponse	0	0.213	127.481	2	12	Target	Neutral	False
128.481	0.3	Control	0.9231	0.001	Yes	2.981	-0.001	4.0	GoodResponse	0	0.213	n/a	2	12	ButtonPress	Neutral	False
128.551	0.42	Control	0.9231	n/a	Yes	2.981	n/a	n/a	GoodResponse	0	n/a	n/a	2	12	Blank	Neutral	False
128.968	1.45	Control	0.9231	n/a	Yes	2.981	n/a	5.0	GoodResponse	0	0.033	128.001	2	12	Feedback	Neutral	False
130.417	2.981	Control	0.9231	n/a	Yes	2.981	n/a	n/a	GoodResponse	0	0.0	n/a	2	12	ISIslide	Neutral	False
133.416	0.25	Control	0.9286	0.0	Yes	2.784	0.016	4.0	GoodResponse	0	0.199	132.615	2	13	Cue	Neutral	False
133.615	0.3	Control	0.9286	0.0	Yes	2.784	0.016	4.0	GoodResponse	0	0.199	n/a	2	13	ButtonPress	Neutral	False
133.666	4.0	Control	0.9286	0.0	Yes	2.784	0.0	4.0	GoodResponse	0	3.483	136.149	2	13	Fixation	Neutral	False
137.149	0.3	Control	0.9286	0.0	Yes	2.784	0.0	4.0	GoodResponse	0	3.483	n/a	2	13	ButtonPress	Neutral	False
137.665	0.27	Control	0.9286	0.001	Yes	2.784	-0.001	4.0	GoodResponse	0	0.185	136.85	2	13	Target	Neutral	False
137.85	0.3	Control	0.9286	0.001	Yes	2.784	-0.001	4.0	GoodResponse	0	0.185	n/a	2	13	ButtonPress	Neutral	False
137.948	0.43	Control	0.9286	n/a	Yes	2.784	n/a	n/a	GoodResponse	0	n/a	n/a	2	13	Blank	Neutral	False
138.364	1.45	Control	0.9286	n/a	Yes	2.784	n/a	5.0	GoodResponse	0	0.637	138.001	2	13	Feedback	Neutral	False
139.814	2.784	Control	0.9286	n/a	Yes	2.784	n/a	n/a	GoodResponse	0	0.0	n/a	2	13	ISIslide	Neutral	False
142.613	0.25	Win2	0.9333	0.0	Yes	2.687	0.013	n/a	GoodResponse	1	n/a	n/a	3	14	Cue	Win	False
142.863	4.1	Win2	0.9333	0.0	Yes	2.687	0.0	4.0	GoodResponse	1	3.672	145.535	3	14	Fixation	Win	False
146.535	0.3	Win2	0.9333	0.0	Yes	2.687	0.0	4.0	GoodResponse	1	3.672	n/a	3	14	ButtonPress	Win	False
146.961	0.26	Win2	0.9333	0.002	Yes	2.687	-0.002	4.0	GoodResponse	1	0.208	146.169	3	14	Target	Win	False
147.169	0.3	Win2	0.9333	0.002	Yes	2.687	-0.002	4.0	GoodResponse	1	0.208	n/a	3	14	ButtonPress	Win	False
147.228	0.44	Win2	0.9333	n/a	Yes	2.687	n/a	n/a	GoodResponse	1	n/a	n/a	3	14	Blank	Win	False
147.661	1.45	Win2	0.9333	n/a	Yes	2.687	n/a	5.0	GoodResponse	1	1.34	148.001	3	14	Feedback	Win	False
149.111	2.687	Win2	0.9333	n/a	Yes	2.687	n/a	n/a	GoodResponse	1	0.0	n/a	3	14	ISIslide	Win	False
151.826	0.25	Control	0.9375	0.0	Yes	2.974	0.026	n/a	GoodResponse	0	n/a	n/a	3	15	Cue	Neutral	True
152.076	4.0	Control	0.9375	0.0	Yes	2.974	0.0	n/a	GoodResponse	0	n/a	n/a	3	15	Fixation	Neutral	True
156.075	0.25	Control	0.9375	0.001	Yes	2.974	-0.001	4.0	GoodResponse	0	0.195	155.27	3	15	Target	Neutral	True
156.27	0.3	Control	0.9375	0.001	Yes	2.974	-0.001	4.0	GoodResponse	0	0.195	n/a	3	15	ButtonPress	Neutral	True
156.325	0.45	Control	0.9375	n/a	Yes	2.974	n/a	n/a	GoodResponse	0	n/a	n/a	3	15	Blank	Neutral	True
156.775	1.45	Control	0.9375	n/a	Yes	2.974	n/a	5.0	GoodResponse	0	0.226	156.001	3	15	Feedback	Neutral	True
158.224	2.974	Control	0.9375	n/a	Yes	2.974	n/a	n/a	GoodResponse	0	0.0	n/a	3	15	ISIslide	Neutral	True
161.223	0.25	Win2	0.9412	0.0	Yes	2.877	0.023	n/a	GoodResponse	1	n/a	n/a	4	16	Cue	Win	True
161.473	4.0	Win2	0.9412	0.0	Yes	2.877	0.0	n/a	GoodResponse	1	n/a	n/a	4	16	Fixation	Win	True
165.472	0.24	Win2	0.9412	0.001	Yes	2.877	-0.001	4.0	GoodResponse	1	0.176	164.648	4	16	Target	Win	True
165.648	0.3	Win2	0.9412	0.001	Yes	2.877	-0.001	4.0	GoodResponse	1	0.176	n/a	4	16	ButtonPress	Win	True
165.721	0.46	Win2	0.9412	n/a	Yes	2.877	n/a	n/a	GoodResponse	1	n/a	n/a	4	16	Blank	Win	True
166.171	1.45	Win2	0.9412	n/a	Yes	2.877	n/a	5.0	GoodResponse	1	0.83	166.001	4	16	Feedback	Win	True
167.621	2.877	Win2	0.9412	n/a	Yes	2.877	n/a	n/a	GoodResponse	1	0.0	n/a	4	16	ISIslide	Win	True
170.52	0.25	Lose2	0.9444	0.0	Yes	2.73	0.02	4.0	GoodResponse	0	0.236	169.756	4	17	Cue	AvoidedLoss	False
170.756	0.3	Lose2	0.9444	0.0	Yes	2.73	0.02	4.0	GoodResponse	0	0.236	n/a	4	17	ButtonPress	AvoidedLoss	False
170.77	3.95	Lose2	0.9444	0.0	Yes	2.73	0.0	n/a	GoodResponse	0	n/a	n/a	4	17	Fixation	AvoidedLoss	False
174.718	0.23	Lose2	0.9444	0.002	Yes	2.73	-0.002	4.0	GoodResponse	0	0.224	173.942	4	17	Target	AvoidedLoss	False
174.942	0.3	Lose2	0.9444	0.002	Yes	2.73	-0.002	4.0	GoodResponse	0	0.224	n/a	4	17	ButtonPress	AvoidedLoss	False
174.952	0.47	Lose2	0.9444	n/a	Yes	2.73	n/a	n/a	GoodResponse	0	n/a	n/a	4	17	Blank	AvoidedLoss	False
175.418	1.45	Lose2	0.9444	n/a	Yes	2.73	n/a	n/a	GoodResponse	0	n/a	n/a	4	17	Feedback	AvoidedLoss	False
176.868	2.73	Lose2	0.9444	n/a	Yes	2.73	n/a	n/a	GoodResponse	0	0.0	n/a	4	17	ISIslide	AvoidedLoss	False
179.617	0.25	Lose2	0.9473999999999999	0.0	Yes	2.733	0.017	n/a	GoodResponse	0	n/a	n/a	4	18	Cue	AvoidedLoss	True
179.867	4.05	Lose2	0.9473999999999999	0.0	Yes	2.733	0.0	n/a	GoodResponse	0	n/a	n/a	4	18	Fixation	AvoidedLoss	True
183.915	0.22	Lose2	0.9473999999999999	0.002	Yes	2.733	-0.002	4.0	GoodResponse	0	0.19	183.105	4	18	Target	AvoidedLoss	True
184.105	0.3	Lose2	0.9473999999999999	0.002	Yes	2.733	-0.002	4.0	GoodResponse	0	0.19	n/a	4	18	ButtonPress	AvoidedLoss	True
184.148	0.48	Lose2	0.9473999999999999	n/a	Yes	2.733	n/a	n/a	GoodResponse	0	n/a	n/a	4	18	Blank	AvoidedLoss	True
184.615	1.45	Lose2	0.9473999999999999	n/a	Yes	2.733	n/a	5.0	GoodResponse	0	0.386	184.001	4	18	Feedback	AvoidedLoss	True
186.064	2.733	Lose2	0.9473999999999999	n/a	Yes	2.733	n/a	n/a	GoodResponse	0	0.0	n/a	4	18	ISIslide	AvoidedLoss	True
188.813	0.25	Control	0.95	0.0	Yes	2.937	0.013	n/a	GoodResponse	0	n/a	n/a	4	19	Cue	Neutral	False
189.063	3.95	Control	0.95	0.0	Yes	2.937	0.0	4.0	GoodResponse	0	0.016	188.079	4	19	Fixation	Neutral	False
189.079	0.3	Control	0.95	0.0	Yes	2.937	0.0	4.0	GoodResponse	0	0.016	n/a	4	19	ButtonPress	Neutral	False
193.012	0.21	Control	0.95	0.001	Yes	2.937	-0.001	4.0	GoodResponse	0	0.205	192.217	4	19	Target	Neutral	False
193.217	0.3	Control	0.95	0.001	Yes	2.937	-0.001	4.0	GoodResponse	0	0.205	n/a	4	19	ButtonPress	Neutral	False
193.229	0.49	Control	0.95	n/a	Yes	2.937	n/a	n/a	GoodResponse	0	n/a	n/a	4	19	Blank	Neutral	False
193.712	1.45	Control	0.95	n/a	Yes	2.937	n/a	5.0	GoodResponse	0	1.289	194.001	4	19	Feedback	Neutral	False
195.161	2.937	Control	0.95	n/a	Yes	2.937	n/a	n/a	GoodResponse	0	0.0	n/a	4	19	ISIslide	Neutral	False
198.127	0.25	Control	0.9048	0.0	No	2.623	0.027	n/a	NoResponse	0	n/a	n/a	4	20	Cue	Neutral	True
198.377	4.05	Control	0.9048	0.0	No	2.623	0.0	n/a	NoResponse	0	n/a	n/a	4	20	Fixation	Neutral	True
202.425	0.2	Control	0.9048	0.002	No	2.623	-0.002	4.0	NoResponse	0	0.222	201.647	4	20	Target	Neutral	True
202.625	0.5	Control	0.9048	n/a	No	2.623	n/a	n/a	NoResponse	0	n/a	n/a	4	20	Blank	Neutral	True
202.647	0.3	Control	0.9048	0.002	No	2.623	-0.002	4.0	NoResponse	0	0.222	n/a	4	20	ButtonPress	Neutral	True
203.125	1.45	Control	0.9048	n/a	No	2.623	n/a	n/a	NoResponse	0	n/a	n/a	4	20	Feedback	Neutral	True
204.575	2.623	Control	0.9048	n/a	No	2.623	n/a	n/a	NoResponse	0	0.0	n/a	4	20	ISIslide	Neutral	True
207.224	0.25	Control	0.8636	0.0	No	2.776	0.024	n/a	LatePress	0	n/a	n/a	4	21	Cue	Neutral	True
207.474	4.1	Control	0.8636	0.0	No	2.776	0.0	n/a	LatePress	0	n/a	n/a	4	21	Fixation	Neutral	True
211.572	0.19	Control	0.8636	0.002	No	2.776	-0.002	4.0	LatePress	0	0.195	210.767	4	21	Target	Neutral	True
211.767	0.3	Control	0.8636	0.002	No	2.776	-0.002	4.0	LatePress	0	0.195	n/a	4	21	ButtonPress	Neutral	True
211.772	0.51	Control	0.8636	n/a	No	2.776	n/a	n/a	LatePress	0	n/a	n/a	4	21	Blank	Neutral	True
212.272	1.45	Control	0.8636	n/a	No	2.776	n/a	5.0	LatePress	0	0.729	212.001	4	21	Feedback	Neutral	True
213.721	2.776	Control	0.8636	n/a	No	2.776	n/a	n/a	LatePress	0	0.0	n/a	4	21	ISIslide	Neutral	True
216.52	0.25	Control	0.8261	0.0	No	2.78	0.02	n/a	NoResponse	0	n/a	n/a	4	22	Cue	Neutral	True
216.77	4.0	Control	0.8261	0.0	No	2.78	0.0	n/a	NoResponse	0	n/a	n/a	4	22	Fixation	Neutral	True
220.769	0.18	Control	0.8261	0.001	No	2.78	-0.001	4.0	NoResponse	0	0.237	220.006	4	22	Target	Neutral	True
220.952	0.52	Control	0.8261	n/a	No	2.78	n/a	n/a	NoResponse	0	n/a	n/a	4	22	Blank	Neutral	True
221.006	0.3	Control	0.8261	0.001	No	2.78	-0.001	4.0	NoResponse	0	0.237	n/a	4	22	ButtonPress	Neutral	True
221.469	1.45	Control	0.8261	n/a	No	2.78	n/a	n/a	NoResponse	0	n/a	n/a	4	22	Feedback	Neutral	True
222.918	2.78	Control	0.8261	n/a	No	2.78	n/a	n/a	NoResponse	0	0.0	n/a	4	22	ISIslide	Neutral	True
225.717	0.25	Control	0.8332999999999999	0.0	Yes	2.783	0.017	n/a	GoodResponse	0	n/a	n/a	4	23	Cue	Neutral	False
225.967	3.9	Control	0.8332999999999999	0.0	Yes	2.783	0.0	4.0	GoodResponse	0	3.185	228.152	4	23	Fixation	Neutral	False
229.152	0.3	Control	0.8332999999999999	0.0	Yes	2.783	0.0	4.0	GoodResponse	0	3.185	n/a	4	23	ButtonPress	Neutral	False
229.866	0.17	Control	0.8332999999999999	0.001	Yes	2.783	-0.001	4.0	GoodResponse	0	0.118	228.984	4	23	Target	Neutral	False
229.984	0.3	Control	0.8332999999999999	0.001	Yes	2.783	-0.001	4.0	GoodResponse	0	0.118	n/a	4	23	ButtonPress	Neutral	False
230.032	0.53	Control	0.8332999999999999	n/a	Yes	2.783	n/a	n/a	GoodResponse	0	n/a	n/a	4	23	Blank	Neutral	False
230.566	1.45	Control	0.8332999999999999	n/a	Yes	2.783	n/a	5.0	GoodResponse	0	0.434	230.0	4	23	Feedback	Neutral	False
232.015	2.783	Control	0.8332999999999999	n/a	Yes	2.783	n/a	n/a	GoodResponse	0	0.0	n/a	4	23	ISIslide	Neutral	False
234.814	0.25	Win2	0.8	0.0	No	3.136	0.014	n/a	NoResponse	0	n/a	n/a	4	24	Cue	MissedWin	False
235.064	3.95	Win2	0.8	0.0	No	3.136	0.0	4.0	NoResponse	0	3.133	237.197	4	24	Fixation	MissedWin	False
238.197	0.3	Win2	0.8	0.0	No	3.136	0.0	4.0	NoResponse	0	3.133	n/a	4	24	ButtonPress	MissedWin	False
239.013	0.16	Win2	0.8	0.001	No	3.136	-0.001	4.0	NoResponse	0	0.19	238.203	4	24	Target	MissedWin	False
239.179	0.54	Win2	0.8	n/a	No	3.136	n/a	n/a	NoResponse	0	n/a	n/a	4	24	Blank	MissedWin	False
239.203	0.3	Win2	0.8	0.001	No	3.136	-0.001	4.0	NoResponse	0	0.19	n/a	4	24	ButtonPress	MissedWin	False
239.712	1.45	Win2	0.8	n/a	No	3.136	n/a	5.0	NoResponse	0	1.288	240.0	4	24	Feedback	MissedWin	False
241.162	3.136	Win2	0.8	n/a	No	3.136	n/a	n/a	NoResponse	0	0.0	n/a	4	24	ISIslide	MissedWin	False
244.327	0.25	Win2	0.7692	0.0	No	3.073	0.027	n/a	NoResponse	0	n/a	n/a	4	25	Cue	MissedWin	False
244.577	4.0	Win2	0.7692	0.0	No	3.073	0.0	4.0	NoResponse	0	2.675	246.252	4	25	Fixation	MissedWin	False
247.252	0.3	Win2	0.7692	0.0	No	3.073	0.0	4.0	NoResponse	0	2.675	n/a	4	25	ButtonPress	MissedWin	False
248.576	0.15	Win2	0.7692	0.001	No	3.073	-0.001	4.0	NoResponse	0	0.178	247.754	4	25	Target	MissedWin	False
248.726	0.55	Win2	0.7692	n/a	No	3.073	n/a	n/a	NoResponse	0	n/a	n/a	4	25	Blank	MissedWin	False
248.754	0.3	Win2	0.7692	0.001	No	3.073	-0.001	4.0	NoResponse	0	0.178	n/a	4	25	ButtonPress	MissedWin	False
249.276	1.45	Win2	0.7692	n/a	No	3.073	n/a	n/a	NoResponse	0	n/a	n/a	4	25	Feedback	MissedWin	False
250.725	3.073	Win2	0.7692	n/a	No	3.073	n/a	n/a	NoResponse	0	0.0	n/a	4	25	ISIslide	MissedWin	False
253.824	0.25	Win2	0.7406999999999999	0.0	No	2.926	0.024	n/a	NoResponse	0	n/a	n/a	4	26	Cue	MissedWin	False
254.074	3.95	Win2	0.7406999999999999	0.0	No	2.926	0.0	4.0	NoResponse	0	3.639	256.713	4	26	Fixation	MissedWin	False
257.713	0.3	Win2	0.7406999999999999	0.0	No	2.926	0.0	4.0	NoResponse	0	3.639	n/a	4	26	ButtonPress	MissedWin	False
258.023	0.15	Win2	0.7406999999999999	0.001	No	2.926	-0.001	4.0	NoResponse	0	0.186	257.209	4	26	Target	MissedWin	False
258.173	0.55	Win2	0.7406999999999999	n/a	No	2.926	n/a	n/a	NoResponse	0	n/a	n/a	4	26	Blank	MissedWin	False
258.209	0.3	Win2	0.7406999999999999	0.001	No	2.926	-0.001	4.0	NoResponse	0	0.186	n/a	4	26	ButtonPress	MissedWin	False
258.722	1.45	Win2	0.7406999999999999	n/a	No	2.926	n/a	5.0	NoResponse	0	0.279	258.001	4	26	Feedback	MissedWin	False
260.172	2.926	Win2	0.7406999999999999	n/a	No	2.926	n/a	n/a	NoResponse	0	0.0	n/a	4	26	ISIslide	MissedWin	False
263.121	0.25	Lose2	0.7143	0.0	No	2.829	0.021	n/a	NoResponse	-1	n/a	n/a	3	27	Cue	Loss	True
263.371	4.05	Lose2	0.7143	0.0	No	2.829	0.0	n/a	NoResponse	-1	n/a	n/a	3	27	Fixation	Loss	True
267.419	0.15	Lose2	0.7143	0.002	No	2.829	-0.002	4.0	NoResponse	-1	0.191	266.61	3	27	Target	Loss	True
267.569	0.55	Lose2	0.7143	n/a	No	2.829	n/a	n/a	NoResponse	-1	n/a	n/a	3	27	Blank	Loss	True
267.61	0.3	Lose2	0.7143	0.002	No	2.829	-0.002	4.0	NoResponse	-1	0.191	n/a	3	27	ButtonPress	Loss	True
268.119	1.45	Lose2	0.7143	n/a	No	2.829	n/a	5.0	NoResponse	-1	0.882	268.001	3	27	Feedback	Loss	True
269.569	2.829	Lose2	0.7143	n/a	No	2.829	n/a	n/a	NoResponse	-1	0.0	n/a	3	27	ISIslide	Loss	True
272.418	0.25	Control	0.7241	0.0	Yes	2.832	0.018	n/a	GoodResponse	0	n/a	n/a	3	28	Cue	Neutral	False
272.667	4.05	Control	0.7241	0.001	Yes	2.832	-0.001	4.0	GoodResponse	0	3.636	275.303	3	28	Fixation	Neutral	False
276.303	0.3	Control	0.7241	0.001	Yes	2.832	-0.001	4.0	GoodResponse	0	3.636	n/a	3	28	ButtonPress	Neutral	False
276.716	0.15	Control	0.7241	0.002	Yes	2.832	-0.002	4.0	GoodResponse	0	0.144	275.86	3	28	Target	Neutral	False
276.86	0.3	Control	0.7241	0.002	Yes	2.832	-0.002	4.0	GoodResponse	0	0.144	n/a	3	28	ButtonPress	Neutral	False
276.866	0.55	Control	0.7241	n/a	Yes	2.832	n/a	n/a	GoodResponse	0	n/a	n/a	3	28	Blank	Neutral	False
277.416	1.45	Control	0.7241	n/a	Yes	2.832	n/a	n/a	GoodResponse	0	n/a	n/a	3	28	Feedback	Neutral	False
278.865	2.832	Control	0.7241	n/a	Yes	2.832	n/a	n/a	GoodResponse	0	0.0	n/a	3	28	ISIslide	Neutral	False
281.714	0.25	Lose2	0.7	0.0	No	2.836	0.014	n/a	NoResponse	-1	n/a	n/a	2	29	Cue	Loss	True
281.964	3.95	Lose2	0.7	0.0	No	2.836	0.0	n/a	NoResponse	-1	n/a	n/a	2	29	Fixation	Loss	True
285.913	0.15	Lose2	0.7	0.001	No	2.836	-0.001	4.0	NoResponse	-1	0.185	285.098	2	29	Target	Loss	True
286.063	0.55	Lose2	0.7	n/a	No	2.836	n/a	n/a	NoResponse	-1	n/a	n/a	2	29	Blank	Loss	True
286.098	0.3	Lose2	0.7	0.001	No	2.836	-0.001	4.0	NoResponse	-1	0.185	n/a	2	29	ButtonPress	Loss	True
286.613	1.45	Lose2	0.7	n/a	No	2.836	n/a	5.0	NoResponse	-1	0.387	286.0	2	29	Feedback	Loss	True
288.062	2.836	Lose2	0.7	n/a	No	2.836	n/a	n/a	NoResponse	-1	0.0	n/a	2	29	ISIslide	Loss	True
290.928	0.25	Win2	0.6774	0.0	No	2.772	0.028	n/a	NoResponse	0	n/a	n/a	2	30	Cue	MissedWin	True
291.178	3.9	Win2	0.6774	0.0	No	2.772	0.0	n/a	NoResponse	0	n/a	n/a	2	30	Fixation	MissedWin	True
295.076	0.15	Win2	0.6774	0.002	No	2.772	-0.002	4.0	NoResponse	0	0.183	294.259	2	30	Target	MissedWin	True
295.226	0.55	Win2	0.6774	n/a	No	2.772	n/a	n/a	NoResponse	0	n/a	n/a	2	30	Blank	MissedWin	True
295.259	0.3	Win2	0.6774	0.002	No	2.772	-0.002	4.0	NoResponse	0	0.183	n/a	2	30	ButtonPress	MissedWin	True
295.776	1.45	Win2	0.6774	n/a	No	2.772	n/a	5.0	NoResponse	0	1.224	296.0	2	30	Feedback	MissedWin	True
297.226	2.772	Win2	0.6774	n/a	No	2.772	n/a	n/a	NoResponse	0	0.0	n/a	2	30	ISIslide	MissedWin	True
300.025	0.25	Lose2	0.6562	0.0	No	2.825	0.025	n/a	NoResponse	-1	n/a	n/a	1	31	Cue	Loss	True
300.275	4.05	Lose2	0.6562	0.0	No	2.825	0.0	n/a	NoResponse	-1	n/a	n/a	1	31	Fixation	Loss	True
304.323	0.15	Lose2	0.6562	0.002	No	2.825	-0.002	4.0	NoResponse	-1	0.219	303.542	1	31	Target	Loss	True
304.473	0.55	Lose2	0.6562	n/a	No	2.825	n/a	n/a	NoResponse	-1	n/a	n/a	1	31	Blank	Loss	True
304.542	0.3	Lose2	0.6562	0.002	No	2.825	-0.002	4.0	NoResponse	-1	0.219	n/a	1	31	ButtonPress	Loss	True
305.023	1.45	Lose2	0.6562	n/a	No	2.825	n/a	n/a	NoResponse	-1	n/a	n/a	1	31	Feedback	Loss	True
306.472	2.825	Lose2	0.6562	n/a	No	2.825	n/a	n/a	NoResponse	-1	0.0	n/a	1	31	ISIslide	Loss	True
309.321	0.25	Lose2	0.6364	0.0	No	2.629	0.021	n/a	NoResponse	-1	n/a	n/a	0	32	Cue	Loss	True
309.571	4.15	Lose2	0.6364	0.0	No	2.629	0.0	4.0	NoResponse	-1	2.496	311.067	0	32	Fixation	Loss	True
312.067	0.3	Lose2	0.6364	0.0	No	2.629	0.0	4.0	NoResponse	-1	2.496	n/a	0	32	ButtonPress	Loss	True
313.72	0.15	Lose2	0.6364	0.001	No	2.629	-0.001	n/a	NoResponse	-1	n/a	n/a	0	32	Target	Loss	True
313.87	0.55	Lose2	0.6364	n/a	No	2.629	n/a	n/a	NoResponse	-1	n/a	n/a	0	32	Blank	Loss	True
314.42	1.45	Lose2	0.6364	n/a	No	2.629	n/a	5.0	NoResponse	-1	0.58	314.0	0	32	Feedback	Loss	True
315.869	2.629	Lose2	0.6364	n/a	No	2.629	n/a	n/a	NoResponse	-1	0.0	n/a	0	32	ISIslide	Loss	True
318.518	0.25	Win2	0.6175999999999999	0.0	No	2.682	0.018	n/a	NoResponse	0	n/a	n/a	0	33	Cue	MissedWin	True
318.768	4.0	Win2	0.6175999999999999	0.0	No	2.682	0.0	n/a	NoResponse	0	n/a	n/a	0	33	Fixation	MissedWin	True
322.767	0.16	Win2	0.6175999999999999	0.001	No	2.682	-0.001	4.0	NoResponse	0	0.233	322.0	0	33	Target	MissedWin	True
322.933	0.54	Win2	0.6175999999999999	n/a	No	2.682	n/a	n/a	NoResponse	0	n/a	n/a	0	33	Blank	MissedWin	True
323	0.3	Win2	0.6175999999999999	0.001	No	2.682	-0.001	4.0	NoResponse	0	0.233	n/a	0	33	ButtonPress	MissedWin	True
323.466	1.45	Win2	0.6175999999999999	n/a	No	2.682	n/a	n/a	NoResponse	0	n/a	n/a	0	33	Feedback	MissedWin	True
324.916	2.682	Win2	0.6175999999999999	n/a	No	2.682	n/a	n/a	NoResponse	0	0.0	n/a	0	33	ISIslide	MissedWin	True
327.615	0.25	Lose2	0.6	0.0	No	2.635	0.015	n/a	PrematurePress	-1	n/a	n/a	-1	34	Cue	Loss	False
327.865	4.05	Lose2	0.6	0.0	No	2.635	0.0	4.0	PrematurePress	-1	3.458	330.323	-1	34	Fixation	Loss	False
331.323	0.3	Lose2	0.6	0.0	No	2.635	0.0	4.0	PrematurePress	-1	3.458	n/a	-1	34	ButtonPress	Loss	False
331.913	0.17	Lose2	0.6	0.002	No	2.635	-0.002	4.0	PrematurePress	-1	0.013	330.926	-1	34	Target	Loss	False
331.926	0.3	Lose2	0.6	0.002	No	2.635	-0.002	4.0	PrematurePress	-1	0.013	n/a	-1	34	ButtonPress	Loss	False
332.097	0.53	Lose2	0.6	n/a	No	2.635	n/a	n/a	PrematurePress	-1	n/a	n/a	-1	34	Blank	Loss	False
332.613	1.45	Lose2	0.6	n/a	No	2.635	n/a	5.0	PrematurePress	-1	0.386	331.999	-1	34	Feedback	Loss	False
334.063	2.635	Lose2	0.6	n/a	No	2.635	n/a	n/a	PrematurePress	-1	0.0	n/a	-1	34	ISIslide	Loss	False
336.728	0.25	Lose2	0.5832999999999999	0.001	No	2.672	0.028	n/a	NoResponse	-1	n/a	n/a	-2	35	Cue	Loss	True
336.978	4.0	Lose2	0.5832999999999999	0.0	No	2.672	0.0	n/a	NoResponse	-1	n/a	n/a	-2	35	Fixation	Loss	True
340.977	0.18	Lose2	0.5832999999999999	0.001	No	2.672	-0.001	4.0	NoResponse	-1	0.223	340.2	-2	35	Target	Loss	True
341.16	0.52	Lose2	0.5832999999999999	n/a	No	2.672	n/a	n/a	NoResponse	-1	n/a	n/a	-2	35	Blank	Loss	True
341.2	0.3	Lose2	0.5832999999999999	0.001	No	2.672	-0.001	4.0	NoResponse	-1	0.223	n/a	-2	35	ButtonPress	Loss	True
341.677	1.45	Lose2	0.5832999999999999	n/a	No	2.672	n/a	5.0	NoResponse	-1	1.323	342.0	-2	35	Feedback	Loss	True
343.126	2.672	Lose2	0.5832999999999999	n/a	No	2.672	n/a	n/a	NoResponse	-1	0.0	n/a	-2	35	ISIslide	Loss	True
345.825	0.25	Control	0.5946	0.0	Yes	2.675	0.025	n/a	GoodResponse	0	n/a	n/a	-2	36	Cue	Neutral	True
346.075	4.0	Control	0.5946	0.0	Yes	2.675	0.0	n/a	GoodResponse	0	n/a	n/a	-2	36	Fixation	Neutral	True
350.074	0.19	Control	0.5946	0.001	Yes	2.675	-0.001	4.0	GoodResponse	0	0.183	349.257	-2	36	Target	Neutral	True
350.257	0.3	Control	0.5946	0.001	Yes	2.675	-0.001	4.0	GoodResponse	0	0.183	n/a	-2	36	ButtonPress	Neutral	True
350.274	0.51	Control	0.5946	n/a	Yes	2.675	n/a	n/a	GoodResponse	0	n/a	n/a	-2	36	Blank	Neutral	True
350.774	1.45	Control	0.5946	n/a	Yes	2.675	n/a	5.0	GoodResponse	0	0.226	350.0	-2	36	Feedback	Neutral	True
352.223	2.675	Control	0.5946	n/a	Yes	2.675	n/a	n/a	GoodResponse	0	0.0	n/a	-2	36	ISIslide	Neutral	True
354.922	0.25	Win2	0.6053000000000001	0.0	Yes	2.878	0.022	n/a	GoodResponse	1	n/a	n/a	-1	37	Cue	Win	True
355.172	4.0	Win2	0.6053000000000001	0.0	Yes	2.878	0.0	n/a	GoodResponse	1	n/a	n/a	-1	37	Fixation	Win	True
359.171	0.2	Win2	0.6053000000000001	0.001	Yes	2.878	-0.001	4.0	GoodResponse	1	0.183	358.354	-1	37	Target	Win	True
359.354	0.3	Win2	0.6053000000000001	0.001	Yes	2.878	-0.001	4.0	GoodResponse	1	0.183	n/a	-1	37	ButtonPress	Win	True
359.371	0.5	Win2	0.6053000000000001	n/a	Yes	2.878	n/a	n/a	GoodResponse	1	n/a	n/a	-1	37	Blank	Win	True
359.87	1.45	Win2	0.6053000000000001	n/a	Yes	2.878	n/a	5.0	GoodResponse	1	1.13	360.0	-1	37	Feedback	Win	True
361.32	2.878	Win2	0.6053000000000001	n/a	Yes	2.878	n/a	4.0	GoodResponse	1	2.462	n/a	-1	37	ISIslide	Win	True
364.202	0.25	Lose2	0.5897	0.0	No	2.848	0.002	n/a	NoResponse	-1	n/a	n/a	-2	38	Cue	Loss	False
364.452	3.95	Lose2	0.5897	0.0	No	2.848	0.0	n/a	NoResponse	-1	n/a	n/a	-2	38	Fixation	Loss	False
368.401	0.21	Lose2	0.5897	0.001	No	2.848	-0.001	n/a	NoResponse	-1	n/a	n/a	-2	38	Target	Loss	False
368.617	0.49	Lose2	0.5897	n/a	No	2.848	n/a	n/a	NoResponse	-1	n/a	n/a	-2	38	Blank	Loss	False
369.101	1.45	Lose2	0.5897	n/a	No	2.848	n/a	n/a	NoResponse	-1	n/a	n/a	-2	38	Feedback	Loss	False
370.55	2.848	Lose2	0.5897	n/a	No	2.848	n/a	4.0	NoResponse	-1	1.997	n/a	-2	38	ISIslide	Loss	False
373.399	0.25	Win2	0.575	0.0	No	3.001	-0.001	n/a	LatePress	0	n/a	n/a	-2	39	Cue	MissedWin	True
373.649	4.1	Win2	0.575	0.0	No	3.001	0.0	n/a	LatePress	0	n/a	n/a	-2	39	Fixation	MissedWin	True
377.748	0.22	Win2	0.575	0.001	No	3.001	-0.001	4.0	LatePress	0	0.22	376.968	-2	39	Target	MissedWin	True
377.968	0.3	Win2	0.575	0.001	No	3.001	-0.001	4.0	LatePress	0	0.22	n/a	-2	39	ButtonPress	MissedWin	True
377.981	0.48	Win2	0.575	n/a	No	3.001	n/a	n/a	LatePress	0	n/a	n/a	-2	39	Blank	MissedWin	True
378.447	1.45	Win2	0.575	n/a	No	3.001	n/a	5.0	LatePress	0	0.552	377.999	-2	39	Feedback	MissedWin	True
379.897	3.001	Win2	0.575	n/a	No	3.001	n/a	n/a	LatePress	0	0.0	n/a	-2	39	ISIslide	MissedWin	True
382.929	0.25	Win2	0.561	0.0	No	2.721	0.029	n/a	NoResponse	0	n/a	n/a	-2	40	Cue	MissedWin	True
383.179	3.95	Win2	0.561	0.0	No	2.721	0.0	n/a	NoResponse	0	n/a	n/a	-2	40	Fixation	MissedWin	True
387.128	0.23	Win2	0.561	0.001	No	2.721	-0.001	4.0	NoResponse	0	0.241	386.369	-2	40	Target	MissedWin	True
387.361	0.47	Win2	0.561	n/a	No	2.721	n/a	n/a	NoResponse	0	n/a	n/a	-2	40	Blank	MissedWin	True
387.369	0.3	Win2	0.561	0.001	No	2.721	-0.001	4.0	NoResponse	0	0.241	n/a	-2	40	ButtonPress	MissedWin	True
387.827	1.45	Win2	0.561	n/a	No	2.721	n/a	5.0	NoResponse	0	1.172	387.999	-2	40	Feedback	MissedWin	True
389.277	2.721	Win2	0.561	n/a	No	2.721	n/a	n/a	NoResponse	0	0.0	n/a	-2	40	ISIslide	MissedWin	True
392.026	0.25	Win2	0.5714	0.0	Yes	2.774	0.026	n/a	GoodResponse	1	n/a	n/a	-1	41	Cue	Win	True
392.276	3.9	Win2	0.5714	0.0	Yes	2.774	0.0	n/a	GoodResponse	1	n/a	n/a	-1	41	Fixation	Win	True
396.174	0.24	Win2	0.5714	0.002	Yes	2.774	-0.002	4.0	GoodResponse	1	0.189	395.363	-1	41	Target	Win	True
396.363	0.3	Win2	0.5714	0.002	Yes	2.774	-0.002	4.0	GoodResponse	1	0.189	n/a	-1	41	ButtonPress	Win	True
396.424	0.46	Win2	0.5714	n/a	Yes	2.774	n/a	n/a	GoodResponse	1	n/a	n/a	-1	41	Blank	Win	True
396.874	1.45	Win2	0.5714	n/a	Yes	2.774	n/a	5.0	GoodResponse	1	0.125	395.999	-1	41	Feedback	Win	True
398.324	2.774	Win2	0.5714	n/a	Yes	2.774	n/a	n/a	GoodResponse	1	0.0	n/a	-1	41	ISIslide	Win	True
401.123	0.25	Control	0.5814	0.0	Yes	2.927	0.023	n/a	GoodResponse	0	n/a	n/a	-1	42	Cue	Neutral	True
401.373	3.85	Control	0.5814	0.0	Yes	2.927	0.0	n/a	GoodResponse	0	n/a	n/a	-1	42	Fixation	Neutral	True
405.221	0.25	Control	0.5814	0.002	Yes	2.927	-0.002	4.0	GoodResponse	0	0.225	404.446	-1	42	Target	Neutral	True
405.446	0.3	Control	0.5814	0.002	Yes	2.927	-0.002	4.0	GoodResponse	0	0.225	n/a	-1	42	ButtonPress	Neutral	True
405.471	0.45	Control	0.5814	n/a	Yes	2.927	n/a	n/a	GoodResponse	0	n/a	n/a	-1	42	Blank	Neutral	True
405.921	1.45	Control	0.5814	n/a	Yes	2.927	n/a	5.0	GoodResponse	0	1.078	405.999	-1	42	Feedback	Neutral	True
407.371	2.927	Control	0.5814	n/a	Yes	2.927	n/a	n/a	GoodResponse	0	0.0	n/a	-1	42	ISIslide	Neutral	True
410.319	0.25	Win2	0.5909	0.001	Yes	3.181	0.019	n/a	GoodResponse	1	n/a	n/a	0	43	Cue	Win	True
410.569	4.0	Win2	0.5909	0.0	Yes	3.181	0.0	n/a	GoodResponse	1	n/a	n/a	0	43	Fixation	Win	True
414.568	0.26	Win2	0.5909	0.001	Yes	3.181	-0.001	4.0	GoodResponse	1	0.237	413.805	0	43	Target	Win	True
414.805	0.3	Win2	0.5909	0.001	Yes	3.181	-0.001	4.0	GoodResponse	1	0.237	n/a	0	43	ButtonPress	Win	True
414.835	0.44	Win2	0.5909	n/a	Yes	3.181	n/a	n/a	GoodResponse	1	n/a	n/a	0	43	Blank	Win	True
415.268	1.45	Win2	0.5909	n/a	Yes	3.181	n/a	n/a	GoodResponse	1	n/a	n/a	0	43	Feedback	Win	True
416.717	3.181	Win2	0.5909	n/a	Yes	3.181	n/a	n/a	GoodResponse	1	0.0	n/a	0	43	ISIslide	Win	True
419.916	0.25	Win2	0.6	0.0	Yes	2.984	0.016	n/a	GoodResponse	1	n/a	n/a	1	44	Cue	Win	True
420.166	4.0	Win2	0.6	0.0	Yes	2.984	0.0	n/a	GoodResponse	1	n/a	n/a	1	44	Fixation	Win	True
424.165	0.27	Win2	0.6	0.001	Yes	2.984	-0.001	4.0	GoodResponse	1	0.178	423.343	1	44	Target	Win	True
424.343	0.3	Win2	0.6	0.001	Yes	2.984	-0.001	4.0	GoodResponse	1	0.178	n/a	1	44	ButtonPress	Win	True
424.448	0.43	Win2	0.6	n/a	Yes	2.984	n/a	n/a	GoodResponse	1	n/a	n/a	1	44	Blank	Win	True
424.864	1.45	Win2	0.6	n/a	Yes	2.984	n/a	5.0	GoodResponse	1	0.135	423.999	1	44	Feedback	Win	True
426.314	2.984	Win2	0.6	n/a	Yes	2.984	n/a	n/a	GoodResponse	1	0.0	n/a	1	44	ISIslide	Win	True
429.313	0.25	Control	0.6087	0.0	Yes	2.887	0.013	n/a	GoodResponse	0	n/a	n/a	1	45	Cue	Neutral	True
429.563	4.1	Control	0.6087	0.0	Yes	2.887	0.0	n/a	GoodResponse	0	n/a	n/a	1	45	Fixation	Neutral	True
433.661	0.28	Control	0.6087	0.002	Yes	2.887	-0.002	4.0	GoodResponse	0	0.198	432.859	1	45	Target	Neutral	True
433.859	0.3	Control	0.6087	0.002	Yes	2.887	-0.002	4.0	GoodResponse	0	0.198	n/a	1	45	ButtonPress	Neutral	True
433.945	0.42	Control	0.6087	n/a	Yes	2.887	n/a	n/a	GoodResponse	0	n/a	n/a	1	45	Blank	Neutral	True
434.361	1.45	Control	0.6087	n/a	Yes	2.887	n/a	5.0	GoodResponse	0	0.638	433.999	1	45	Feedback	Neutral	True
435.811	2.887	Control	0.6087	n/a	Yes	2.887	n/a	n/a	GoodResponse	0	0.0	n/a	1	45	ISIslide	Neutral	True
438.726	0.25	Lose2	0.617	0.0	Yes	3.374	0.026	n/a	GoodResponse	0	n/a	n/a	1	46	Cue	AvoidedLoss	True
438.976	4.0	Lose2	0.617	0.0	Yes	3.374	0.0	n/a	GoodResponse	0	n/a	n/a	1	46	Fixation	AvoidedLoss	True
442.975	0.29	Lose2	0.617	0.001	Yes	3.374	-0.001	4.0	GoodResponse	0	0.219	442.194	1	46	Target	AvoidedLoss	True
443.194	0.3	Lose2	0.617	0.001	Yes	3.374	-0.001	4.0	GoodResponse	0	0.219	n/a	1	46	ButtonPress	AvoidedLoss	True
443.275	0.41	Lose2	0.617	n/a	Yes	3.374	n/a	n/a	GoodResponse	0	n/a	n/a	1	46	Blank	AvoidedLoss	True
443.675	1.45	Lose2	0.617	n/a	Yes	3.374	n/a	5.0	GoodResponse	0	1.324	443.999	1	46	Feedback	AvoidedLoss	True
445.124	3.374	Lose2	0.617	n/a	Yes	3.374	n/a	n/a	GoodResponse	0	0.0	n/a	1	46	ISIslide	AvoidedLoss	True
448.523	0.25	Lose2	0.625	0.0	Yes	2.677	0.023	n/a	GoodResponse	0	n/a	n/a	1	47	Cue	AvoidedLoss	True
448.773	4.0	Lose2	0.625	0.0	Yes	2.677	0.0	n/a	GoodResponse	0	n/a	n/a	1	47	Fixation	AvoidedLoss	True
452.771	0.3	Lose2	0.625	0.002	Yes	2.677	-0.002	4.0	GoodResponse	0	0.196	451.967	1	47	Target	AvoidedLoss	True
452.967	0.3	Lose2	0.625	0.002	Yes	2.677	-0.002	4.0	GoodResponse	0	0.196	n/a	1	47	ButtonPress	AvoidedLoss	True
453.071	0.4	Lose2	0.625	n/a	Yes	2.677	n/a	n/a	GoodResponse	0	n/a	n/a	1	47	Blank	AvoidedLoss	True
453.471	1.45	Lose2	0.625	n/a	Yes	2.677	n/a	n/a	GoodResponse	0	n/a	n/a	1	47	Feedback	AvoidedLoss	True
454.921	2.677	Lose2	0.625	n/a	Yes	2.677	n/a	n/a	GoodResponse	0	0.0	n/a	1	47	ISIslide	AvoidedLoss	True
457.62	0.25	Lose2	0.6327	0.0	Yes	3.03	0.02	n/a	GoodResponse	0	n/a	n/a	1	48	Cue	AvoidedLoss	True
457.87	3.95	Lose2	0.6327	0.0	Yes	3.03	0.0	n/a	GoodResponse	0	n/a	n/a	1	48	Fixation	AvoidedLoss	True
461.818	0.31	Lose2	0.6327	0.002	Yes	3.03	-0.002	4.0	GoodResponse	0	0.183	461.001	1	48	Target	AvoidedLoss	True
462.001	0.3	Lose2	0.6327	0.002	Yes	3.03	-0.002	4.0	GoodResponse	0	0.183	n/a	1	48	ButtonPress	AvoidedLoss	True
462.135	0.39	Lose2	0.6327	n/a	Yes	3.03	n/a	n/a	GoodResponse	0	n/a	n/a	1	48	Blank	AvoidedLoss	True
462.518	1.45	Lose2	0.6327	n/a	Yes	3.03	n/a	5.0	GoodResponse	0	0.481	461.999	1	48	Feedback	AvoidedLoss	True
463.967	3.03	Lose2	0.6327	n/a	Yes	3.03	n/a	n/a	GoodResponse	0	0.0	n/a	1	48	ISIslide	AvoidedLoss	True
467.016	0.25	Control	0.64	0.0	Yes	2.884	0.016	n/a	GoodResponse	0	n/a	n/a	1	49	Cue	Neutral	True
467.266	4.0	Control	0.64	0.0	Yes	2.884	0.0	n/a	GoodResponse	0	n/a	n/a	1	49	Fixation	Neutral	True
471.265	0.32	Control	0.64	0.001	Yes	2.884	-0.001	4.0	GoodResponse	0	0.203	470.468	1	49	Target	Neutral	True
471.468	0.3	Control	0.64	0.001	Yes	2.884	-0.001	4.0	GoodResponse	0	0.203	n/a	1	49	ButtonPress	Neutral	True
471.581	0.38	Control	0.64	n/a	Yes	2.884	n/a	n/a	GoodResponse	0	n/a	n/a	1	49	Blank	Neutral	True
471.965	1.45	Control	0.64	n/a	Yes	2.884	n/a	5.0	GoodResponse	0	1.034	471.999	1	49	Feedback	Neutral	True
473.414	2.884	Control	0.64	n/a	Yes	2.884	n/a	n/a	GoodResponse	0	0.0	n/a	1	49	ISIslide	Neutral	True
476.33	0.25	Control	0.6470999999999999	0.0	Yes	2.77	0.03	n/a	GoodResponse	0	n/a	n/a	1	50	Cue	Neutral	True
476.58	4.0	Control	0.6470999999999999	0.0	Yes	2.77	0.0	n/a	GoodResponse	0	n/a	n/a	1	50	Fixation	Neutral	True
480.578	0.33	Control	0.6470999999999999	0.002	Yes	2.77	-0.002	4.0	GoodResponse	0	0.228	479.806	1	50	Target	Neutral	True
480.806	0.3	Control	0.6470999999999999	0.002	Yes	2.77	-0.002	4.0	GoodResponse	0	0.228	n/a	1	50	ButtonPress	Neutral	True
480.912	0.37	Control	0.6470999999999999	n/a	Yes	2.77	n/a	n/a	GoodResponse	0	n/a	n/a	1	50	Blank	Neutral	True
481.278	1.45	Control	0.6470999999999999	n/a	Yes	2.77	n/a	n/a	GoodResponse	0	n/a	n/a	1	50	Feedback	Neutral	True
482.728	2.77	Control	0.6470999999999999	n/a	Yes	2.77	n/a	n/a	GoodResponse	0	0.0	n/a	1	50	ISIslide	Neutral	True
485.527	0.25	Control	0.6346	0.0	No	2.723	0.027	n/a	NoResponse	0	n/a	n/a	1	51	Cue	Neutral	True
485.776	3.95	Control	0.6346	0.001	No	2.723	-0.001	n/a	NoResponse	0	n/a	n/a	1	51	Fixation	Neutral	True
489.725	0.34	Control	0.6346	0.002	No	2.723	-0.002	4.0	NoResponse	0	0.509	489.234	1	51	Target	Neutral	True
490.075	0.36	Control	0.6346	n/a	No	2.723	n/a	n/a	NoResponse	0	n/a	n/a	1	51	Blank	Neutral	True
490.234	0.3	Control	0.6346	0.002	No	2.723	-0.002	4.0	NoResponse	0	0.509	n/a	1	51	ButtonPress	Neutral	True
490.425	1.45	Control	0.6346	n/a	No	2.723	n/a	5.0	NoResponse	0	0.573	489.998	1	51	Feedback	Neutral	True
491.874	2.723	Control	0.6346	n/a	No	2.723	n/a	n/a	NoResponse	0	0.0	n/a	1	51	ISIslide	Neutral	True
494.623	0.25	Control	0.6415000000000001	0.0	Yes	2.627	0.023	n/a	GoodResponse	0	n/a	n/a	1	52	Cue	Neutral	True
494.873	4.05	Control	0.6415000000000001	0.0	Yes	2.627	0.0	n/a	GoodResponse	0	n/a	n/a	1	52	Fixation	Neutral	True
498.922	0.35	Control	0.6415000000000001	0.001	Yes	2.627	-0.001	4.0	GoodResponse	0	0.193	498.115	1	52	Target	Neutral	True
499.115	0.3	Control	0.6415000000000001	0.001	Yes	2.627	-0.001	4.0	GoodResponse	0	0.193	n/a	1	52	ButtonPress	Neutral	True
499.272	0.35	Control	0.6415000000000001	n/a	Yes	2.627	n/a	n/a	GoodResponse	0	n/a	n/a	1	52	Blank	Neutral	True
499.622	1.45	Control	0.6415000000000001	n/a	Yes	2.627	n/a	5.0	GoodResponse	0	1.377	499.999	1	52	Feedback	Neutral	True
501.071	2.627	Control	0.6415000000000001	n/a	Yes	2.627	n/a	4.0	GoodResponse	0	1.609	n/a	1	52	ISIslide	Neutral	True
503.704	0.25	Win2	0.6481	0.0	Yes	2.946	0.004	n/a	GoodResponse	1	n/a	n/a	2	53	Cue	Win	True
503.953	4.05	Win2	0.6481	0.001	Yes	2.946	-0.001	n/a	GoodResponse	1	n/a	n/a	2	53	Fixation	Win	True
508.002	0.36	Win2	0.6481	0.002	Yes	2.946	-0.002	4.0	GoodResponse	1	0.21	507.212	2	53	Target	Win	True
508.212	0.3	Win2	0.6481	0.002	Yes	2.946	-0.002	4.0	GoodResponse	1	0.21	n/a	2	53	ButtonPress	Win	True
508.369	0.34	Win2	0.6481	n/a	Yes	2.946	n/a	n/a	GoodResponse	1	n/a	n/a	2	53	Blank	Win	True
508.702	1.45	Win2	0.6481	n/a	Yes	2.946	n/a	5.0	GoodResponse	1	0.297	507.999	2	53	Feedback	Win	True
510.151	2.946	Win2	0.6481	n/a	Yes	2.946	n/a	n/a	GoodResponse	1	0.0	n/a	2	53	ISIslide	Win	True
513.117	0.25	Win2	0.6545000000000001	0.0	Yes	2.733	0.017	n/a	GoodResponse	1	n/a	n/a	3	54	Cue	Win	True
513.367	3.95	Win2	0.6545000000000001	0.0	Yes	2.733	0.0	n/a	GoodResponse	1	n/a	n/a	3	54	Fixation	Win	True
517.315	0.37	Win2	0.6545000000000001	0.002	Yes	2.733	-0.002	4.0	GoodResponse	1	0.207	516.522	3	54	Target	Win	True
517.522	0.3	Win2	0.6545000000000001	0.002	Yes	2.733	-0.002	4.0	GoodResponse	1	0.207	n/a	3	54	ButtonPress	Win	True
517.699	0.33	Win2	0.6545000000000001	n/a	Yes	2.733	n/a	n/a	GoodResponse	1	n/a	n/a	3	54	Blank	Win	True
518.015	1.45	Win2	0.6545000000000001	n/a	Yes	2.733	n/a	5.0	GoodResponse	1	0.984	517.999	3	54	Feedback	Win	True
519.465	2.733	Win2	0.6545000000000001	n/a	Yes	2.733	n/a	n/a	GoodResponse	1	0.0	n/a	3	54	ISIslide	Win	True
522.23	0.25	Control	0.6607	0.001	Yes	3.02	0.03	n/a	GoodResponse	0	n/a	n/a	3	55	Cue	Neutral	True
522.48	3.95	Control	0.6607	0.0	Yes	3.02	0.0	n/a	GoodResponse	0	n/a	n/a	3	55	Fixation	Neutral	True
526.429	0.38	Control	0.6607	0.001	Yes	3.02	-0.001	4.0	GoodResponse	0	0.209	525.638	3	55	Target	Neutral	True
526.638	0.3	Control	0.6607	0.001	Yes	3.02	-0.001	4.0	GoodResponse	0	0.209	n/a	3	55	ButtonPress	Neutral	True
526.812	0.32	Control	0.6607	n/a	Yes	3.02	n/a	n/a	GoodResponse	0	n/a	n/a	3	55	Blank	Neutral	True
527.129	1.45	Control	0.6607	n/a	Yes	3.02	n/a	n/a	GoodResponse	0	n/a	n/a	3	55	Feedback	Neutral	True
528.578	3.02	Control	0.6607	n/a	Yes	3.02	n/a	n/a	GoodResponse	0	0.0	n/a	3	55	ISIslide	Neutral	True
531.627	0.25	Control	0.6667000000000001	0.0	Yes	2.823	0.027	n/a	GoodResponse	0	n/a	n/a	3	56	Cue	Neutral	True
531.877	3.95	Control	0.6667000000000001	0.0	Yes	2.823	0.0	n/a	GoodResponse	0	n/a	n/a	3	56	Fixation	Neutral	True
535.826	0.38	Control	0.6667000000000001	0.001	Yes	2.823	-0.001	4.0	GoodResponse	0	0.217	535.043	3	56	Target	Neutral	True
536.043	0.3	Control	0.6667000000000001	0.001	Yes	2.823	-0.001	4.0	GoodResponse	0	0.217	n/a	3	56	ButtonPress	Neutral	True
536.209	0.32	Control	0.6667000000000001	n/a	Yes	2.823	n/a	n/a	GoodResponse	0	n/a	n/a	3	56	Blank	Neutral	True
536.525	1.45	Control	0.6667000000000001	n/a	Yes	2.823	n/a	5.0	GoodResponse	0	0.473	535.998	3	56	Feedback	Neutral	True
537.975	2.823	Control	0.6667000000000001	n/a	Yes	2.823	n/a	n/a	GoodResponse	0	0.0	n/a	3	56	ISIslide	Neutral	True
540.824	0.25	Control	0.6724	0.0	Yes	3.476	0.024	n/a	GoodResponse	0	n/a	n/a	3	57	Cue	Neutral	True
541.074	4.0	Control	0.6724	0.0	Yes	3.476	0.0	n/a	GoodResponse	0	n/a	n/a	3	57	Fixation	Neutral	True
545.072	0.37	Control	0.6724	0.002	Yes	3.476	-0.002	4.0	GoodResponse	0	0.227	544.299	3	57	Target	Neutral	True
545.299	0.3	Control	0.6724	0.002	Yes	3.476	-0.002	4.0	GoodResponse	0	0.227	n/a	3	57	ButtonPress	Neutral	True
545.456	0.33	Control	0.6724	n/a	Yes	3.476	n/a	n/a	GoodResponse	0	n/a	n/a	3	57	Blank	Neutral	True
545.772	1.45	Control	0.6724	n/a	Yes	3.476	n/a	5.0	GoodResponse	0	1.226	545.998	3	57	Feedback	Neutral	True
547.222	3.476	Control	0.6724	n/a	Yes	3.476	n/a	n/a	GoodResponse	0	0.0	n/a	3	57	ISIslide	Neutral	True
550.72	0.25	Win2	0.6779999999999999	0.001	Yes	2.73	0.02	n/a	GoodResponse	1	n/a	n/a	4	58	Cue	Win	True
550.97	4.05	Win2	0.6779999999999999	0.0	Yes	2.73	0.0	n/a	GoodResponse	1	n/a	n/a	4	58	Fixation	Win	True
555.019	0.36	Win2	0.6779999999999999	0.001	Yes	2.73	-0.001	4.0	GoodResponse	1	0.306	554.325	4	58	Target	Win	True
555.325	0.3	Win2	0.6779999999999999	0.001	Yes	2.73	-0.001	4.0	GoodResponse	1	0.306	n/a	4	58	ButtonPress	Win	True
555.386	0.34	Win2	0.6779999999999999	n/a	Yes	2.73	n/a	n/a	GoodResponse	1	n/a	n/a	4	58	Blank	Win	True
555.719	1.45	Win2	0.6779999999999999	n/a	Yes	2.73	n/a	5.0	GoodResponse	1	1.279	555.998	4	58	Feedback	Win	True
557.168	2.73	Win2	0.6779999999999999	n/a	Yes	2.73	n/a	n/a	GoodResponse	1	0.0	n/a	4	58	ISIslide	Win	True
559.917	0.25	Lose2	0.6833	0.0	Yes	2.683	0.017	n/a	GoodResponse	0	n/a	n/a	4	59	Cue	AvoidedLoss	True
560.167	4.0	Lose2	0.6833	0.0	Yes	2.683	0.0	n/a	GoodResponse	0	n/a	n/a	4	59	Fixation	AvoidedLoss	True
564.166	0.35	Lose2	0.6833	0.001	Yes	2.683	-0.001	4.0	GoodResponse	0	0.242	563.408	4	59	Target	AvoidedLoss	True
564.408	0.3	Lose2	0.6833	0.001	Yes	2.683	-0.001	4.0	GoodResponse	0	0.242	n/a	4	59	ButtonPress	AvoidedLoss	True
564.516	0.35	Lose2	0.6833	n/a	Yes	2.683	n/a	n/a	GoodResponse	0	n/a	n/a	4	59	Blank	AvoidedLoss	True
564.866	1.45	Lose2	0.6833	n/a	Yes	2.683	n/a	5.0	GoodResponse	0	0.132	563.998	4	59	Feedback	AvoidedLoss	True
566.315	2.683	Lose2	0.6833	n/a	Yes	2.683	n/a	n/a	GoodResponse	0	0.0	n/a	4	59	ISIslide	AvoidedLoss	True
569.014	0.25	Control	0.6884999999999999	0.0	Yes	2.686	0.014	n/a	GoodResponse	0	n/a	n/a	4	60	Cue	Neutral	True
569.264	4.0	Control	0.6884999999999999	0.0	Yes	2.686	0.0	n/a	GoodResponse	0	n/a	n/a	4	60	Fixation	Neutral	True
573.263	0.34	Control	0.6884999999999999	0.001	Yes	2.686	-0.001	4.0	GoodResponse	0	0.197	572.46	4	60	Target	Neutral	True
573.46	0.3	Control	0.6884999999999999	0.001	Yes	2.686	-0.001	4.0	GoodResponse	0	0.197	n/a	4	60	ButtonPress	Neutral	True
573.612	0.36	Control	0.6884999999999999	n/a	Yes	2.686	n/a	n/a	GoodResponse	0	n/a	n/a	4	60	Blank	Neutral	True
573.962	1.45	Control	0.6884999999999999	n/a	Yes	2.686	n/a	5.0	GoodResponse	0	1.035	573.997	4	60	Feedback	Neutral	True
575.412	2.686	Control	0.6884999999999999	n/a	Yes	2.686	n/a	n/a	GoodResponse	0	0.0	n/a	4	60	ISIslide	Neutral	True
578.128	0.25	Lose2	0.6934999999999999	0.0	Yes	2.972	0.028	n/a	GoodResponse	0	n/a	n/a	4	61	Cue	AvoidedLoss	True
578.378	4.0	Lose2	0.6934999999999999	0.0	Yes	2.972	0.0	n/a	GoodResponse	0	n/a	n/a	4	61	Fixation	AvoidedLoss	True
582.376	0.33	Lose2	0.6934999999999999	0.002	Yes	2.972	-0.002	4.0	GoodResponse	0	0.193	581.569	4	61	Target	AvoidedLoss	True
582.569	0.3	Lose2	0.6934999999999999	0.002	Yes	2.972	-0.002	4.0	GoodResponse	0	0.193	n/a	4	61	ButtonPress	AvoidedLoss	True
582.709	0.37	Lose2	0.6934999999999999	n/a	Yes	2.972	n/a	n/a	GoodResponse	0	n/a	n/a	4	61	Blank	AvoidedLoss	True
583.076	1.45	Lose2	0.6934999999999999	n/a	Yes	2.972	n/a	n/a	GoodResponse	0	n/a	n/a	4	61	Feedback	AvoidedLoss	True
584.525	2.972	Lose2	0.6934999999999999	n/a	Yes	2.972	n/a	n/a	GoodResponse	0	0.0	n/a	4	61	ISIslide	AvoidedLoss	True
587.524	0.25	Lose2	0.6984	0.0	Yes	2.876	0.024	n/a	GoodResponse	0	n/a	n/a	4	62	Cue	AvoidedLoss	False
587.774	3.9	Lose2	0.6984	0.0	Yes	2.876	0.0	4.0	GoodResponse	0	3.74	590.514	4	62	Fixation	AvoidedLoss	False
591.514	0.3	Lose2	0.6984	0.0	Yes	2.876	0.0	4.0	GoodResponse	0	3.74	n/a	4	62	ButtonPress	AvoidedLoss	False
591.673	0.32	Lose2	0.6984	0.001	Yes	2.876	-0.001	4.0	GoodResponse	0	0.182	590.855	4	62	Target	AvoidedLoss	False
591.855	0.3	Lose2	0.6984	0.001	Yes	2.876	-0.001	4.0	GoodResponse	0	0.182	n/a	4	62	ButtonPress	AvoidedLoss	False
591.989	0.38	Lose2	0.6984	n/a	Yes	2.876	n/a	n/a	GoodResponse	0	n/a	n/a	4	62	Blank	AvoidedLoss	False
592.373	1.45	Lose2	0.6984	n/a	Yes	2.876	n/a	5.0	GoodResponse	0	0.625	591.998	4	62	Feedback	AvoidedLoss	False
593.822	2.876	Lose2	0.6984	n/a	Yes	2.876	n/a	n/a	GoodResponse	0	0.0	n/a	4	62	ISIslide	AvoidedLoss	False
596.721	0.25	Lose2	0.6875	0.0	No	2.629	0.021	n/a	LatePress	-1	n/a	n/a	3	63	Cue	Loss	True
596.971	4.05	Lose2	0.6875	0.0	No	2.629	0.0	n/a	LatePress	-1	n/a	n/a	3	63	Fixation	Loss	True
601.02	0.31	Lose2	0.6875	0.001	No	2.629	-0.001	4.0	LatePress	-1	0.311	600.331	3	63	Target	Loss	True
601.331	0.3	Lose2	0.6875	0.001	No	2.629	-0.001	4.0	LatePress	-1	0.311	n/a	3	63	ButtonPress	Loss	True
601.336	0.39	Lose2	0.6875	n/a	No	2.629	n/a	n/a	LatePress	-1	n/a	n/a	3	63	Blank	Loss	True
601.719	1.45	Lose2	0.6875	n/a	No	2.629	n/a	5.0	LatePress	-1	1.279	601.998	3	63	Feedback	Loss	True
603.169	2.629	Lose2	0.6875	n/a	No	2.629	n/a	n/a	LatePress	-1	0.0	n/a	3	63	ISIslide	Loss	True
605.818	0.25	Win2	0.6923	0.0	Yes	3.132	0.018	n/a	GoodResponse	1	n/a	n/a	4	64	Cue	Win	True
606.068	4.15	Win2	0.6923	0.0	Yes	3.132	0.0	n/a	GoodResponse	1	n/a	n/a	4	64	Fixation	Win	True
610.216	0.3	Win2	0.6923	0.002	Yes	3.132	-0.002	4.0	GoodResponse	1	0.191	609.407	4	64	Target	Win	True
610.407	0.3	Win2	0.6923	0.002	Yes	3.132	-0.002	4.0	GoodResponse	1	0.191	n/a	4	64	ButtonPress	Win	True
610.516	0.4	Win2	0.6923	n/a	Yes	3.132	n/a	n/a	GoodResponse	1	n/a	n/a	4	64	Blank	Win	True
610.916	1.45	Win2	0.6923	n/a	Yes	3.132	n/a	5.0	GoodResponse	1	0.082	609.998	4	64	Feedback	Win	True
612.366	3.132	Win2	0.6923	n/a	Yes	3.132	n/a	n/a	GoodResponse	1	0.0	n/a	4	64	ISIslide	Win	True
615.515	0.25	Control	0.6970000000000001	0.0	Yes	2.785	0.015	n/a	GoodResponse	0	n/a	n/a	4	65	Cue	Neutral	True
615.764	4.0	Control	0.6970000000000001	0.001	Yes	2.785	-0.001	n/a	GoodResponse	0	n/a	n/a	4	65	Fixation	Neutral	True
619.763	0.29	Control	0.6970000000000001	0.002	Yes	2.785	-0.002	4.0	GoodResponse	0	0.196	618.959	4	65	Target	Neutral	True
619.959	0.3	Control	0.6970000000000001	0.002	Yes	2.785	-0.002	4.0	GoodResponse	0	0.196	n/a	4	65	ButtonPress	Neutral	True
620.063	0.41	Control	0.6970000000000001	n/a	Yes	2.785	n/a	n/a	GoodResponse	0	n/a	n/a	4	65	Blank	Neutral	True
620.463	1.45	Control	0.6970000000000001	n/a	Yes	2.785	n/a	5.0	GoodResponse	0	0.535	619.998	4	65	Feedback	Neutral	True
621.912	2.785	Control	0.6970000000000001	n/a	Yes	2.785	n/a	n/a	GoodResponse	0	0.0	n/a	4	65	ISIslide	Neutral	True
624.711	0.25	Win2	0.7015	0.0	Yes	2.789	0.011	n/a	GoodResponse	1	n/a	n/a	5	66	Cue	Win	True
624.961	3.9	Win2	0.7015	0.0	Yes	2.789	0.0	n/a	GoodResponse	1	n/a	n/a	5	66	Fixation	Win	True
628.86	0.28	Win2	0.7015	0.001	Yes	2.789	-0.001	4.0	GoodResponse	1	0.112	627.972	5	66	Target	Win	True
628.972	0.3	Win2	0.7015	0.001	Yes	2.789	-0.001	4.0	GoodResponse	1	0.112	n/a	5	66	ButtonPress	Win	True
629.143	0.42	Win2	0.7015	n/a	Yes	2.789	n/a	n/a	GoodResponse	1	n/a	n/a	5	66	Blank	Win	True
629.56	1.45	Win2	0.7015	n/a	Yes	2.789	n/a	5.0	GoodResponse	1	1.437	629.997	5	66	Feedback	Win	True
631.009	2.789	Win2	0.7015	n/a	Yes	2.789	n/a	n/a	GoodResponse	1	0.0	n/a	5	66	ISIslide	Win	True
633.825	0.25	Control	0.7059000000000001	0.0	Yes	2.725	0.025	n/a	GoodResponse	0	n/a	n/a	5	67	Cue	Neutral	False
634.075	3.95	Control	0.7059000000000001	0.0	Yes	2.725	0.0	4.0	GoodResponse	0	3.735	636.81	5	67	Fixation	Neutral	False
637.81	0.3	Control	0.7059000000000001	0.0	Yes	2.725	0.0	4.0	GoodResponse	0	3.735	n/a	5	67	ButtonPress	Neutral	False
638.023	0.27	Control	0.7059000000000001	0.002	Yes	2.725	-0.002	4.0	GoodResponse	0	0.259	637.282	5	67	Target	Neutral	False
638.282	0.3	Control	0.7059000000000001	0.002	Yes	2.725	-0.002	4.0	GoodResponse	0	0.259	n/a	5	67	ButtonPress	Neutral	False
638.307	0.43	Control	0.7059000000000001	n/a	Yes	2.725	n/a	n/a	GoodResponse	0	n/a	n/a	5	67	Blank	Neutral	False
638.723	1.45	Control	0.7059000000000001	n/a	Yes	2.725	n/a	5.0	GoodResponse	0	0.274	637.997	5	67	Feedback	Neutral	False
640.173	2.725	Control	0.7059000000000001	n/a	Yes	2.725	n/a	n/a	GoodResponse	0	0.0	n/a	5	67	ISIslide	Neutral	False
642.922	0.25	Win2	0.7101000000000001	0.0	Yes	3.078	0.022	n/a	GoodResponse	1	n/a	n/a	6	68	Cue	Win	True
643.172	4.0	Win2	0.7101000000000001	0.0	Yes	3.078	0.0	n/a	GoodResponse	1	n/a	n/a	6	68	Fixation	Win	True
647.17	0.26	Win2	0.7101000000000001	0.002	Yes	3.078	-0.002	4.0	GoodResponse	1	0.192	646.362	6	68	Target	Win	True
647.362	0.3	Win2	0.7101000000000001	0.002	Yes	3.078	-0.002	4.0	GoodResponse	1	0.192	n/a	6	68	ButtonPress	Win	True
647.437	0.44	Win2	0.7101000000000001	n/a	Yes	3.078	n/a	n/a	GoodResponse	1	n/a	n/a	6	68	Blank	Win	True
647.87	1.45	Win2	0.7101000000000001	n/a	Yes	3.078	n/a	5.0	GoodResponse	1	1.127	647.997	6	68	Feedback	Win	True
649.319	3.078	Win2	0.7101000000000001	n/a	Yes	3.078	n/a	n/a	GoodResponse	1	0.0	n/a	6	68	ISIslide	Win	True
652.418	0.25	Win2	0.7143	0.0	Yes	3.232	0.018	n/a	GoodResponse	1	n/a	n/a	7	69	Cue	Win	True
652.668	3.95	Win2	0.7143	0.0	Yes	3.232	0.0	n/a	GoodResponse	1	n/a	n/a	7	69	Fixation	Win	True
656.617	0.25	Win2	0.7143	0.001	Yes	3.232	-0.001	4.0	GoodResponse	1	0.225	655.842	7	69	Target	Win	True
656.842	0.3	Win2	0.7143	0.001	Yes	3.232	-0.001	4.0	GoodResponse	1	0.225	n/a	7	69	ButtonPress	Win	True
656.867	0.45	Win2	0.7143	n/a	Yes	3.232	n/a	n/a	GoodResponse	1	n/a	n/a	7	69	Blank	Win	True
657.317	1.45	Win2	0.7143	n/a	Yes	3.232	n/a	n/a	GoodResponse	1	n/a	n/a	7	69	Feedback	Win	True
658.766	3.232	Win2	0.7143	n/a	Yes	3.232	n/a	n/a	GoodResponse	1	0.0	n/a	7	69	ISIslide	Win	True
662.015	0.25	Lose2	0.7182999999999999	0.0	Yes	3.035	0.015	n/a	GoodResponse	0	n/a	n/a	7	70	Cue	AvoidedLoss	True
662.265	4.05	Lose2	0.7182999999999999	0.0	Yes	3.035	0.0	n/a	GoodResponse	0	n/a	n/a	7	70	Fixation	AvoidedLoss	True
666.313	0.24	Lose2	0.7182999999999999	0.002	Yes	3.035	-0.002	4.0	GoodResponse	0	0.207	665.52	7	70	Target	AvoidedLoss	True
666.52	0.3	Lose2	0.7182999999999999	0.002	Yes	3.035	-0.002	4.0	GoodResponse	0	0.207	n/a	7	70	ButtonPress	AvoidedLoss	True
666.563	0.46	Lose2	0.7182999999999999	n/a	Yes	3.035	n/a	n/a	GoodResponse	0	n/a	n/a	7	70	Blank	AvoidedLoss	True
667.013	1.45	Lose2	0.7182999999999999	n/a	Yes	3.035	n/a	n/a	GoodResponse	0	n/a	n/a	7	70	Feedback	AvoidedLoss	True
668.463	3.035	Lose2	0.7182999999999999	n/a	Yes	3.035	n/a	n/a	GoodResponse	0	0.0	n/a	7	70	ISIslide	AvoidedLoss	True
671.528	0.25	Win2	0.7082999999999999	0.0	No	2.722	0.028	n/a	NoResponse	0	n/a	n/a	7	71	Cue	MissedWin	True
671.778	4.05	Win2	0.7082999999999999	0.0	No	2.722	0.0	n/a	NoResponse	0	n/a	n/a	7	71	Fixation	MissedWin	True
675.827	0.23	Win2	0.7082999999999999	0.001	No	2.722	-0.001	4.0	NoResponse	0	0.285	675.112	7	71	Target	MissedWin	True
676.06	0.47	Win2	0.7082999999999999	n/a	No	2.722	n/a	n/a	NoResponse	0	n/a	n/a	7	71	Blank	MissedWin	True
676.112	0.3	Win2	0.7082999999999999	0.001	No	2.722	-0.001	4.0	NoResponse	0	0.285	n/a	7	71	ButtonPress	MissedWin	True
676.527	1.45	Win2	0.7082999999999999	n/a	No	2.722	n/a	5.0	NoResponse	0	0.47	675.997	7	71	Feedback	MissedWin	True
677.976	2.722	Win2	0.7082999999999999	n/a	No	2.722	n/a	n/a	NoResponse	0	0.0	n/a	7	71	ISIslide	MissedWin	True
680.725	0.25	Win2	0.6986	0.0	No	2.775	0.025	n/a	NoResponse	0	n/a	n/a	7	72	Cue	MissedWin	True
680.975	4.1	Win2	0.6986	0.0	No	2.775	0.0	4.0	NoResponse	0	2.005	681.98	7	72	Fixation	MissedWin	True
682.98	0.3	Win2	0.6986	0.0	No	2.775	0.0	4.0	NoResponse	0	2.005	n/a	7	72	ButtonPress	MissedWin	True
685.074	0.22	Win2	0.6986	0.001	No	2.775	-0.001	n/a	NoResponse	0	n/a	n/a	7	72	Target	MissedWin	True
685.307	0.48	Win2	0.6986	n/a	No	2.775	n/a	n/a	NoResponse	0	n/a	n/a	7	72	Blank	MissedWin	True
685.773	1.45	Win2	0.6986	n/a	No	2.775	n/a	5.0	NoResponse	0	1.224	685.997	7	72	Feedback	MissedWin	True
687.223	2.775	Win2	0.6986	n/a	No	2.775	n/a	n/a	NoResponse	0	0.0	n/a	7	72	ISIslide	MissedWin	True
690.022	0.25	Win2	0.7027	0.0	Yes	2.678	0.022	n/a	GoodResponse	1	n/a	n/a	8	73	Cue	Win	True
690.272	4.0	Win2	0.7027	0.0	Yes	2.678	0.0	n/a	GoodResponse	1	n/a	n/a	8	73	Fixation	Win	True
694.27	0.21	Win2	0.7027	0.002	Yes	2.678	-0.002	4.0	GoodResponse	1	0.186	693.456	8	73	Target	Win	True
694.456	0.3	Win2	0.7027	0.002	Yes	2.678	-0.002	4.0	GoodResponse	1	0.186	n/a	8	73	ButtonPress	Win	True
694.487	0.49	Win2	0.7027	n/a	Yes	2.678	n/a	n/a	GoodResponse	1	n/a	n/a	8	73	Blank	Win	True
694.97	1.45	Win2	0.7027	n/a	Yes	2.678	n/a	5.0	GoodResponse	1	0.027	693.997	8	73	Feedback	Win	True
696.42	2.678	Win2	0.7027	n/a	Yes	2.678	n/a	n/a	GoodResponse	1	0.0	n/a	8	73	ISIslide	Win	True
699.119	0.25	Lose2	0.6933	0.0	No	2.631	0.019	n/a	NoResponse	-1	n/a	n/a	7	74	Cue	Loss	False
699.369	4.05	Lose2	0.6933	0.0	No	2.631	0.0	4.0	NoResponse	-1	0.166	698.535	7	74	Fixation	Loss	False
699.535	0.3	Lose2	0.6933	0.0	No	2.631	0.0	4.0	NoResponse	-1	0.166	n/a	7	74	ButtonPress	Loss	False
703.417	0.2	Lose2	0.6933	0.002	No	2.631	-0.002	4.0	NoResponse	-1	0.209	702.626	7	74	Target	Loss	False
703.617	0.5	Lose2	0.6933	n/a	No	2.631	n/a	n/a	NoResponse	-1	n/a	n/a	7	74	Blank	Loss	False
703.626	0.3	Lose2	0.6933	0.002	No	2.631	-0.002	4.0	NoResponse	-1	0.209	n/a	7	74	ButtonPress	Loss	False
704.117	1.45	Lose2	0.6933	n/a	No	2.631	n/a	5.0	NoResponse	-1	0.88	703.997	7	74	Feedback	Loss	False
705.566	2.631	Lose2	0.6933	n/a	No	2.631	n/a	n/a	NoResponse	-1	0.0	n/a	7	74	ISIslide	Loss	False
708.216	0.25	Lose2	0.6842	0.0	No	2.934	0.016	n/a	NoResponse	-1	n/a	n/a	6	75	Cue	Loss	False
708.465	3.95	Lose2	0.6842	0.001	No	2.934	-0.001	4.0	NoResponse	-1	0.541	708.006	6	75	Fixation	Loss	False
709.006	0.3	Lose2	0.6842	0.001	No	2.934	-0.001	4.0	NoResponse	-1	0.541	n/a	6	75	ButtonPress	Loss	False
712.414	0.19	Lose2	0.6842	0.002	No	2.934	-0.002	4.0	NoResponse	-1	0.256	711.67	6	75	Target	Loss	False
712.614	0.51	Lose2	0.6842	n/a	No	2.934	n/a	n/a	NoResponse	-1	n/a	n/a	6	75	Blank	Loss	False
712.67	0.3	Lose2	0.6842	0.002	No	2.934	-0.002	4.0	NoResponse	-1	0.256	n/a	6	75	ButtonPress	Loss	False
713.114	1.45	Lose2	0.6842	n/a	No	2.934	n/a	n/a	NoResponse	-1	n/a	n/a	6	75	Feedback	Loss	False
714.563	2.934	Lose2	0.6842	n/a	No	2.934	n/a	n/a	NoResponse	-1	0.0	n/a	6	75	ISIslide	Loss	False
717.529	0.25	Control	0.6753	0.0	No	3.221	0.029	n/a	NoResponse	0	n/a	n/a	6	76	Cue	Neutral	False
717.779	4.05	Control	0.6753	0.0	No	3.221	0.0	4.0	NoResponse	0	1.316	718.095	6	76	Fixation	Neutral	False
719.095	0.3	Control	0.6753	0.0	No	3.221	0.0	4.0	NoResponse	0	1.316	n/a	6	76	ButtonPress	Neutral	False
721.827	0.18	Control	0.6753	0.002	No	3.221	-0.002	4.0	NoResponse	0	0.191	721.018	6	76	Target	Neutral	False
722.011	0.52	Control	0.6753	n/a	No	3.221	n/a	n/a	NoResponse	0	n/a	n/a	6	76	Blank	Neutral	False
722.018	0.3	Control	0.6753	0.002	No	3.221	-0.002	4.0	NoResponse	0	0.191	n/a	6	76	ButtonPress	Neutral	False
722.527	1.45	Control	0.6753	n/a	No	3.221	n/a	5.0	NoResponse	0	0.47	721.997	6	76	Feedback	Neutral	False
723.977	3.221	Control	0.6753	n/a	No	3.221	n/a	n/a	NoResponse	0	0.0	n/a	6	76	ISIslide	Neutral	False
727.226	0.25	Lose2	0.6667000000000001	0.0	No	2.574	0.026	n/a	LatePress	-1	n/a	n/a	5	77	Cue	Loss	False
727.475	3.95	Lose2	0.6667000000000001	0.001	No	2.574	-0.001	4.0	LatePress	-1	3.245	729.72	5	77	Fixation	Loss	False
730.72	0.3	Lose2	0.6667000000000001	0.001	No	2.574	-0.001	4.0	LatePress	-1	3.245	n/a	5	77	ButtonPress	Loss	False
731.424	0.17	Lose2	0.6667000000000001	0.002	No	2.574	-0.002	4.0	LatePress	-1	0.176	730.6	5	77	Target	Loss	False
731.6	0.3	Lose2	0.6667000000000001	0.002	No	2.574	-0.002	4.0	LatePress	-1	0.176	n/a	5	77	ButtonPress	Loss	False
731.607	0.53	Lose2	0.6667000000000001	n/a	No	2.574	n/a	n/a	LatePress	-1	n/a	n/a	5	77	Blank	Loss	False
732.124	1.45	Lose2	0.6667000000000001	n/a	No	2.574	n/a	n/a	LatePress	-1	n/a	n/a	5	77	Feedback	Loss	False
733.573	2.574	Lose2	0.6667000000000001	n/a	No	2.574	n/a	n/a	LatePress	-1	0.0	n/a	5	77	ISIslide	Loss	False
