onset	duration	cue_type	current_mean_accuracy	duration_error	is_hit	isi_adjusted	onset_delay	response	response_type	reward	rt	rt_time	total_reward	trial_number	trial_phase	trial_type	one_press
11.109	0.25	Control	1.0	0.0	Yes	2.941	0.009	n/a	GoodResponse	0	n/a	n/a	0	0	Cue	Neutral	True
11.36	3.85	Control	1.0	0.0	Yes	2.941	0.001	n/a	GoodResponse	0	n/a	n/a	0	0	Fixation	Neutral	True
15.205	0.4	Control	1.0	0.004	Yes	2.941	-0.004	2.0	GoodResponse	0	0.192	14.397	0	0	Target	Neutral	True
15.397	0.3	Control	1.0	0.004	Yes	2.941	-0.004	2.0	GoodResponse	0	0.192	n/a	0	0	ButtonPress	Neutral	True
15.606	0.3	Control	1.0	n/a	Yes	2.941	n/a	n/a	GoodResponse	0	n/a	n/a	0	0	Blank	Neutral	True
15.907	1.45	Control	1.0	n/a	Yes	2.941	n/a	5.0	GoodResponse	0	0.018	14.925	0	0	Feedback	Neutral	True
17.361	2.941	Control	1.0	n/a	Yes	2.941	n/a	n/a	GoodResponse	0	0.0	n/a	0	0	ISIslide	Neutral	True
20.32	0.25	Lose2	1.0	0.0	Yes	2.78	0.02	n/a	GoodResponse	0	n/a	n/a	0	1	Cue	AvoidedLoss	True
20.571	4.0	Lose2	1.0	0.0	Yes	2.78	0.001	n/a	GoodResponse	0	n/a	n/a	0	1	Fixation	AvoidedLoss	True
24.566	0.39	Lose2	1.0	0.004	Yes	2.78	-0.004	2.0	GoodResponse	0	0.178	23.744	0	1	Target	AvoidedLoss	True
24.744	0.3	Lose2	1.0	0.004	Yes	2.78	-0.004	2.0	GoodResponse	0	0.178	n/a	0	1	ButtonPress	AvoidedLoss	True
24.967	0.31	Lose2	1.0	n/a	Yes	2.78	n/a	n/a	GoodResponse	0	n/a	n/a	0	1	Blank	AvoidedLoss	True
25.268	1.45	Lose2	1.0	n/a	Yes	2.78	n/a	5.0	GoodResponse	0	0.023	24.291	0	1	Feedback	AvoidedLoss	True
26.722	2.78	Lose2	1.0	n/a	Yes	2.78	n/a	n/a	GoodResponse	0	0.0	n/a	0	1	ISIslide	AvoidedLoss	True
29.514	0.25	Control	1.0	0.0	Yes	2.586	0.014	n/a	GoodResponse	0	n/a	n/a	0	2	Cue	Neutral	True
29.765	4.1	Control	1.0	0.0	Yes	2.586	0.001	n/a	GoodResponse	0	n/a	n/a	0	2	Fixation	Neutral	True
33.86	0.38	Control	1.0	0.004	Yes	2.586	-0.004	2.0	GoodResponse	0	0.165	33.025	0	2	Target	Neutral	True
34.025	0.3	Control	1.0	0.004	Yes	2.586	-0.004	2.0	GoodResponse	0	0.165	n/a	0	2	ButtonPress	Neutral	True
34.245	0.32	Control	1.0	n/a	Yes	2.586	n/a	n/a	GoodResponse	0	n/a	n/a	0	2	Blank	Neutral	True
34.563	1.45	Control	1.0	n/a	Yes	2.586	n/a	5.0	GoodResponse	0	0.046	33.609	0	2	Feedback	Neutral	True
36.017	2.586	Control	1.0	n/a	Yes	2.586	n/a	n/a	GoodResponse	0	0.0	n/a	0	2	ISIslide	Neutral	True
38.625	0.25	Win2	1.0	0.0	Yes	2.825	0.025	n/a	GoodResponse	1	n/a	n/a	1	3	Cue	Win	True
38.875	3.95	Win2	1.0	0.001	Yes	2.825	0.0	n/a	GoodResponse	1	n/a	n/a	1	3	Fixation	Win	True
42.821	0.37	Win2	1.0	0.004	Yes	2.825	-0.004	2.0	GoodResponse	1	0.172	41.993	1	3	Target	Win	True
42.993	0.3	Win2	1.0	0.004	Yes	2.825	-0.004	2.0	GoodResponse	1	0.172	n/a	1	3	ButtonPress	Win	True
43.205	0.33	Win2	1.0	n/a	Yes	2.825	n/a	n/a	GoodResponse	1	n/a	n/a	1	3	Blank	Win	True
43.523	1.45	Win2	1.0	n/a	Yes	2.825	n/a	5.0	GoodResponse	1	0.012	42.535	1	3	Feedback	Win	True
44.977	2.825	Win2	1.0	n/a	Yes	2.825	n/a	n/a	GoodResponse	1	0.0	n/a	1	3	ISIslide	Win	True
47.819	0.25	Win2	1.0	0.0	Yes	3.281	0.019	n/a	GoodResponse	1	n/a	n/a	2	4	Cue	Win	True
48.07	4.0	Win2	1.0	0.0	Yes	3.281	0.001	n/a	GoodResponse	1	n/a	n/a	2	4	Fixation	Win	True
52.065	0.36	Win2	1.0	0.004	Yes	3.281	-0.004	2.0	GoodResponse	1	0.147	51.212	2	4	Target	Win	True
52.212	0.3	Win2	1.0	0.004	Yes	3.281	-0.004	2.0	GoodResponse	1	0.147	n/a	2	4	ButtonPress	Win	True
52.433	0.34	Win2	1.0	n/a	Yes	3.281	n/a	n/a	GoodResponse	1	n/a	n/a	2	4	Blank	Win	True
52.767	1.45	Win2	1.0	n/a	Yes	3.281	n/a	5.0	GoodResponse	1	0.036	51.803	2	4	Feedback	Win	True
54.221	3.281	Win2	1.0	n/a	Yes	3.281	n/a	n/a	GoodResponse	1	0.0	n/a	2	4	ISIslide	Win	True
57.531	0.25	Win2	1.0	0.0	Yes	2.769	0.031	n/a	GoodResponse	1	n/a	n/a	3	5	Cue	Win	True
57.782	4.0	Win2	1.0	0.0	Yes	2.769	0.001	n/a	GoodResponse	1	n/a	n/a	3	5	Fixation	Win	True
61.777	0.35	Win2	1.0	0.004	Yes	2.769	-0.004	2.0	GoodResponse	1	0.183	60.96	3	5	Target	Win	True
61.96	0.3	Win2	1.0	0.004	Yes	2.769	-0.004	2.0	GoodResponse	1	0.183	n/a	3	5	ButtonPress	Win	True
62.128	0.35	Win2	1.0	n/a	Yes	2.769	n/a	n/a	GoodResponse	1	n/a	n/a	3	5	Blank	Win	True
62.479	1.45	Win2	1.0	n/a	Yes	2.769	n/a	5.0	GoodResponse	1	0.031	61.51	3	5	Feedback	Win	True
63.934	2.769	Win2	1.0	n/a	Yes	2.769	n/a	n/a	GoodResponse	1	0.0	n/a	3	5	ISIslide	Win	True
66.725	0.25	Lose2	1.0	0.0	Yes	2.725	0.025	n/a	GoodResponse	0	n/a	n/a	3	6	Cue	AvoidedLoss	True
66.976	3.95	Lose2	1.0	0.0	Yes	2.725	0.001	n/a	GoodResponse	0	n/a	n/a	3	6	Fixation	AvoidedLoss	True
70.921	0.34	Lose2	1.0	0.004	Yes	2.725	-0.004	2.0	GoodResponse	0	0.181	70.102	3	6	Target	AvoidedLoss	True
71.102	0.3	Lose2	1.0	0.004	Yes	2.725	-0.004	2.0	GoodResponse	0	0.181	n/a	3	6	ButtonPress	AvoidedLoss	True
71.272	0.36	Lose2	1.0	n/a	Yes	2.725	n/a	n/a	GoodResponse	0	n/a	n/a	3	6	Blank	AvoidedLoss	True
71.623	1.45	Lose2	1.0	n/a	Yes	2.725	n/a	5.0	GoodResponse	0	0.009	70.632	3	6	Feedback	AvoidedLoss	True
73.078	2.725	Lose2	1.0	n/a	Yes	2.725	n/a	n/a	GoodResponse	0	0.0	n/a	3	6	ISIslide	AvoidedLoss	True
75.819	0.25	Lose2	1.0	0.0	Yes	4.031	0.019	n/a	GoodResponse	0	n/a	n/a	3	7	Cue	AvoidedLoss	True
76.07	4.05	Lose2	1.0	0.0	Yes	4.031	0.001	n/a	GoodResponse	0	n/a	n/a	3	7	Fixation	AvoidedLoss	True
80.115	0.33	Lose2	1.0	0.004	Yes	4.031	-0.004	2.0	GoodResponse	0	0.159	79.274	3	7	Target	AvoidedLoss	True
80.274	0.3	Lose2	1.0	0.004	Yes	4.031	-0.004	2.0	GoodResponse	0	0.159	n/a	3	7	ButtonPress	AvoidedLoss	True
80.45	0.37	Lose2	1.0	n/a	Yes	4.031	n/a	n/a	GoodResponse	0	n/a	n/a	3	7	Blank	AvoidedLoss	True
80.817	1.45	Lose2	1.0	n/a	Yes	4.031	n/a	5.0	GoodResponse	0	0.035	79.852	3	7	Feedback	AvoidedLoss	True
82.272	4.031	Lose2	1.0	n/a	Yes	4.031	n/a	n/a	GoodResponse	0	0.0	n/a	3	7	ISIslide	AvoidedLoss	True
86.317	0.25	Lose2	1.0	0.0	Yes	3.033	0.017	n/a	GoodResponse	0	n/a	n/a	3	8	Cue	AvoidedLoss	True
86.568	3.95	Lose2	1.0	0.0	Yes	3.033	0.001	n/a	GoodResponse	0	n/a	n/a	3	8	Fixation	AvoidedLoss	True
90.513	0.32	Lose2	1.0	0.004	Yes	3.033	-0.004	2.0	GoodResponse	0	0.181	89.694	3	8	Target	AvoidedLoss	True
90.694	0.3	Lose2	1.0	0.004	Yes	3.033	-0.004	2.0	GoodResponse	0	0.181	n/a	3	8	ButtonPress	AvoidedLoss	True
90.847	0.38	Lose2	1.0	n/a	Yes	3.033	n/a	n/a	GoodResponse	0	n/a	n/a	3	8	Blank	AvoidedLoss	True
91.215	1.45	Lose2	1.0	n/a	Yes	3.033	n/a	5.0	GoodResponse	0	0.026	90.241	3	8	Feedback	AvoidedLoss	True
92.669	3.033	Lose2	1.0	n/a	Yes	3.033	n/a	n/a	GoodResponse	0	0.0	n/a	3	8	ISIslide	AvoidedLoss	True
95.729	0.25	Lose2	1.0	0.0	Yes	3.121	0.029	n/a	GoodResponse	0	n/a	n/a	3	9	Cue	AvoidedLoss	True
95.979	3.95	Lose2	1.0	0.0	Yes	3.121	0.0	n/a	GoodResponse	0	n/a	n/a	3	9	Fixation	AvoidedLoss	True
99.941	0.31	Lose2	1.0	0.0	Yes	3.121	0.012	2.0	GoodResponse	0	0.17	99.111	3	9	Target	AvoidedLoss	True
100.111	0.3	Lose2	1.0	0.0	Yes	3.121	0.012	2.0	GoodResponse	0	0.17	n/a	3	9	ButtonPress	AvoidedLoss	True
100.242	0.39	Lose2	1.0	n/a	Yes	3.121	n/a	n/a	GoodResponse	0	n/a	n/a	3	9	Blank	AvoidedLoss	True
100.627	1.45	Lose2	1.0	n/a	Yes	3.121	n/a	5.0	GoodResponse	0	0.029	99.656	3	9	Feedback	AvoidedLoss	True
102.081	3.121	Lose2	1.0	n/a	Yes	3.121	n/a	n/a	GoodResponse	0	0.0	n/a	3	9	ISIslide	AvoidedLoss	True
105.224	0.25	Control	1.0	0.0	Yes	3.276	0.024	n/a	GoodResponse	0	n/a	n/a	3	10	Cue	Neutral	False
105.474	4.0	Control	1.0	0.0	Yes	3.276	0.0	2.0	GoodResponse	0	3.098	107.572	3	10	Fixation	Neutral	False
108.572	0.3	Control	1.0	0.0	Yes	3.276	0.0	2.0	GoodResponse	0	3.098	n/a	3	10	ButtonPress	Neutral	False
109.47	0.3	Control	1.0	0.004	Yes	3.276	-0.004	2.0	GoodResponse	0	0.208	108.678	3	10	Target	Neutral	False
109.678	0.3	Control	1.0	0.004	Yes	3.276	-0.004	2.0	GoodResponse	0	0.208	n/a	3	10	ButtonPress	Neutral	False
109.771	0.4	Control	1.0	n/a	Yes	3.276	n/a	n/a	GoodResponse	0	n/a	n/a	3	10	Blank	Neutral	False
110.172	1.45	Control	1.0	n/a	Yes	3.276	n/a	5.0	GoodResponse	0	0.045	109.217	3	10	Feedback	Neutral	False
111.626	3.276	Control	1.0	n/a	Yes	3.276	n/a	n/a	GoodResponse	0	0.0	n/a	3	10	ISIslide	Neutral	False
114.919	0.25	Lose2	1.0	0.0	Yes	2.731	0.019	n/a	GoodResponse	0	n/a	n/a	3	11	Cue	AvoidedLoss	True
115.17	4.05	Lose2	1.0	0.0	Yes	2.731	0.001	n/a	GoodResponse	0	n/a	n/a	3	11	Fixation	AvoidedLoss	True
119.215	0.29	Lose2	1.0	0.004	Yes	2.731	-0.004	2.0	GoodResponse	0	0.134	118.349	3	11	Target	AvoidedLoss	True
119.349	0.3	Lose2	1.0	0.004	Yes	2.731	-0.004	2.0	GoodResponse	0	0.134	n/a	3	11	ButtonPress	AvoidedLoss	True
119.516	0.41	Lose2	1.0	n/a	Yes	2.731	n/a	n/a	GoodResponse	0	n/a	n/a	3	11	Blank	AvoidedLoss	True
119.917	1.45	Lose2	1.0	n/a	Yes	2.731	n/a	5.0	GoodResponse	0	0.008	118.925	3	11	Feedback	AvoidedLoss	True
121.372	2.731	Lose2	1.0	n/a	Yes	2.731	n/a	n/a	GoodResponse	0	0.0	n/a	3	11	ISIslide	AvoidedLoss	True
124.13	0.25	Control	1.0	0.0	Yes	2.97	0.03	n/a	GoodResponse	0	n/a	n/a	3	12	Cue	Neutral	True
124.381	3.9	Control	1.0	0.0	Yes	2.97	0.001	n/a	GoodResponse	0	n/a	n/a	3	12	Fixation	Neutral	True
128.276	0.28	Control	1.0	0.004	Yes	2.97	-0.004	2.0	GoodResponse	0	0.185	127.461	3	12	Target	Neutral	True
128.461	0.3	Control	1.0	0.004	Yes	2.97	-0.004	2.0	GoodResponse	0	0.185	n/a	3	12	ButtonPress	Neutral	True
128.56	0.42	Control	1.0	n/a	Yes	2.97	n/a	n/a	GoodResponse	0	n/a	n/a	3	12	Blank	Neutral	True
128.978	1.45	Control	1.0	n/a	Yes	2.97	n/a	5.0	GoodResponse	0	0.019	127.997	3	12	Feedback	Neutral	True
130.432	2.97	Control	1.0	n/a	Yes	2.97	n/a	n/a	GoodResponse	0	0.0	n/a	3	12	ISIslide	Neutral	True
133.424	0.25	Control	1.0	0.001	Yes	2.776	0.024	n/a	GoodResponse	0	n/a	n/a	3	13	Cue	Neutral	True
133.675	4.0	Control	1.0	0.0	Yes	2.776	0.001	n/a	GoodResponse	0	n/a	n/a	3	13	Fixation	Neutral	True
137.67	0.27	Control	1.0	0.004	Yes	2.776	-0.004	2.0	GoodResponse	0	0.182	136.852	3	13	Target	Neutral	True
137.852	0.3	Control	1.0	0.004	Yes	2.776	-0.004	2.0	GoodResponse	0	0.182	n/a	3	13	ButtonPress	Neutral	True
137.955	0.43	Control	1.0	n/a	Yes	2.776	n/a	n/a	GoodResponse	0	n/a	n/a	3	13	Blank	Neutral	True
138.373	1.45	Control	1.0	n/a	Yes	2.776	n/a	5.0	GoodResponse	0	0.038	137.411	3	13	Feedback	Neutral	True
139.827	2.776	Control	1.0	n/a	Yes	2.776	n/a	n/a	GoodResponse	0	0.0	n/a	3	13	ISIslide	Neutral	True
142.619	0.25	Win2	0.9333	0.0	No	2.681	0.019	n/a	NoResponse	0	n/a	n/a	3	14	Cue	MissedWin	True
142.869	4.1	Win2	0.9333	0.0	No	2.681	0.0	2.0	NoResponse	0	3.065	144.934	3	14	Fixation	MissedWin	True
145.934	0.3	Win2	0.9333	0.0	No	2.681	0.0	2.0	NoResponse	0	3.065	n/a	3	14	ButtonPress	MissedWin	True
146.965	0.26	Win2	0.9333	0.004	No	2.681	-0.004	n/a	NoResponse	0	n/a	n/a	3	14	Target	MissedWin	True
147.232	0.44	Win2	0.9333	n/a	No	2.681	n/a	n/a	NoResponse	0	n/a	n/a	3	14	Blank	MissedWin	True
147.667	1.45	Win2	0.9333	n/a	No	2.681	n/a	5.0	NoResponse	0	0.013	146.68	3	14	Feedback	MissedWin	True
149.121	2.681	Win2	0.9333	n/a	No	2.681	n/a	n/a	NoResponse	0	0.0	n/a	3	14	ISIslide	MissedWin	True
151.829	0.25	Control	0.9375	0.001	Yes	2.971	0.029	n/a	GoodResponse	0	n/a	n/a	3	15	Cue	Neutral	True
152.08	4.0	Control	0.9375	0.0	Yes	2.971	0.001	n/a	GoodResponse	0	n/a	n/a	3	15	Fixation	Neutral	True
156.075	0.25	Control	0.9375	0.004	Yes	2.971	-0.004	2.0	GoodResponse	0	0.223	155.298	3	15	Target	Neutral	True
156.298	0.3	Control	0.9375	0.004	Yes	2.971	-0.004	2.0	GoodResponse	0	0.223	n/a	3	15	ButtonPress	Neutral	True
156.326	0.45	Control	0.9375	n/a	Yes	2.971	n/a	n/a	GoodResponse	0	n/a	n/a	3	15	Blank	Neutral	True
156.778	1.45	Control	0.9375	n/a	Yes	2.971	n/a	5.0	GoodResponse	0	0.024	155.802	3	15	Feedback	Neutral	True
158.232	2.971	Control	0.9375	n/a	Yes	2.971	n/a	n/a	GoodResponse	0	0.0	n/a	3	15	ISIslide	Neutral	True
161.224	0.25	Win2	0.9412	0.0	Yes	2.876	0.024	n/a	GoodResponse	1	n/a	n/a	4	16	Cue	Win	True
161.475	4.0	Win2	0.9412	0.0	Yes	2.876	0.001	n/a	GoodResponse	1	n/a	n/a	4	16	Fixation	Win	True
165.47	0.24	Win2	0.9412	0.004	Yes	2.876	-0.004	2.0	GoodResponse	1	0.188	164.658	4	16	Target	Win	True
165.658	0.3	Win2	0.9412	0.004	Yes	2.876	-0.004	2.0	GoodResponse	1	0.188	n/a	4	16	ButtonPress	Win	True
165.721	0.46	Win2	0.9412	n/a	Yes	2.876	n/a	n/a	GoodResponse	1	n/a	n/a	4	16	Blank	Win	True
166.172	1.45	Win2	0.9412	n/a	Yes	2.876	n/a	5.0	GoodResponse	1	0.044	165.216	4	16	Feedback	Win	True
167.627	2.876	Win2	0.9412	n/a	Yes	2.876	n/a	n/a	GoodResponse	1	0.0	n/a	4	16	ISIslide	Win	True
170.519	0.25	Lose2	0.8889	0.0	No	2.731	0.019	n/a	NoResponse	-1	n/a	n/a	3	17	Cue	Loss	False
170.769	3.95	Lose2	0.8889	0.0	No	2.731	0.0	n/a	NoResponse	-1	n/a	n/a	3	17	Fixation	Loss	False
174.731	0.23	Lose2	0.8889	0.0	No	2.731	0.012	n/a	NoResponse	-1	n/a	n/a	3	17	Target	Loss	False
174.948	0.47	Lose2	0.8889	n/a	No	2.731	n/a	n/a	NoResponse	-1	n/a	n/a	3	17	Blank	Loss	False
175.417	1.45	Lose2	0.8889	n/a	No	2.731	n/a	5.0	NoResponse	-1	0.018	174.435	3	17	Feedback	Loss	False
176.871	2.731	Lose2	0.8889	n/a	No	2.731	n/a	n/a	NoResponse	-1	0.0	n/a	3	17	ISIslide	Loss	False
179.629	0.25	Lose2	0.8946999999999999	0.0	Yes	2.721	0.029	n/a	GoodResponse	0	n/a	n/a	3	18	Cue	AvoidedLoss	True
179.88	4.05	Lose2	0.8946999999999999	0.0	Yes	2.721	0.001	n/a	GoodResponse	0	n/a	n/a	3	18	Fixation	AvoidedLoss	True
183.925	0.22	Lose2	0.8946999999999999	0.004	Yes	2.721	-0.004	2.0	GoodResponse	0	0.186	183.111	3	18	Target	AvoidedLoss	True
184.111	0.3	Lose2	0.8946999999999999	0.004	Yes	2.721	-0.004	2.0	GoodResponse	0	0.186	n/a	3	18	ButtonPress	AvoidedLoss	True
184.159	0.48	Lose2	0.8946999999999999	n/a	Yes	2.721	n/a	n/a	GoodResponse	0	n/a	n/a	3	18	Blank	AvoidedLoss	True
184.627	1.45	Lose2	0.8946999999999999	n/a	Yes	2.721	n/a	5.0	GoodResponse	0	0.028	183.655	3	18	Feedback	AvoidedLoss	True
186.082	2.721	Lose2	0.8946999999999999	n/a	Yes	2.721	n/a	n/a	GoodResponse	0	0.0	n/a	3	18	ISIslide	AvoidedLoss	True
188.823	0.25	Control	0.9	0.0	Yes	2.927	0.023	n/a	GoodResponse	0	n/a	n/a	3	19	Cue	Neutral	True
189.074	3.95	Control	0.9	0.0	Yes	2.927	0.001	n/a	GoodResponse	0	n/a	n/a	3	19	Fixation	Neutral	True
193.019	0.21	Control	0.9	0.004	Yes	2.927	-0.004	2.0	GoodResponse	0	0.187	192.206	3	19	Target	Neutral	True
193.206	0.3	Control	0.9	0.004	Yes	2.927	-0.004	2.0	GoodResponse	0	0.187	n/a	3	19	ButtonPress	Neutral	True
193.236	0.49	Control	0.9	n/a	Yes	2.927	n/a	n/a	GoodResponse	0	n/a	n/a	3	19	Blank	Neutral	True
193.721	1.45	Control	0.9	n/a	Yes	2.927	n/a	5.0	GoodResponse	0	0.007	192.728	3	19	Feedback	Neutral	True
195.176	2.927	Control	0.9	n/a	Yes	2.927	n/a	2.0	GoodResponse	0	0.964	n/a	3	19	ISIslide	Neutral	True
198.101	0.25	Control	0.9048	0.0	Yes	2.649	0.001	n/a	GoodResponse	0	n/a	n/a	3	20	Cue	Neutral	True
198.352	4.05	Control	0.9048	0.0	Yes	2.649	0.001	n/a	GoodResponse	0	n/a	n/a	3	20	Fixation	Neutral	True
202.397	0.2	Control	0.9048	0.004	Yes	2.649	-0.004	2.0	GoodResponse	0	0.161	201.558	3	20	Target	Neutral	True
202.558	0.3	Control	0.9048	0.004	Yes	2.649	-0.004	2.0	GoodResponse	0	0.161	n/a	3	20	ButtonPress	Neutral	True
202.598	0.5	Control	0.9048	n/a	Yes	2.649	n/a	n/a	GoodResponse	0	n/a	n/a	3	20	Blank	Neutral	True
203.099	1.45	Control	0.9048	n/a	Yes	2.649	n/a	5.0	GoodResponse	0	0.043	202.142	3	20	Feedback	Neutral	True
204.554	2.649	Control	0.9048	n/a	Yes	2.649	n/a	n/a	GoodResponse	0	0.0	n/a	3	20	ISIslide	Neutral	True
207.228	0.25	Control	0.8636	0.0	No	2.772	0.028	n/a	LatePress	0	n/a	n/a	3	21	Cue	Neutral	True
207.479	4.1	Control	0.8636	0.0	No	2.772	0.001	n/a	LatePress	0	n/a	n/a	3	21	Fixation	Neutral	True
211.575	0.19	Control	0.8636	0.003	No	2.772	-0.003	2.0	LatePress	0	0.199	210.774	3	21	Target	Neutral	True
211.774	0.3	Control	0.8636	0.003	No	2.772	-0.003	2.0	LatePress	0	0.199	n/a	3	21	ButtonPress	Neutral	True
211.775	0.51	Control	0.8636	n/a	No	2.772	n/a	n/a	LatePress	0	n/a	n/a	3	21	Blank	Neutral	True
212.277	1.45	Control	0.8636	n/a	No	2.772	n/a	5.0	LatePress	0	0.036	211.313	3	21	Feedback	Neutral	True
213.731	2.772	Control	0.8636	n/a	No	2.772	n/a	n/a	LatePress	0	0.0	n/a	3	21	ISIslide	Neutral	True
216.523	0.25	Control	0.8261	0.0	No	2.777	0.023	n/a	NoResponse	0	n/a	n/a	3	22	Cue	Neutral	True
216.773	4.0	Control	0.8261	0.0	No	2.777	0.0	n/a	NoResponse	0	n/a	n/a	3	22	Fixation	Neutral	True
220.769	0.18	Control	0.8261	0.004	No	2.777	-0.004	2.0	NoResponse	0	0.192	219.961	3	22	Target	Neutral	True
220.953	0.52	Control	0.8261	n/a	No	2.777	n/a	n/a	NoResponse	0	n/a	n/a	3	22	Blank	Neutral	True
220.961	0.3	Control	0.8261	0.004	No	2.777	-0.004	2.0	NoResponse	0	0.192	n/a	3	22	ButtonPress	Neutral	True
221.471	1.45	Control	0.8261	n/a	No	2.777	n/a	5.0	NoResponse	0	0.013	220.484	3	22	Feedback	Neutral	True
222.925	2.777	Control	0.8261	n/a	No	2.777	n/a	n/a	NoResponse	0	0.0	n/a	3	22	ISIslide	Neutral	True
225.717	0.25	Control	0.7917000000000001	0.0	No	2.783	0.017	n/a	NoResponse	0	n/a	n/a	3	23	Cue	Neutral	True
225.968	3.9	Control	0.7917000000000001	0.0	No	2.783	0.001	n/a	NoResponse	0	n/a	n/a	3	23	Fixation	Neutral	True
229.863	0.17	Control	0.7917000000000001	0.004	No	2.783	-0.004	2.0	NoResponse	0	0.244	229.107	3	23	Target	Neutral	True
230.046	0.53	Control	0.7917000000000001	n/a	No	2.783	n/a	n/a	NoResponse	0	n/a	n/a	3	23	Blank	Neutral	True
230.107	0.3	Control	0.7917000000000001	0.004	No	2.783	-0.004	2.0	NoResponse	0	0.244	n/a	3	23	ButtonPress	Neutral	True
230.565	1.45	Control	0.7917000000000001	n/a	No	2.783	n/a	5.0	NoResponse	0	0.041	229.606	3	23	Feedback	Neutral	True
232.019	2.783	Control	0.7917000000000001	n/a	No	2.783	n/a	n/a	NoResponse	0	0.0	n/a	3	23	ISIslide	Neutral	True
234.827	0.25	Win2	0.76	0.0	No	3.123	0.027	2.0	NoResponse	0	0.232	234.059	3	24	Cue	MissedWin	False
235.059	0.3	Win2	0.76	0.0	No	3.123	0.027	2.0	NoResponse	0	0.232	n/a	3	24	ButtonPress	MissedWin	False
235.078	3.95	Win2	0.76	0.0	No	3.123	0.001	n/a	NoResponse	0	n/a	n/a	3	24	Fixation	MissedWin	False
239.023	0.16	Win2	0.76	0.004	No	3.123	-0.004	2.0	NoResponse	0	0.186	238.209	3	24	Target	MissedWin	False
239.19	0.54	Win2	0.76	n/a	No	3.123	n/a	n/a	NoResponse	0	n/a	n/a	3	24	Blank	MissedWin	False
239.209	0.3	Win2	0.76	0.004	No	3.123	-0.004	2.0	NoResponse	0	0.186	n/a	3	24	ButtonPress	MissedWin	False
239.725	1.45	Win2	0.76	n/a	No	3.123	n/a	5.0	NoResponse	0	0.007	238.732	3	24	Feedback	MissedWin	False
241.18	3.123	Win2	0.76	n/a	No	3.123	n/a	n/a	NoResponse	0	0.0	n/a	3	24	ISIslide	MissedWin	False
244.322	0.25	Win2	0.7308	0.0	No	3.078	0.022	n/a	NoResponse	0	n/a	n/a	3	25	Cue	MissedWin	True
244.573	4.0	Win2	0.7308	0.0	No	3.078	0.001	n/a	NoResponse	0	n/a	n/a	3	25	Fixation	MissedWin	True
248.568	0.15	Win2	0.7308	0.004	No	3.078	-0.004	2.0	NoResponse	0	0.211	247.779	3	25	Target	MissedWin	True
248.719	0.55	Win2	0.7308	n/a	No	3.078	n/a	n/a	NoResponse	0	n/a	n/a	3	25	Blank	MissedWin	True
248.779	0.3	Win2	0.7308	0.004	No	3.078	-0.004	2.0	NoResponse	0	0.211	n/a	3	25	ButtonPress	MissedWin	True
249.27	1.45	Win2	0.7308	n/a	No	3.078	n/a	5.0	NoResponse	0	0.018	248.288	3	25	Feedback	MissedWin	True
250.725	3.078	Win2	0.7308	n/a	No	3.078	n/a	n/a	NoResponse	0	0.0	n/a	3	25	ISIslide	MissedWin	True
253.817	0.25	Win2	0.7037	0.0	No	2.933	0.017	n/a	NoResponse	0	n/a	n/a	3	26	Cue	MissedWin	True
254.068	3.95	Win2	0.7037	0.0	No	2.933	0.001	n/a	NoResponse	0	n/a	n/a	3	26	Fixation	MissedWin	True
258.013	0.15	Win2	0.7037	0.004	No	2.933	-0.004	2.0	NoResponse	0	0.162	257.175	3	26	Target	MissedWin	True
258.164	0.55	Win2	0.7037	n/a	No	2.933	n/a	n/a	NoResponse	0	n/a	n/a	3	26	Blank	MissedWin	True
258.175	0.3	Win2	0.7037	0.004	No	2.933	-0.004	2.0	NoResponse	0	0.162	n/a	3	26	ButtonPress	MissedWin	True
258.715	1.45	Win2	0.7037	n/a	No	2.933	n/a	5.0	NoResponse	0	0.036	257.751	3	26	Feedback	MissedWin	True
260.17	2.933	Win2	0.7037	n/a	No	2.933	n/a	n/a	NoResponse	0	0.0	n/a	3	26	ISIslide	MissedWin	True
263.129	0.25	Lose2	0.6786	0.0	No	2.821	0.029	n/a	NoResponse	-1	n/a	n/a	2	27	Cue	Loss	True
263.379	4.05	Lose2	0.6786	0.0	No	2.821	0.0	n/a	NoResponse	-1	n/a	n/a	2	27	Fixation	Loss	True
267.425	0.15	Lose2	0.6786	0.004	No	2.821	-0.004	2.0	NoResponse	-1	0.169	266.594	2	27	Target	Loss	True
267.575	0.55	Lose2	0.6786	n/a	No	2.821	n/a	n/a	NoResponse	-1	n/a	n/a	2	27	Blank	Loss	True
267.594	0.3	Lose2	0.6786	0.004	No	2.821	-0.004	2.0	NoResponse	-1	0.169	n/a	2	27	ButtonPress	Loss	True
268.127	1.45	Lose2	0.6786	n/a	No	2.821	n/a	5.0	NoResponse	-1	0.039	267.166	2	27	Feedback	Loss	True
269.581	2.821	Lose2	0.6786	n/a	No	2.821	n/a	n/a	NoResponse	-1	0.0	n/a	2	27	ISIslide	Loss	True
272.423	0.25	Control	0.6552	0.0	No	2.827	0.023	n/a	NoResponse	0	n/a	n/a	2	28	Cue	Neutral	False
272.674	4.05	Control	0.6552	0.0	No	2.827	0.001	n/a	NoResponse	0	n/a	n/a	2	28	Fixation	Neutral	False
276.719	0.15	Control	0.6552	0.004	No	2.827	-0.004	n/a	NoResponse	0	n/a	n/a	2	28	Target	Neutral	False
276.87	0.55	Control	0.6552	n/a	No	2.827	n/a	n/a	NoResponse	0	n/a	n/a	2	28	Blank	Neutral	False
277.421	1.45	Control	0.6552	n/a	No	2.827	n/a	5.0	NoResponse	0	0.012	276.433	2	28	Feedback	Neutral	False
278.876	2.827	Control	0.6552	n/a	No	2.827	n/a	n/a	NoResponse	0	0.0	n/a	2	28	ISIslide	Neutral	False
281.717	0.25	Lose2	0.6333	0.0	No	2.833	0.017	n/a	LatePress	-1	n/a	n/a	1	29	Cue	Loss	True
281.968	3.95	Lose2	0.6333	0.0	No	2.833	0.001	n/a	LatePress	-1	n/a	n/a	1	29	Fixation	Loss	True
285.913	0.15	Lose2	0.6333	0.004	No	2.833	-0.004	2.0	LatePress	-1	0.15	285.063	1	29	Target	Loss	True
286.063	0.3	Lose2	0.6333	0.004	No	2.833	-0.004	2.0	LatePress	-1	0.15	n/a	1	29	ButtonPress	Loss	True
286.064	0.55	Lose2	0.6333	n/a	No	2.833	n/a	n/a	LatePress	-1	n/a	n/a	1	29	Blank	Loss	True
286.615	1.45	Lose2	0.6333	n/a	No	2.833	n/a	5.0	LatePress	-1	0.038	285.653	1	29	Feedback	Loss	True
288.07	2.833	Lose2	0.6333	n/a	No	2.833	n/a	n/a	LatePress	-1	0.0	n/a	1	29	ISIslide	Loss	True
290.928	0.25	Win2	0.6129	0.0	No	2.772	0.028	n/a	NoResponse	0	n/a	n/a	1	30	Cue	MissedWin	True
291.179	3.9	Win2	0.6129	0.0	No	2.772	0.001	n/a	NoResponse	0	n/a	n/a	1	30	Fixation	MissedWin	True
295.074	0.16	Win2	0.6129	0.004	No	2.772	-0.004	2.0	NoResponse	0	0.189	294.263	1	30	Target	MissedWin	True
295.241	0.54	Win2	0.6129	n/a	No	2.772	n/a	n/a	NoResponse	0	n/a	n/a	1	30	Blank	MissedWin	True
295.263	0.3	Win2	0.6129	0.004	No	2.772	-0.004	2.0	NoResponse	0	0.189	n/a	1	30	ButtonPress	MissedWin	True
295.776	1.45	Win2	0.6129	n/a	No	2.772	n/a	5.0	NoResponse	0	0.048	294.824	1	30	Feedback	MissedWin	True
297.23	2.772	Win2	0.6129	n/a	No	2.772	n/a	n/a	NoResponse	0	0.0	n/a	1	30	ISIslide	MissedWin	True
300.022	0.25	Lose2	0.5938	0.0	No	2.828	0.022	n/a	LatePress	-1	n/a	n/a	0	31	Cue	Loss	True
300.273	4.05	Lose2	0.5938	0.0	No	2.828	0.001	n/a	LatePress	-1	n/a	n/a	0	31	Fixation	Loss	True
304.318	0.17	Lose2	0.5938	0.004	No	2.828	-0.004	2.0	LatePress	-1	0.175	303.493	0	31	Target	Loss	True
304.493	0.3	Lose2	0.5938	0.004	No	2.828	-0.004	2.0	LatePress	-1	0.175	n/a	0	31	ButtonPress	Loss	True
304.502	0.53	Lose2	0.5938	n/a	No	2.828	n/a	n/a	LatePress	-1	n/a	n/a	0	31	Blank	Loss	True
305.02	1.45	Lose2	0.5938	n/a	No	2.828	n/a	5.0	LatePress	-1	0.023	304.043	0	31	Feedback	Loss	True
306.475	2.828	Lose2	0.5938	n/a	No	2.828	n/a	n/a	LatePress	-1	0.0	n/a	0	31	ISIslide	Loss	True
309.316	0.25	Lose2	0.5758	0.001	No	2.634	0.016	n/a	NoResponse	-1	n/a	n/a	-1	32	Cue	Loss	True
309.567	4.15	Lose2	0.5758	0.0	No	2.634	0.001	n/a	NoResponse	-1	n/a	n/a	-1	32	Fixation	Loss	True
313.713	0.18	Lose2	0.5758	0.003	No	2.634	-0.003	2.0	NoResponse	-1	0.217	312.93	-1	32	Target	Loss	True
313.897	0.52	Lose2	0.5758	n/a	No	2.634	n/a	n/a	NoResponse	-1	n/a	n/a	-1	32	Blank	Loss	True
313.93	0.3	Lose2	0.5758	0.003	No	2.634	-0.003	2.0	NoResponse	-1	0.217	n/a	-1	32	ButtonPress	Loss	True
314.415	1.45	Lose2	0.5758	n/a	No	2.634	n/a	5.0	NoResponse	-1	0.042	313.457	-1	32	Feedback	Loss	True
315.869	2.634	Lose2	0.5758	n/a	No	2.634	n/a	n/a	NoResponse	-1	0.0	n/a	-1	32	ISIslide	Loss	True
318.527	0.25	Win2	0.5588000000000001	0.0	No	2.673	0.027	n/a	LatePress	0	n/a	n/a	-1	33	Cue	MissedWin	True
318.778	4.0	Win2	0.5588000000000001	0.0	No	2.673	0.001	n/a	LatePress	0	n/a	n/a	-1	33	Fixation	MissedWin	True
322.773	0.19	Win2	0.5588000000000001	0.004	No	2.673	-0.004	2.0	LatePress	0	0.201	321.974	-1	33	Target	MissedWin	True
322.974	0.51	Win2	0.5588000000000001	n/a	No	2.673	n/a	n/a	LatePress	0	n/a	n/a	-1	33	Blank	MissedWin	True
322.974	0.3	Win2	0.5588000000000001	0.004	No	2.673	-0.004	2.0	LatePress	0	0.201	n/a	-1	33	ButtonPress	MissedWin	True
323.475	1.45	Win2	0.5588000000000001	n/a	No	2.673	n/a	5.0	LatePress	0	0.008	322.483	-1	33	Feedback	MissedWin	True
324.93	2.673	Win2	0.5588000000000001	n/a	No	2.673	n/a	n/a	LatePress	0	0.0	n/a	-1	33	ISIslide	MissedWin	True
327.621	0.25	Lose2	0.5714	0.0	Yes	2.629	0.021	2.0	GoodResponse	0	0.18	326.801	-1	34	Cue	AvoidedLoss	False
327.801	0.3	Lose2	0.5714	0.0	Yes	2.629	0.021	2.0	GoodResponse	0	0.18	n/a	-1	34	ButtonPress	AvoidedLoss	False
327.872	4.05	Lose2	0.5714	0.0	Yes	2.629	0.001	n/a	GoodResponse	0	n/a	n/a	-1	34	Fixation	AvoidedLoss	False
331.917	0.2	Lose2	0.5714	0.004	Yes	2.629	-0.004	2.0	GoodResponse	0	0.192	331.109	-1	34	Target	AvoidedLoss	False
332.109	0.3	Lose2	0.5714	0.004	Yes	2.629	-0.004	2.0	GoodResponse	0	0.192	n/a	-1	34	ButtonPress	AvoidedLoss	False
332.118	0.5	Lose2	0.5714	n/a	Yes	2.629	n/a	n/a	GoodResponse	0	n/a	n/a	-1	34	Blank	AvoidedLoss	False
332.619	1.45	Lose2	0.5714	n/a	Yes	2.629	n/a	5.0	GoodResponse	0	0.033	331.652	-1	34	Feedback	AvoidedLoss	False
334.074	2.629	Lose2	0.5714	n/a	Yes	2.629	n/a	n/a	GoodResponse	0	0.0	n/a	-1	34	ISIslide	AvoidedLoss	False
336.715	0.25	Lose2	0.5832999999999999	0.0	Yes	2.685	0.015	n/a	GoodResponse	0	n/a	n/a	-1	35	Cue	AvoidedLoss	True
336.966	4.0	Lose2	0.5832999999999999	0.0	Yes	2.685	0.001	n/a	GoodResponse	0	n/a	n/a	-1	35	Fixation	AvoidedLoss	True
340.961	0.21	Lose2	0.5832999999999999	0.004	Yes	2.685	-0.004	2.0	GoodResponse	0	0.181	340.142	-1	35	Target	AvoidedLoss	True
341.142	0.3	Lose2	0.5832999999999999	0.004	Yes	2.685	-0.004	2.0	GoodResponse	0	0.181	n/a	-1	35	ButtonPress	AvoidedLoss	True
341.178	0.49	Lose2	0.5832999999999999	n/a	Yes	2.685	n/a	n/a	GoodResponse	0	n/a	n/a	-1	35	Blank	AvoidedLoss	True
341.663	1.45	Lose2	0.5832999999999999	n/a	Yes	2.685	n/a	5.0	GoodResponse	0	0.014	340.677	-1	35	Feedback	AvoidedLoss	True
343.117	2.685	Lose2	0.5832999999999999	n/a	Yes	2.685	n/a	n/a	GoodResponse	0	0.0	n/a	-1	35	ISIslide	AvoidedLoss	True
345.825	0.25	Control	0.5946	0.001	Yes	2.675	0.025	n/a	GoodResponse	0	n/a	n/a	-1	36	Cue	Neutral	True
346.076	4.0	Control	0.5946	0.0	Yes	2.675	0.001	n/a	GoodResponse	0	n/a	n/a	-1	36	Fixation	Neutral	True
350.071	0.22	Control	0.5946	0.004	Yes	2.675	-0.004	2.0	GoodResponse	0	0.165	349.236	-1	36	Target	Neutral	True
350.236	0.3	Control	0.5946	0.004	Yes	2.675	-0.004	2.0	GoodResponse	0	0.165	n/a	-1	36	ButtonPress	Neutral	True
350.306	0.48	Control	0.5946	n/a	Yes	2.675	n/a	n/a	GoodResponse	0	n/a	n/a	-1	36	Blank	Neutral	True
350.774	1.45	Control	0.5946	n/a	Yes	2.675	n/a	5.0	GoodResponse	0	0.024	349.798	-1	36	Feedback	Neutral	True
352.228	2.675	Control	0.5946	n/a	Yes	2.675	n/a	n/a	GoodResponse	0	0.0	n/a	-1	36	ISIslide	Neutral	True
354.919	0.25	Win2	0.6053000000000001	0.0	Yes	2.881	0.019	n/a	GoodResponse	1	n/a	n/a	0	37	Cue	Win	True
355.17	4.0	Win2	0.6053000000000001	0.0	Yes	2.881	0.001	n/a	GoodResponse	1	n/a	n/a	0	37	Fixation	Win	True
359.165	0.23	Win2	0.6053000000000001	0.004	Yes	2.881	-0.004	2.0	GoodResponse	1	0.183	358.348	0	37	Target	Win	True
359.348	0.3	Win2	0.6053000000000001	0.004	Yes	2.881	-0.004	2.0	GoodResponse	1	0.183	n/a	0	37	ButtonPress	Win	True
359.399	0.47	Win2	0.6053000000000001	n/a	Yes	2.881	n/a	n/a	GoodResponse	1	n/a	n/a	0	37	Blank	Win	True
359.867	1.45	Win2	0.6053000000000001	n/a	Yes	2.881	n/a	5.0	GoodResponse	1	0.008	358.875	0	37	Feedback	Win	True
361.322	2.881	Win2	0.6053000000000001	n/a	Yes	2.881	n/a	n/a	GoodResponse	1	0.0	n/a	0	37	ISIslide	Win	True
364.23	0.25	Lose2	0.6154	0.001	Yes	2.82	0.03	n/a	GoodResponse	0	n/a	n/a	0	38	Cue	AvoidedLoss	True
364.481	3.95	Lose2	0.6154	0.0	Yes	2.82	0.001	n/a	GoodResponse	0	n/a	n/a	0	38	Fixation	AvoidedLoss	True
368.426	0.24	Lose2	0.6154	0.004	Yes	2.82	-0.004	2.0	GoodResponse	0	0.158	367.584	0	38	Target	AvoidedLoss	True
368.584	0.3	Lose2	0.6154	0.004	Yes	2.82	-0.004	2.0	GoodResponse	0	0.158	n/a	0	38	ButtonPress	AvoidedLoss	True
368.677	0.46	Lose2	0.6154	n/a	Yes	2.82	n/a	n/a	GoodResponse	0	n/a	n/a	0	38	Blank	AvoidedLoss	True
369.128	1.45	Lose2	0.6154	n/a	Yes	2.82	n/a	5.0	GoodResponse	0	0.012	368.14	0	38	Feedback	AvoidedLoss	True
370.583	2.82	Lose2	0.6154	n/a	Yes	2.82	n/a	n/a	GoodResponse	0	0.0	n/a	0	38	ISIslide	AvoidedLoss	True
373.425	0.25	Win2	0.625	0.0	Yes	2.975	0.025	n/a	GoodResponse	1	n/a	n/a	1	39	Cue	Win	True
373.675	4.1	Win2	0.625	0.0	Yes	2.975	0.0	n/a	GoodResponse	1	n/a	n/a	1	39	Fixation	Win	True
377.771	0.25	Win2	0.625	0.004	Yes	2.975	-0.004	2.0	GoodResponse	1	0.229	377.0	1	39	Target	Win	True
378	0.3	Win2	0.625	0.004	Yes	2.975	-0.004	2.0	GoodResponse	1	0.229	n/a	1	39	ButtonPress	Win	True
378.022	0.45	Win2	0.625	n/a	Yes	2.975	n/a	n/a	GoodResponse	1	n/a	n/a	1	39	Blank	Win	True
378.473	1.45	Win2	0.625	n/a	Yes	2.975	n/a	5.0	GoodResponse	1	0.033	377.506	1	39	Feedback	Win	True
379.927	2.975	Win2	0.625	n/a	Yes	2.975	n/a	n/a	GoodResponse	1	0.0	n/a	1	39	ISIslide	Win	True
382.92	0.25	Win2	0.6341	0.0	Yes	2.73	0.02	n/a	GoodResponse	1	n/a	n/a	2	40	Cue	Win	True
383.17	3.95	Win2	0.6341	0.0	Yes	2.73	0.0	n/a	GoodResponse	1	n/a	n/a	2	40	Fixation	Win	True
387.115	0.26	Win2	0.6341	0.005	Yes	2.73	-0.005	2.0	GoodResponse	1	0.18	386.295	2	40	Target	Win	True
387.295	0.3	Win2	0.6341	0.005	Yes	2.73	-0.005	2.0	GoodResponse	1	0.18	n/a	2	40	ButtonPress	Win	True
387.383	0.44	Win2	0.6341	n/a	Yes	2.73	n/a	n/a	GoodResponse	1	n/a	n/a	2	40	Blank	Win	True
387.818	1.45	Win2	0.6341	n/a	Yes	2.73	n/a	5.0	GoodResponse	1	0.008	386.826	2	40	Feedback	Win	True
389.272	2.73	Win2	0.6341	n/a	Yes	2.73	n/a	n/a	GoodResponse	1	0.0	n/a	2	40	ISIslide	Win	True
392.03	0.25	Win2	0.6429	0.0	Yes	2.77	0.03	n/a	GoodResponse	1	n/a	n/a	3	41	Cue	Win	True
392.281	3.9	Win2	0.6429	0.0	Yes	2.77	0.001	n/a	GoodResponse	1	n/a	n/a	3	41	Fixation	Win	True
396.176	0.27	Win2	0.6429	0.004	Yes	2.77	-0.004	2.0	GoodResponse	1	0.244	395.42	3	41	Target	Win	True
396.42	0.3	Win2	0.6429	0.004	Yes	2.77	-0.004	2.0	GoodResponse	1	0.244	n/a	3	41	ButtonPress	Win	True
396.46	0.43	Win2	0.6429	n/a	Yes	2.77	n/a	n/a	GoodResponse	1	n/a	n/a	3	41	Blank	Win	True
396.878	1.45	Win2	0.6429	n/a	Yes	2.77	n/a	5.0	GoodResponse	1	0.017	395.895	3	41	Feedback	Win	True
398.332	2.77	Win2	0.6429	n/a	Yes	2.77	n/a	n/a	GoodResponse	1	0.0	n/a	3	41	ISIslide	Win	True
401.124	0.25	Control	0.6512	0.0	Yes	2.926	0.024	n/a	GoodResponse	0	n/a	n/a	3	42	Cue	Neutral	True
401.375	3.85	Control	0.6512	0.0	Yes	2.926	0.001	n/a	GoodResponse	0	n/a	n/a	3	42	Fixation	Neutral	True
405.22	0.28	Control	0.6512	0.004	Yes	2.926	-0.004	2.0	GoodResponse	0	0.17	404.39	3	42	Target	Neutral	True
405.39	0.3	Control	0.6512	0.004	Yes	2.926	-0.004	2.0	GoodResponse	0	0.17	n/a	3	42	ButtonPress	Neutral	True
405.504	0.42	Control	0.6512	n/a	Yes	2.926	n/a	n/a	GoodResponse	0	n/a	n/a	3	42	Blank	Neutral	True
405.922	1.45	Control	0.6512	n/a	Yes	2.926	n/a	5.0	GoodResponse	0	0.046	404.968	3	42	Feedback	Neutral	True
407.376	2.926	Control	0.6512	n/a	Yes	2.926	n/a	n/a	GoodResponse	0	0.0	n/a	3	42	ISIslide	Neutral	True
410.318	0.25	Win2	0.6591	0.0	Yes	3.182	0.018	n/a	GoodResponse	1	n/a	n/a	4	43	Cue	Win	True
410.569	4.0	Win2	0.6591	0.0	Yes	3.182	0.001	n/a	GoodResponse	1	n/a	n/a	4	43	Fixation	Win	True
414.564	0.29	Win2	0.6591	0.004	Yes	3.182	-0.004	2.0	GoodResponse	1	0.235	413.799	4	43	Target	Win	True
414.799	0.3	Win2	0.6591	0.004	Yes	3.182	-0.004	2.0	GoodResponse	1	0.235	n/a	4	43	ButtonPress	Win	True
414.865	0.41	Win2	0.6591	n/a	Yes	3.182	n/a	n/a	GoodResponse	1	n/a	n/a	4	43	Blank	Win	True
415.266	1.45	Win2	0.6591	n/a	Yes	3.182	n/a	5.0	GoodResponse	1	0.019	414.285	4	43	Feedback	Win	True
416.721	3.182	Win2	0.6591	n/a	Yes	3.182	n/a	n/a	GoodResponse	1	0.0	n/a	4	43	ISIslide	Win	True
419.93	0.25	Win2	0.6667000000000001	0.0	Yes	2.97	0.03	n/a	GoodResponse	1	n/a	n/a	5	44	Cue	Win	True
420.181	4.0	Win2	0.6667000000000001	0.0	Yes	2.97	0.001	n/a	GoodResponse	1	n/a	n/a	5	44	Fixation	Win	True
424.176	0.29	Win2	0.6667000000000001	0.004	Yes	2.97	-0.004	2.0	GoodResponse	1	0.18	423.356	5	44	Target	Win	True
424.356	0.3	Win2	0.6667000000000001	0.004	Yes	2.97	-0.004	2.0	GoodResponse	1	0.18	n/a	5	44	ButtonPress	Win	True
424.477	0.41	Win2	0.6667000000000001	n/a	Yes	2.97	n/a	n/a	GoodResponse	1	n/a	n/a	5	44	Blank	Win	True
424.878	1.45	Win2	0.6667000000000001	n/a	Yes	2.97	n/a	5.0	GoodResponse	1	0.016	423.894	5	44	Feedback	Win	True
426.333	2.97	Win2	0.6667000000000001	n/a	Yes	2.97	n/a	n/a	GoodResponse	1	0.0	n/a	5	44	ISIslide	Win	True
429.325	0.25	Control	0.6739	0.0	Yes	2.875	0.025	n/a	GoodResponse	0	n/a	n/a	5	45	Cue	Neutral	False
429.576	4.1	Control	0.6739	0.0	Yes	2.875	0.001	2.0	GoodResponse	0	3.249	431.825	5	45	Fixation	Neutral	False
432.825	0.3	Control	0.6739	0.0	Yes	2.875	0.001	2.0	GoodResponse	0	3.249	n/a	5	45	ButtonPress	Neutral	False
433.671	0.28	Control	0.6739	0.004	Yes	2.875	-0.004	2.0	GoodResponse	0	0.192	432.863	5	45	Target	Neutral	False
433.863	0.3	Control	0.6739	0.004	Yes	2.875	-0.004	2.0	GoodResponse	0	0.192	n/a	5	45	ButtonPress	Neutral	False
433.955	0.42	Control	0.6739	n/a	Yes	2.875	n/a	n/a	GoodResponse	0	n/a	n/a	5	45	Blank	Neutral	False
434.373	1.45	Control	0.6739	n/a	Yes	2.875	n/a	5.0	GoodResponse	0	0.034	433.407	5	45	Feedback	Neutral	False
435.828	2.875	Control	0.6739	n/a	Yes	2.875	n/a	n/a	GoodResponse	0	0.0	n/a	5	45	ISIslide	Neutral	False
438.72	0.25	Lose2	0.6809000000000001	0.0	Yes	3.38	0.02	n/a	GoodResponse	0	n/a	n/a	5	46	Cue	AvoidedLoss	True
438.97	4.0	Lose2	0.6809000000000001	0.0	Yes	3.38	0.0	n/a	GoodResponse	0	n/a	n/a	5	46	Fixation	AvoidedLoss	True
442.966	0.27	Lose2	0.6809000000000001	0.004	Yes	3.38	-0.004	2.0	GoodResponse	0	0.183	442.149	5	46	Target	AvoidedLoss	True
443.149	0.3	Lose2	0.6809000000000001	0.004	Yes	3.38	-0.004	2.0	GoodResponse	0	0.183	n/a	5	46	ButtonPress	AvoidedLoss	True
443.25	0.43	Lose2	0.6809000000000001	n/a	Yes	3.38	n/a	n/a	GoodResponse	0	n/a	n/a	5	46	Blank	AvoidedLoss	True
443.668	1.45	Lose2	0.6809000000000001	n/a	Yes	3.38	n/a	5.0	GoodResponse	0	0.008	442.676	5	46	Feedback	AvoidedLoss	True
445.122	3.38	Lose2	0.6809000000000001	n/a	Yes	3.38	n/a	n/a	GoodResponse	0	0.0	n/a	5	46	ISIslide	AvoidedLoss	True
448.515	0.25	Lose2	0.6875	0.001	Yes	2.685	0.015	n/a	GoodResponse	0	n/a	n/a	5	47	Cue	AvoidedLoss	True
448.766	4.0	Lose2	0.6875	0.0	Yes	2.685	0.001	n/a	GoodResponse	0	n/a	n/a	5	47	Fixation	AvoidedLoss	True
452.762	0.26	Lose2	0.6875	0.003	Yes	2.685	-0.003	2.0	GoodResponse	0	0.208	451.97	5	47	Target	AvoidedLoss	True
452.97	0.3	Lose2	0.6875	0.003	Yes	2.685	-0.003	2.0	GoodResponse	0	0.208	n/a	5	47	ButtonPress	AvoidedLoss	True
453.029	0.44	Lose2	0.6875	n/a	Yes	2.685	n/a	n/a	GoodResponse	0	n/a	n/a	5	47	Blank	AvoidedLoss	True
453.464	1.45	Lose2	0.6875	n/a	Yes	2.685	n/a	5.0	GoodResponse	0	0.016	452.48	5	47	Feedback	AvoidedLoss	True
454.918	2.685	Lose2	0.6875	n/a	Yes	2.685	n/a	n/a	GoodResponse	0	0.0	n/a	5	47	ISIslide	AvoidedLoss	True
457.626	0.25	Lose2	0.6939	0.0	Yes	3.024	0.026	n/a	GoodResponse	0	n/a	n/a	5	48	Cue	AvoidedLoss	True
457.877	3.95	Lose2	0.6939	0.0	Yes	3.024	0.001	n/a	GoodResponse	0	n/a	n/a	5	48	Fixation	AvoidedLoss	True
461.822	0.25	Lose2	0.6939	0.004	Yes	3.024	-0.004	2.0	GoodResponse	0	0.217	461.039	5	48	Target	AvoidedLoss	True
462.039	0.3	Lose2	0.6939	0.004	Yes	3.024	-0.004	2.0	GoodResponse	0	0.217	n/a	5	48	ButtonPress	AvoidedLoss	True
462.073	0.45	Lose2	0.6939	n/a	Yes	3.024	n/a	n/a	GoodResponse	0	n/a	n/a	5	48	Blank	AvoidedLoss	True
462.524	1.45	Lose2	0.6939	n/a	Yes	3.024	n/a	5.0	GoodResponse	0	0.028	461.552	5	48	Feedback	AvoidedLoss	True
463.978	3.024	Lose2	0.6939	n/a	Yes	3.024	n/a	n/a	GoodResponse	0	0.0	n/a	5	48	ISIslide	AvoidedLoss	True
467.021	0.25	Control	0.68	0.0	No	2.879	0.021	n/a	NoResponse	0	n/a	n/a	5	49	Cue	Neutral	True
467.272	4.0	Control	0.68	0.0	No	2.879	0.001	n/a	NoResponse	0	n/a	n/a	5	49	Fixation	Neutral	True
471.267	0.24	Control	0.68	0.004	No	2.879	-0.004	2.0	NoResponse	0	0.272	470.539	5	49	Target	Neutral	True
471.518	0.46	Control	0.68	n/a	No	2.879	n/a	n/a	NoResponse	0	n/a	n/a	5	49	Blank	Neutral	True
471.539	0.3	Control	0.68	0.004	No	2.879	-0.004	2.0	NoResponse	0	0.272	n/a	5	49	ButtonPress	Neutral	True
471.969	1.45	Control	0.68	n/a	No	2.879	n/a	5.0	NoResponse	0	0.047	471.016	5	49	Feedback	Neutral	True
473.423	2.879	Control	0.68	n/a	No	2.879	n/a	n/a	NoResponse	0	0.0	n/a	5	49	ISIslide	Neutral	True
476.315	0.25	Control	0.6862999999999999	0.0	Yes	2.785	0.015	n/a	GoodResponse	0	n/a	n/a	5	50	Cue	Neutral	True
476.566	4.0	Control	0.6862999999999999	0.0	Yes	2.785	0.001	n/a	GoodResponse	0	n/a	n/a	5	50	Fixation	Neutral	True
480.561	0.23	Control	0.6862999999999999	0.004	Yes	2.785	-0.004	2.0	GoodResponse	0	0.185	479.746	5	50	Target	Neutral	True
480.746	0.3	Control	0.6862999999999999	0.004	Yes	2.785	-0.004	2.0	GoodResponse	0	0.185	n/a	5	50	ButtonPress	Neutral	True
480.795	0.47	Control	0.6862999999999999	n/a	Yes	2.785	n/a	n/a	GoodResponse	0	n/a	n/a	5	50	Blank	Neutral	True
481.263	1.45	Control	0.6862999999999999	n/a	Yes	2.785	n/a	5.0	GoodResponse	0	0.021	480.284	5	50	Feedback	Neutral	True
482.718	2.785	Control	0.6862999999999999	n/a	Yes	2.785	n/a	n/a	GoodResponse	0	0.0	n/a	5	50	ISIslide	Neutral	True
485.526	0.25	Control	0.6731	0.0	No	2.724	0.026	n/a	NoResponse	0	n/a	n/a	5	51	Cue	Neutral	True
485.777	3.95	Control	0.6731	0.0	No	2.724	0.001	n/a	NoResponse	0	n/a	n/a	5	51	Fixation	Neutral	True
489.722	0.22	Control	0.6731	0.004	No	2.724	-0.004	2.0	NoResponse	0	0.279	489.001	5	51	Target	Neutral	True
489.956	0.48	Control	0.6731	n/a	No	2.724	n/a	n/a	NoResponse	0	n/a	n/a	5	51	Blank	Neutral	True
490.001	0.3	Control	0.6731	0.004	No	2.724	-0.004	2.0	NoResponse	0	0.279	n/a	5	51	ButtonPress	Neutral	True
490.424	1.45	Control	0.6731	n/a	No	2.724	n/a	5.0	NoResponse	0	0.031	489.455	5	51	Feedback	Neutral	True
491.878	2.724	Control	0.6731	n/a	No	2.724	n/a	n/a	NoResponse	0	0.0	n/a	5	51	ISIslide	Neutral	True
494.62	0.25	Control	0.6604000000000001	0.0	No	2.63	0.02	n/a	NoResponse	0	n/a	n/a	5	52	Cue	Neutral	False
494.871	4.05	Control	0.6604000000000001	0.0	No	2.63	0.001	n/a	NoResponse	0	n/a	n/a	5	52	Fixation	Neutral	False
498.916	0.21	Control	0.6604000000000001	0.004	No	2.63	-0.004	n/a	NoResponse	0	n/a	n/a	5	52	Target	Neutral	False
499.133	0.49	Control	0.6604000000000001	n/a	No	2.63	n/a	n/a	NoResponse	0	n/a	n/a	5	52	Blank	Neutral	False
499.618	1.45	Control	0.6604000000000001	n/a	No	2.63	n/a	5.0	NoResponse	0	0.007	498.625	5	52	Feedback	Neutral	False
501.072	2.63	Control	0.6604000000000001	n/a	No	2.63	n/a	n/a	NoResponse	0	0.0	n/a	5	52	ISIslide	Neutral	False
503.73	0.25	Win2	0.6667000000000001	0.0	Yes	2.92	0.03	n/a	GoodResponse	1	n/a	n/a	6	53	Cue	Win	True
503.981	4.05	Win2	0.6667000000000001	0.0	Yes	2.92	0.001	n/a	GoodResponse	1	n/a	n/a	6	53	Fixation	Win	True
508.027	0.21	Win2	0.6667000000000001	0.003	Yes	2.92	-0.003	2.0	GoodResponse	1	0.173	507.2	6	53	Target	Win	True
508.2	0.3	Win2	0.6667000000000001	0.003	Yes	2.92	-0.003	2.0	GoodResponse	1	0.173	n/a	6	53	ButtonPress	Win	True
508.244	0.49	Win2	0.6667000000000001	n/a	Yes	2.92	n/a	n/a	GoodResponse	1	n/a	n/a	6	53	Blank	Win	True
508.729	1.45	Win2	0.6667000000000001	n/a	Yes	2.92	n/a	5.0	GoodResponse	1	0.018	507.747	6	53	Feedback	Win	True
510.183	2.92	Win2	0.6667000000000001	n/a	Yes	2.92	n/a	n/a	GoodResponse	1	0.0	n/a	6	53	ISIslide	Win	True
513.125	0.25	Win2	0.6545000000000001	0.0	No	2.725	0.025	n/a	NoResponse	0	n/a	n/a	6	54	Cue	MissedWin	True
513.376	3.95	Win2	0.6545000000000001	0.0	No	2.725	0.001	n/a	NoResponse	0	n/a	n/a	6	54	Fixation	MissedWin	True
517.321	0.2	Win2	0.6545000000000001	0.004	No	2.725	-0.004	2.0	NoResponse	0	0.229	516.55	6	54	Target	MissedWin	True
517.522	0.5	Win2	0.6545000000000001	n/a	No	2.725	n/a	n/a	NoResponse	0	n/a	n/a	6	54	Blank	MissedWin	True
517.55	0.3	Win2	0.6545000000000001	0.004	No	2.725	-0.004	2.0	NoResponse	0	0.229	n/a	6	54	ButtonPress	MissedWin	True
518.023	1.45	Win2	0.6545000000000001	n/a	No	2.725	n/a	5.0	NoResponse	0	0.041	517.064	6	54	Feedback	MissedWin	True
519.477	2.725	Win2	0.6545000000000001	n/a	No	2.725	n/a	n/a	NoResponse	0	0.0	n/a	6	54	ISIslide	MissedWin	True
522.219	0.25	Control	0.6429	0.0	No	3.031	0.019	n/a	NoResponse	0	n/a	n/a	6	55	Cue	Neutral	True
522.47	3.95	Control	0.6429	0.0	No	3.031	0.001	n/a	NoResponse	0	n/a	n/a	6	55	Fixation	Neutral	True
526.415	0.21	Control	0.6429	0.004	No	3.031	-0.004	2.0	NoResponse	0	0.433	525.848	6	55	Target	Neutral	True
526.632	0.49	Control	0.6429	n/a	No	3.031	n/a	n/a	NoResponse	0	n/a	n/a	6	55	Blank	Neutral	True
526.848	0.3	Control	0.6429	0.004	No	3.031	-0.004	2.0	NoResponse	0	0.433	n/a	6	55	ButtonPress	Neutral	True
527.117	1.45	Control	0.6429	n/a	No	3.031	n/a	5.0	NoResponse	0	0.02	526.137	6	55	Feedback	Neutral	True
528.571	3.031	Control	0.6429	n/a	No	3.031	n/a	n/a	NoResponse	0	0.0	n/a	6	55	ISIslide	Neutral	True
531.63	0.25	Control	0.6315999999999999	0.0	No	2.82	0.03	n/a	LatePress	0	n/a	n/a	6	56	Cue	Neutral	True
531.881	3.95	Control	0.6315999999999999	0.0	No	2.82	0.001	n/a	LatePress	0	n/a	n/a	6	56	Fixation	Neutral	True
535.826	0.22	Control	0.6315999999999999	0.004	No	2.82	-0.004	2.0	LatePress	0	0.226	535.052	6	56	Target	Neutral	True
536.052	0.3	Control	0.6315999999999999	0.004	No	2.82	-0.004	2.0	LatePress	0	0.226	n/a	6	56	ButtonPress	Neutral	True
536.06	0.48	Control	0.6315999999999999	n/a	No	2.82	n/a	n/a	LatePress	0	n/a	n/a	6	56	Blank	Neutral	True
536.528	1.45	Control	0.6315999999999999	n/a	No	2.82	n/a	5.0	LatePress	0	0.023	535.551	6	56	Feedback	Neutral	True
537.983	2.82	Control	0.6315999999999999	n/a	No	2.82	n/a	n/a	LatePress	0	0.0	n/a	6	56	ISIslide	Neutral	True
540.825	0.25	Control	0.6379	0.0	Yes	3.475	0.025	n/a	GoodResponse	0	n/a	n/a	6	57	Cue	Neutral	True
541.075	4.0	Control	0.6379	0.0	Yes	3.475	0.0	n/a	GoodResponse	0	n/a	n/a	6	57	Fixation	Neutral	True
545.071	0.23	Control	0.6379	0.004	Yes	3.475	-0.004	2.0	GoodResponse	0	0.201	544.272	6	57	Target	Neutral	True
545.272	0.3	Control	0.6379	0.004	Yes	3.475	-0.004	2.0	GoodResponse	0	0.201	n/a	6	57	ButtonPress	Neutral	True
545.305	0.47	Control	0.6379	n/a	Yes	3.475	n/a	n/a	GoodResponse	0	n/a	n/a	6	57	Blank	Neutral	True
545.773	1.45	Control	0.6379	n/a	Yes	3.475	n/a	5.0	GoodResponse	0	0.046	544.819	6	57	Feedback	Neutral	True
547.227	3.475	Control	0.6379	n/a	Yes	3.475	n/a	n/a	GoodResponse	0	0.0	n/a	6	57	ISIslide	Neutral	True
550.721	0.25	Win2	0.6441	0.0	Yes	2.729	0.021	n/a	GoodResponse	1	n/a	n/a	7	58	Cue	Win	True
550.971	4.05	Win2	0.6441	0.001	Yes	2.729	0.0	n/a	GoodResponse	1	n/a	n/a	7	58	Fixation	Win	True
555.017	0.24	Win2	0.6441	0.004	Yes	2.729	-0.004	2.0	GoodResponse	1	0.206	554.223	7	58	Target	Win	True
555.223	0.3	Win2	0.6441	0.004	Yes	2.729	-0.004	2.0	GoodResponse	1	0.206	n/a	7	58	ButtonPress	Win	True
555.268	0.46	Win2	0.6441	n/a	Yes	2.729	n/a	n/a	GoodResponse	1	n/a	n/a	7	58	Blank	Win	True
555.719	1.45	Win2	0.6441	n/a	Yes	2.729	n/a	5.0	GoodResponse	1	0.008	554.727	7	58	Feedback	Win	True
557.173	2.729	Win2	0.6441	n/a	Yes	2.729	n/a	n/a	GoodResponse	1	0.0	n/a	7	58	ISIslide	Win	True
559.915	0.25	Lose2	0.65	0.0	Yes	2.685	0.015	n/a	GoodResponse	0	n/a	n/a	7	59	Cue	AvoidedLoss	True
560.166	4.0	Lose2	0.65	0.0	Yes	2.685	0.001	n/a	GoodResponse	0	n/a	n/a	7	59	Fixation	AvoidedLoss	True
564.161	0.25	Lose2	0.65	0.004	Yes	2.685	-0.004	2.0	GoodResponse	0	0.195	563.356	7	59	Target	AvoidedLoss	True
564.356	0.3	Lose2	0.65	0.004	Yes	2.685	-0.004	2.0	GoodResponse	0	0.195	n/a	7	59	ButtonPress	AvoidedLoss	True
564.412	0.45	Lose2	0.65	n/a	Yes	2.685	n/a	n/a	GoodResponse	0	n/a	n/a	7	59	Blank	AvoidedLoss	True
564.863	1.45	Lose2	0.65	n/a	Yes	2.685	n/a	5.0	GoodResponse	0	0.03	563.893	7	59	Feedback	AvoidedLoss	True
566.317	2.685	Lose2	0.65	n/a	Yes	2.685	n/a	n/a	GoodResponse	0	0.0	n/a	7	59	ISIslide	AvoidedLoss	True
569.025	0.25	Control	0.6393	0.0	No	2.675	0.025	n/a	NoResponse	0	n/a	n/a	7	60	Cue	Neutral	True
569.276	4.0	Control	0.6393	0.0	No	2.675	0.001	n/a	NoResponse	0	n/a	n/a	7	60	Fixation	Neutral	True
573.271	0.26	Control	0.6393	0.004	No	2.675	-0.004	2.0	NoResponse	0	0.412	572.683	7	60	Target	Neutral	True
573.539	0.44	Control	0.6393	n/a	No	2.675	n/a	n/a	NoResponse	0	n/a	n/a	7	60	Blank	Neutral	True
573.683	0.3	Control	0.6393	0.004	No	2.675	-0.004	2.0	NoResponse	0	0.412	n/a	7	60	ButtonPress	Neutral	True
573.974	1.45	Control	0.6393	n/a	No	2.675	n/a	5.0	NoResponse	0	0.04	573.014	7	60	Feedback	Neutral	True
575.428	2.675	Control	0.6393	n/a	No	2.675	n/a	n/a	NoResponse	0	0.0	n/a	7	60	ISIslide	Neutral	True
578.119	0.25	Lose2	0.6452	0.0	Yes	2.981	0.019	n/a	GoodResponse	0	n/a	n/a	7	61	Cue	AvoidedLoss	True
578.37	4.0	Lose2	0.6452	0.0	Yes	2.981	0.001	n/a	GoodResponse	0	n/a	n/a	7	61	Fixation	AvoidedLoss	True
582.365	0.27	Lose2	0.6452	0.004	Yes	2.981	-0.004	2.0	GoodResponse	0	0.208	581.573	7	61	Target	AvoidedLoss	True
582.573	0.3	Lose2	0.6452	0.004	Yes	2.981	-0.004	2.0	GoodResponse	0	0.208	n/a	7	61	ButtonPress	AvoidedLoss	True
582.649	0.43	Lose2	0.6452	n/a	Yes	2.981	n/a	n/a	GoodResponse	0	n/a	n/a	7	61	Blank	AvoidedLoss	True
583.067	1.45	Lose2	0.6452	n/a	Yes	2.981	n/a	5.0	GoodResponse	0	0.02	582.087	7	61	Feedback	AvoidedLoss	True
584.522	2.981	Lose2	0.6452	n/a	Yes	2.981	n/a	n/a	GoodResponse	0	0.0	n/a	7	61	ISIslide	AvoidedLoss	True
587.531	0.25	Lose2	0.6507999999999999	0.0	Yes	2.869	0.031	n/a	GoodResponse	0	n/a	n/a	7	62	Cue	AvoidedLoss	True
587.781	3.9	Lose2	0.6507999999999999	0.0	Yes	2.869	0.0	n/a	GoodResponse	0	n/a	n/a	7	62	Fixation	AvoidedLoss	True
591.693	0.28	Lose2	0.6507999999999999	0.0	Yes	2.869	0.012	2.0	GoodResponse	0	0.252	590.945	7	62	Target	AvoidedLoss	True
591.945	0.3	Lose2	0.6507999999999999	0.0	Yes	2.869	0.012	2.0	GoodResponse	0	0.252	n/a	7	62	ButtonPress	AvoidedLoss	True
591.961	0.42	Lose2	0.6507999999999999	n/a	Yes	2.869	n/a	n/a	GoodResponse	0	n/a	n/a	7	62	Blank	AvoidedLoss	True
592.378	1.45	Lose2	0.6507999999999999	n/a	Yes	2.869	n/a	5.0	GoodResponse	0	0.026	591.404	7	62	Feedback	AvoidedLoss	True
593.833	2.869	Lose2	0.6507999999999999	n/a	Yes	2.869	n/a	n/a	GoodResponse	0	0.0	n/a	7	62	ISIslide	AvoidedLoss	True
596.725	0.25	Lose2	0.6562	0.0	Yes	2.625	0.025	n/a	GoodResponse	0	n/a	n/a	7	63	Cue	AvoidedLoss	True
596.976	4.05	Lose2	0.6562	0.0	Yes	2.625	0.001	n/a	GoodResponse	0	n/a	n/a	7	63	Fixation	AvoidedLoss	True
601.021	0.29	Lose2	0.6562	0.004	Yes	2.625	-0.004	2.0	GoodResponse	0	0.178	600.199	7	63	Target	AvoidedLoss	True
601.199	0.3	Lose2	0.6562	0.004	Yes	2.625	-0.004	2.0	GoodResponse	0	0.178	n/a	7	63	ButtonPress	AvoidedLoss	True
601.322	0.41	Lose2	0.6562	n/a	Yes	2.625	n/a	n/a	GoodResponse	0	n/a	n/a	7	63	Blank	AvoidedLoss	True
601.723	1.45	Lose2	0.6562	n/a	Yes	2.625	n/a	5.0	GoodResponse	0	0.047	600.77	7	63	Feedback	AvoidedLoss	True
603.177	2.625	Lose2	0.6562	n/a	Yes	2.625	n/a	n/a	GoodResponse	0	0.0	n/a	7	63	ISIslide	AvoidedLoss	True
605.819	0.25	Win2	0.6615000000000001	0.0	Yes	3.131	0.019	n/a	GoodResponse	1	n/a	n/a	8	64	Cue	Win	True
606.069	4.15	Win2	0.6615000000000001	0.0	Yes	3.131	0.0	n/a	GoodResponse	1	n/a	n/a	8	64	Fixation	Win	True
610.215	0.29	Win2	0.6615000000000001	0.004	Yes	3.131	-0.004	2.0	GoodResponse	1	0.186	609.401	8	64	Target	Win	True
610.401	0.3	Win2	0.6615000000000001	0.004	Yes	3.131	-0.004	2.0	GoodResponse	1	0.186	n/a	8	64	ButtonPress	Win	True
610.516	0.41	Win2	0.6615000000000001	n/a	Yes	3.131	n/a	n/a	GoodResponse	1	n/a	n/a	8	64	Blank	Win	True
610.917	1.45	Win2	0.6615000000000001	n/a	Yes	3.131	n/a	5.0	GoodResponse	1	0.023	609.94	8	64	Feedback	Win	True
612.372	3.131	Win2	0.6615000000000001	n/a	Yes	3.131	n/a	n/a	GoodResponse	1	0.0	n/a	8	64	ISIslide	Win	True
615.514	0.25	Control	0.6667000000000001	0.0	Yes	2.786	0.014	n/a	GoodResponse	0	n/a	n/a	8	65	Cue	Neutral	True
615.765	4.0	Control	0.6667000000000001	0.0	Yes	2.786	0.001	n/a	GoodResponse	0	n/a	n/a	8	65	Fixation	Neutral	True
619.76	0.29	Control	0.6667000000000001	0.004	Yes	2.786	-0.004	2.0	GoodResponse	0	0.282	619.042	8	65	Target	Neutral	True
620.042	0.3	Control	0.6667000000000001	0.004	Yes	2.786	-0.004	2.0	GoodResponse	0	0.282	n/a	8	65	ButtonPress	Neutral	True
620.061	0.41	Control	0.6667000000000001	n/a	Yes	2.786	n/a	n/a	GoodResponse	0	n/a	n/a	8	65	Blank	Neutral	True
620.462	1.45	Control	0.6667000000000001	n/a	Yes	2.786	n/a	5.0	GoodResponse	0	0.039	619.501	8	65	Feedback	Neutral	True
621.917	2.786	Control	0.6667000000000001	n/a	Yes	2.786	n/a	n/a	GoodResponse	0	0.0	n/a	8	65	ISIslide	Neutral	True
624.725	0.25	Win2	0.6716	0.0	Yes	2.775	0.025	n/a	GoodResponse	1	n/a	n/a	9	66	Cue	Win	False
624.976	3.9	Win2	0.6716	0.0	Yes	2.775	0.001	2.0	GoodResponse	1	0.141	624.117	9	66	Fixation	Win	False
625.117	0.3	Win2	0.6716	0.0	Yes	2.775	0.001	2.0	GoodResponse	1	0.141	n/a	9	66	ButtonPress	Win	False
628.871	0.28	Win2	0.6716	0.004	Yes	2.775	-0.004	2.0	GoodResponse	1	0.186	628.057	9	66	Target	Win	False
629.057	0.3	Win2	0.6716	0.004	Yes	2.775	-0.004	2.0	GoodResponse	1	0.186	n/a	9	66	ButtonPress	Win	False
629.155	0.42	Win2	0.6716	n/a	Yes	2.775	n/a	n/a	GoodResponse	1	n/a	n/a	9	66	Blank	Win	False
629.573	1.45	Win2	0.6716	n/a	Yes	2.775	n/a	5.0	GoodResponse	1	0.001	628.574	9	66	Feedback	Win	False
631.027	2.775	Win2	0.6716	n/a	Yes	2.775	n/a	n/a	GoodResponse	1	0.0	n/a	9	66	ISIslide	Win	False
633.819	0.25	Control	0.6618	0.0	No	2.731	0.019	n/a	LatePress	0	n/a	n/a	9	67	Cue	Neutral	True
634.07	3.95	Control	0.6618	0.0	No	2.731	0.001	n/a	LatePress	0	n/a	n/a	9	67	Fixation	Neutral	True
638.015	0.27	Control	0.6618	0.004	No	2.731	-0.004	2.0	LatePress	0	0.281	637.296	9	67	Target	Neutral	True
638.296	0.3	Control	0.6618	0.004	No	2.731	-0.004	2.0	LatePress	0	0.281	n/a	9	67	ButtonPress	Neutral	True
638.299	0.43	Control	0.6618	n/a	No	2.731	n/a	n/a	LatePress	0	n/a	n/a	9	67	Blank	Neutral	True
638.717	1.45	Control	0.6618	n/a	No	2.731	n/a	5.0	LatePress	0	0.028	637.745	9	67	Feedback	Neutral	True
640.171	2.731	Control	0.6618	n/a	No	2.731	n/a	n/a	LatePress	0	0.0	n/a	9	67	ISIslide	Neutral	True
642.929	0.25	Win2	0.6667000000000001	0.001	Yes	3.071	0.029	n/a	GoodResponse	1	n/a	n/a	10	68	Cue	Win	True
643.18	4.0	Win2	0.6667000000000001	0.0	Yes	3.071	0.001	n/a	GoodResponse	1	n/a	n/a	10	68	Fixation	Win	True
647.175	0.27	Win2	0.6667000000000001	0.004	Yes	3.071	-0.004	2.0	GoodResponse	1	0.188	646.363	10	68	Target	Win	True
647.363	0.3	Win2	0.6667000000000001	0.004	Yes	3.071	-0.004	2.0	GoodResponse	1	0.188	n/a	10	68	ButtonPress	Win	True
647.46	0.43	Win2	0.6667000000000001	n/a	Yes	3.071	n/a	n/a	GoodResponse	1	n/a	n/a	10	68	Blank	Win	True
647.878	1.45	Win2	0.6667000000000001	n/a	Yes	3.071	n/a	5.0	GoodResponse	1	0.037	646.915	10	68	Feedback	Win	True
649.332	3.071	Win2	0.6667000000000001	n/a	Yes	3.071	n/a	n/a	GoodResponse	1	0.0	n/a	10	68	ISIslide	Win	True
652.424	0.25	Win2	0.6714	0.001	Yes	3.226	0.024	n/a	GoodResponse	1	n/a	n/a	11	69	Cue	Win	True
652.675	3.95	Win2	0.6714	0.0	Yes	3.226	0.001	n/a	GoodResponse	1	n/a	n/a	11	69	Fixation	Win	True
656.62	0.26	Win2	0.6714	0.004	Yes	3.226	-0.004	2.0	GoodResponse	1	0.192	655.812	11	69	Target	Win	True
656.812	0.3	Win2	0.6714	0.004	Yes	3.226	-0.004	2.0	GoodResponse	1	0.192	n/a	11	69	ButtonPress	Win	True
656.888	0.44	Win2	0.6714	n/a	Yes	3.226	n/a	n/a	GoodResponse	1	n/a	n/a	11	69	Blank	Win	True
657.322	1.45	Win2	0.6714	n/a	Yes	3.226	n/a	5.0	GoodResponse	1	0.008	656.33	11	69	Feedback	Win	True
658.777	3.226	Win2	0.6714	n/a	Yes	3.226	n/a	n/a	GoodResponse	1	0.0	n/a	11	69	ISIslide	Win	True
662.02	0.25	Lose2	0.6761	0.0	Yes	3.03	0.02	n/a	GoodResponse	0	n/a	n/a	11	70	Cue	AvoidedLoss	True
662.271	4.05	Lose2	0.6761	0.0	Yes	3.03	0.001	n/a	GoodResponse	0	n/a	n/a	11	70	Fixation	AvoidedLoss	True
666.316	0.25	Lose2	0.6761	0.004	Yes	3.03	-0.004	2.0	GoodResponse	0	0.204	665.52	11	70	Target	AvoidedLoss	True
666.52	0.3	Lose2	0.6761	0.004	Yes	3.03	-0.004	2.0	GoodResponse	0	0.204	n/a	11	70	ButtonPress	AvoidedLoss	True
666.567	0.45	Lose2	0.6761	n/a	Yes	3.03	n/a	n/a	GoodResponse	0	n/a	n/a	11	70	Blank	AvoidedLoss	True
667.018	1.45	Lose2	0.6761	n/a	Yes	3.03	n/a	5.0	GoodResponse	0	0.019	666.037	11	70	Feedback	AvoidedLoss	True
668.472	3.03	Lose2	0.6761	n/a	Yes	3.03	n/a	n/a	GoodResponse	0	0.0	n/a	11	70	ISIslide	AvoidedLoss	True
671.515	0.25	Win2	0.6806	0.0	Yes	2.735	0.015	n/a	GoodResponse	1	n/a	n/a	12	71	Cue	Win	True
671.766	4.05	Win2	0.6806	0.0	Yes	2.735	0.001	n/a	GoodResponse	1	n/a	n/a	12	71	Fixation	Win	True
675.811	0.24	Win2	0.6806	0.004	Yes	2.735	-0.004	2.0	GoodResponse	1	0.21	675.021	12	71	Target	Win	True
676.021	0.3	Win2	0.6806	0.004	Yes	2.735	-0.004	2.0	GoodResponse	1	0.21	n/a	12	71	ButtonPress	Win	True
676.062	0.46	Win2	0.6806	n/a	Yes	2.735	n/a	n/a	GoodResponse	1	n/a	n/a	12	71	Blank	Win	True
676.513	1.45	Win2	0.6806	n/a	Yes	2.735	n/a	5.0	GoodResponse	1	0.037	675.55	12	71	Feedback	Win	True
677.967	2.735	Win2	0.6806	n/a	Yes	2.735	n/a	n/a	GoodResponse	1	0.0	n/a	12	71	ISIslide	Win	True
680.726	0.25	Win2	0.6712	0.0	No	2.774	0.026	n/a	NoResponse	0	n/a	n/a	12	72	Cue	MissedWin	True
680.976	4.1	Win2	0.6712	0.0	No	2.774	0.0	n/a	NoResponse	0	n/a	n/a	12	72	Fixation	MissedWin	True
685.072	0.23	Win2	0.6712	0.004	No	2.774	-0.004	2.0	NoResponse	0	0.257	684.329	12	72	Target	MissedWin	True
685.306	0.47	Win2	0.6712	n/a	No	2.774	n/a	n/a	NoResponse	0	n/a	n/a	12	72	Blank	MissedWin	True
685.329	0.3	Win2	0.6712	0.004	No	2.774	-0.004	2.0	NoResponse	0	0.257	n/a	12	72	ButtonPress	MissedWin	True
685.774	1.45	Win2	0.6712	n/a	No	2.774	n/a	5.0	NoResponse	0	0.043	684.817	12	72	Feedback	MissedWin	True
687.228	2.774	Win2	0.6712	n/a	No	2.774	n/a	n/a	NoResponse	0	0.0	n/a	12	72	ISIslide	MissedWin	True
690.02	0.25	Win2	0.6622	0.0	No	2.68	0.02	n/a	NoResponse	0	n/a	n/a	12	73	Cue	MissedWin	True
690.271	4.0	Win2	0.6622	0.0	No	2.68	0.001	n/a	NoResponse	0	n/a	n/a	12	73	Fixation	MissedWin	True
694.266	0.22	Win2	0.6622	0.004	No	2.68	-0.004	2.0	NoResponse	0	0.353	693.619	12	73	Target	MissedWin	True
694.5	0.48	Win2	0.6622	n/a	No	2.68	n/a	n/a	NoResponse	0	n/a	n/a	12	73	Blank	MissedWin	True
694.619	0.3	Win2	0.6622	0.004	No	2.68	-0.004	2.0	NoResponse	0	0.353	n/a	12	73	ButtonPress	MissedWin	True
694.968	1.45	Win2	0.6622	n/a	No	2.68	n/a	5.0	NoResponse	0	0.02	693.988	12	73	Feedback	MissedWin	True
696.423	2.68	Win2	0.6622	n/a	No	2.68	n/a	n/a	NoResponse	0	0.0	n/a	12	73	ISIslide	MissedWin	True
699.131	0.25	Lose2	0.6533	0.0	No	2.619	0.031	n/a	NoResponse	-1	n/a	n/a	11	74	Cue	Loss	True
699.381	4.05	Lose2	0.6533	0.0	No	2.619	0.0	n/a	NoResponse	-1	n/a	n/a	11	74	Fixation	Loss	True
703.427	0.22	Lose2	0.6533	0.004	No	2.619	-0.004	2.0	NoResponse	-1	0.303	702.73	11	74	Target	Loss	True
703.661	0.48	Lose2	0.6533	n/a	No	2.619	n/a	n/a	NoResponse	-1	n/a	n/a	11	74	Blank	Loss	True
703.73	0.3	Lose2	0.6533	0.004	No	2.619	-0.004	2.0	NoResponse	-1	0.303	n/a	11	74	ButtonPress	Loss	True
704.129	1.45	Lose2	0.6533	n/a	No	2.619	n/a	5.0	NoResponse	-1	0.03	703.159	11	74	Feedback	Loss	True
705.583	2.619	Lose2	0.6533	n/a	No	2.619	n/a	n/a	NoResponse	-1	0.0	n/a	11	74	ISIslide	Loss	True
708.224	0.25	Lose2	0.6446999999999999	0.001	No	2.926	0.024	n/a	NoResponse	-1	n/a	n/a	10	75	Cue	Loss	True
708.475	3.95	Lose2	0.6446999999999999	0.0	No	2.926	0.001	n/a	NoResponse	-1	n/a	n/a	10	75	Fixation	Loss	True
712.42	0.23	Lose2	0.6446999999999999	0.004	No	2.926	-0.004	2.0	NoResponse	-1	0.263	711.683	10	75	Target	Loss	True
712.654	0.47	Lose2	0.6446999999999999	n/a	No	2.926	n/a	n/a	NoResponse	-1	n/a	n/a	10	75	Blank	Loss	True
712.683	0.3	Lose2	0.6446999999999999	0.004	No	2.926	-0.004	2.0	NoResponse	-1	0.263	n/a	10	75	ButtonPress	Loss	True
713.122	1.45	Lose2	0.6446999999999999	n/a	No	2.926	n/a	5.0	NoResponse	-1	0.012	712.134	10	75	Feedback	Loss	True
714.577	2.926	Lose2	0.6446999999999999	n/a	No	2.926	n/a	n/a	NoResponse	-1	0.0	n/a	10	75	ISIslide	Loss	True
717.519	0.25	Control	0.6494	0.0	Yes	3.231	0.019	n/a	GoodResponse	0	n/a	n/a	10	76	Cue	Neutral	True
717.77	4.05	Control	0.6494	0.0	Yes	3.231	0.001	n/a	GoodResponse	0	n/a	n/a	10	76	Fixation	Neutral	True
721.815	0.24	Control	0.6494	0.004	Yes	3.231	-0.004	2.0	GoodResponse	0	0.233	721.048	10	76	Target	Neutral	True
722.048	0.3	Control	0.6494	0.004	Yes	3.231	-0.004	2.0	GoodResponse	0	0.233	n/a	10	76	ButtonPress	Neutral	True
722.066	0.46	Control	0.6494	n/a	Yes	3.231	n/a	n/a	GoodResponse	0	n/a	n/a	10	76	Blank	Neutral	True
722.517	1.45	Control	0.6494	n/a	Yes	3.231	n/a	5.0	GoodResponse	0	0.031	721.548	10	76	Feedback	Neutral	True
723.971	3.231	Control	0.6494	n/a	Yes	3.231	n/a	n/a	GoodResponse	0	0.0	n/a	10	76	ISIslide	Neutral	True
727.231	0.25	Lose2	0.6409999999999999	0.0	No	2.569	0.031	n/a	NoResponse	-1	n/a	n/a	9	77	Cue	Loss	True
727.482	3.95	Lose2	0.6409999999999999	0.0	No	2.569	0.001	n/a	NoResponse	-1	n/a	n/a	9	77	Fixation	Loss	True
731.427	0.25	Lose2	0.6409999999999999	0.004	No	2.569	-0.004	2.0	NoResponse	-1	0.352	730.779	9	77	Target	Loss	True
731.678	0.45	Lose2	0.6409999999999999	n/a	No	2.569	n/a	n/a	NoResponse	-1	n/a	n/a	9	77	Blank	Loss	True
731.779	0.3	Lose2	0.6409999999999999	0.004	No	2.569	-0.004	2.0	NoResponse	-1	0.352	n/a	9	77	ButtonPress	Loss	True
732.129	1.45	Lose2	0.6409999999999999	n/a	No	2.569	n/a	5.0	NoResponse	-1	0.029	731.158	9	77	Feedback	Loss	True
733.584	2.569	Lose2	0.6409999999999999	n/a	No	2.569	n/a	n/a	NoResponse	-1	0.0	n/a	9	77	ISIslide	Loss	True
