onset	duration	cue_type	current_mean_accuracy	duration_error	is_hit	isi_adjusted	onset_delay	response	response_type	reward	rt	rt_time	total_reward	trial_number	trial_phase	trial_type	one_press
11.101	0.25	Control	1.0	0.001	Yes	2.949	0.001	n/a	GoodResponse	0	n/a	n/a	0	0	Cue	Neutral	True
11.352	3.85	Control	1.0	0.0	Yes	2.949	0.001	n/a	GoodResponse	0	n/a	n/a	0	0	Fixation	Neutral	True
15.197	0.4	Control	1.0	0.004	Yes	2.949	-0.004	2.0	GoodResponse	0	0.208	14.405	0	0	Target	Neutral	True
15.405	0.3	Control	1.0	0.004	Yes	2.949	-0.004	2.0	GoodResponse	0	0.208	n/a	0	0	ButtonPress	Neutral	True
15.598	0.3	Control	1.0	n/a	Yes	2.949	n/a	n/a	GoodResponse	0	n/a	n/a	0	0	Blank	Neutral	True
15.899	1.45	Control	1.0	n/a	Yes	2.949	n/a	5.0	GoodResponse	0	0.028	14.927	0	0	Feedback	Neutral	True
17.353	2.949	Control	1.0	n/a	Yes	2.949	n/a	n/a	GoodResponse	0	0.0	n/a	0	0	ISIslide	Neutral	True
20.329	0.25	Lose2	0.5	0.0	No	2.771	0.029	n/a	NoResponse	-1	n/a	n/a	-1	1	Cue	Loss	True
20.58	4.0	Lose2	0.5	0.0	No	2.771	0.001	2.0	NoResponse	-1	3.909	23.489	-1	1	Fixation	Loss	True
24.489	0.3	Lose2	0.5	0.0	No	2.771	0.001	2.0	NoResponse	-1	3.909	n/a	-1	1	ButtonPress	Loss	True
24.575	0.39	Lose2	0.5	0.004	No	2.771	-0.004	n/a	NoResponse	-1	n/a	n/a	-1	1	Target	Loss	True
24.976	0.31	Lose2	0.5	n/a	No	2.771	n/a	n/a	NoResponse	-1	n/a	n/a	-1	1	Blank	Loss	True
25.277	1.45	Lose2	0.5	n/a	No	2.771	n/a	5.0	NoResponse	-1	0.016	24.293	-1	1	Feedback	Loss	True
26.731	2.771	Lose2	0.5	n/a	No	2.771	n/a	n/a	NoResponse	-1	0.0	n/a	-1	1	ISIslide	Loss	True
29.523	0.25	Control	0.6667000000000001	0.0	Yes	2.577	0.023	n/a	GoodResponse	0	n/a	n/a	-1	2	Cue	Neutral	True
29.774	4.1	Control	0.6667000000000001	0.0	Yes	2.577	0.001	n/a	GoodResponse	0	n/a	n/a	-1	2	Fixation	Neutral	True
33.869	0.4	Control	0.6667000000000001	0.004	Yes	2.577	-0.004	2.0	GoodResponse	0	0.24	33.109	-1	2	Target	Neutral	True
34.109	0.3	Control	0.6667000000000001	0.004	Yes	2.577	-0.004	2.0	GoodResponse	0	0.24	n/a	-1	2	ButtonPress	Neutral	True
34.271	0.3	Control	0.6667000000000001	n/a	Yes	2.577	n/a	n/a	GoodResponse	0	n/a	n/a	-1	2	Blank	Neutral	True
34.572	1.45	Control	0.6667000000000001	n/a	Yes	2.577	n/a	5.0	GoodResponse	0	0.037	33.609	-1	2	Feedback	Neutral	True
36.026	2.577	Control	0.6667000000000001	n/a	Yes	2.577	n/a	n/a	GoodResponse	0	0.0	n/a	-1	2	ISIslide	Neutral	True
38.617	0.25	Win2	0.75	0.0	Yes	2.833	0.017	n/a	GoodResponse	1	n/a	n/a	0	3	Cue	Win	True
38.868	3.95	Win2	0.75	0.0	Yes	2.833	0.001	n/a	GoodResponse	1	n/a	n/a	0	3	Fixation	Win	True
42.813	0.39	Win2	0.75	0.004	Yes	2.833	-0.004	2.0	GoodResponse	1	0.247	42.06	0	3	Target	Win	True
43.06	0.3	Win2	0.75	0.004	Yes	2.833	-0.004	2.0	GoodResponse	1	0.247	n/a	0	3	ButtonPress	Win	True
43.214	0.31	Win2	0.75	n/a	Yes	2.833	n/a	n/a	GoodResponse	1	n/a	n/a	0	3	Blank	Win	True
43.515	1.45	Win2	0.75	n/a	Yes	2.833	n/a	5.0	GoodResponse	1	0.021	42.536	0	3	Feedback	Win	True
44.969	2.833	Win2	0.75	n/a	Yes	2.833	n/a	n/a	GoodResponse	1	0.0	n/a	0	3	ISIslide	Win	True
47.828	0.25	Win2	0.8	0.0	Yes	3.272	0.028	n/a	GoodResponse	1	n/a	n/a	1	4	Cue	Win	True
48.079	4.0	Win2	0.8	0.0	Yes	3.272	0.001	n/a	GoodResponse	1	n/a	n/a	1	4	Fixation	Win	True
52.074	0.38	Win2	0.8	0.004	Yes	3.272	-0.004	2.0	GoodResponse	1	0.258	51.332	1	4	Target	Win	True
52.332	0.3	Win2	0.8	0.004	Yes	3.272	-0.004	2.0	GoodResponse	1	0.258	n/a	1	4	ButtonPress	Win	True
52.458	0.32	Win2	0.8	n/a	Yes	3.272	n/a	n/a	GoodResponse	1	n/a	n/a	1	4	Blank	Win	True
52.776	1.45	Win2	0.8	n/a	Yes	3.272	n/a	5.0	GoodResponse	1	0.028	51.804	1	4	Feedback	Win	True
54.23	3.272	Win2	0.8	n/a	Yes	3.272	n/a	n/a	GoodResponse	1	0.0	n/a	1	4	ISIslide	Win	True
57.523	0.25	Win2	0.8332999999999999	0.0	Yes	2.777	0.023	n/a	GoodResponse	1	n/a	n/a	2	5	Cue	Win	True
57.774	4.0	Win2	0.8332999999999999	0.0	Yes	2.777	0.001	n/a	GoodResponse	1	n/a	n/a	2	5	Fixation	Win	True
61.769	0.37	Win2	0.8332999999999999	0.004	Yes	2.777	-0.004	2.0	GoodResponse	1	0.215	60.984	2	5	Target	Win	True
61.984	0.3	Win2	0.8332999999999999	0.004	Yes	2.777	-0.004	2.0	GoodResponse	1	0.215	n/a	2	5	ButtonPress	Win	True
62.154	0.33	Win2	0.8332999999999999	n/a	Yes	2.777	n/a	n/a	GoodResponse	1	n/a	n/a	2	5	Blank	Win	True
62.472	1.45	Win2	0.8332999999999999	n/a	Yes	2.777	n/a	5.0	GoodResponse	1	0.04	61.512	2	5	Feedback	Win	True
63.926	2.777	Win2	0.8332999999999999	n/a	Yes	2.777	n/a	n/a	GoodResponse	1	0.0	n/a	2	5	ISIslide	Win	True
66.718	0.25	Lose2	0.8571	0.0	Yes	2.732	0.018	n/a	GoodResponse	0	n/a	n/a	2	6	Cue	AvoidedLoss	True
66.968	3.95	Lose2	0.8571	0.0	Yes	2.732	0.0	n/a	GoodResponse	0	n/a	n/a	2	6	Fixation	AvoidedLoss	True
70.93	0.36	Lose2	0.8571	0.0	Yes	2.732	0.012	2.0	GoodResponse	0	0.228	70.158	2	6	Target	AvoidedLoss	True
71.158	0.3	Lose2	0.8571	0.0	Yes	2.732	0.012	2.0	GoodResponse	0	0.228	n/a	2	6	ButtonPress	AvoidedLoss	True
71.281	0.34	Lose2	0.8571	n/a	Yes	2.732	n/a	n/a	GoodResponse	0	n/a	n/a	2	6	Blank	AvoidedLoss	True
71.615	1.45	Lose2	0.8571	n/a	Yes	2.732	n/a	5.0	GoodResponse	0	0.018	70.633	2	6	Feedback	AvoidedLoss	True
73.07	2.732	Lose2	0.8571	n/a	Yes	2.732	n/a	n/a	GoodResponse	0	0.0	n/a	2	6	ISIslide	AvoidedLoss	True
75.828	0.25	Lose2	0.875	0.0	Yes	4.022	0.028	n/a	GoodResponse	0	n/a	n/a	2	7	Cue	AvoidedLoss	True
76.079	4.05	Lose2	0.875	0.0	Yes	4.022	0.001	n/a	GoodResponse	0	n/a	n/a	2	7	Fixation	AvoidedLoss	True
80.124	0.35	Lose2	0.875	0.004	Yes	4.022	-0.004	2.0	GoodResponse	0	0.237	79.361	2	7	Target	AvoidedLoss	True
80.361	0.3	Lose2	0.875	0.004	Yes	4.022	-0.004	2.0	GoodResponse	0	0.237	n/a	2	7	ButtonPress	AvoidedLoss	True
80.475	0.35	Lose2	0.875	n/a	Yes	4.022	n/a	n/a	GoodResponse	0	n/a	n/a	2	7	Blank	AvoidedLoss	True
80.826	1.45	Lose2	0.875	n/a	Yes	4.022	n/a	5.0	GoodResponse	0	0.026	79.852	2	7	Feedback	AvoidedLoss	True
82.281	4.022	Lose2	0.875	n/a	Yes	4.022	n/a	n/a	GoodResponse	0	0.0	n/a	2	7	ISIslide	AvoidedLoss	True
86.326	0.25	Lose2	0.8889	0.0	Yes	3.024	0.026	n/a	GoodResponse	0	n/a	n/a	2	8	Cue	AvoidedLoss	True
86.577	3.95	Lose2	0.8889	0.0	Yes	3.024	0.001	n/a	GoodResponse	0	n/a	n/a	2	8	Fixation	AvoidedLoss	True
90.522	0.34	Lose2	0.8889	0.004	Yes	3.024	-0.004	2.0	GoodResponse	0	0.219	89.741	2	8	Target	AvoidedLoss	True
90.741	0.3	Lose2	0.8889	0.004	Yes	3.024	-0.004	2.0	GoodResponse	0	0.219	n/a	2	8	ButtonPress	AvoidedLoss	True
90.873	0.36	Lose2	0.8889	n/a	Yes	3.024	n/a	n/a	GoodResponse	0	n/a	n/a	2	8	Blank	AvoidedLoss	True
91.224	1.45	Lose2	0.8889	n/a	Yes	3.024	n/a	5.0	GoodResponse	0	0.019	90.243	2	8	Feedback	AvoidedLoss	True
92.678	3.024	Lose2	0.8889	n/a	Yes	3.024	n/a	n/a	GoodResponse	0	0.0	n/a	2	8	ISIslide	AvoidedLoss	True
95.721	0.25	Lose2	0.9	0.0	Yes	3.129	0.021	n/a	GoodResponse	0	n/a	n/a	2	9	Cue	AvoidedLoss	True
95.972	3.95	Lose2	0.9	0.0	Yes	3.129	0.001	n/a	GoodResponse	0	n/a	n/a	2	9	Fixation	AvoidedLoss	True
99.917	0.33	Lose2	0.9	0.004	Yes	3.129	-0.004	2.0	GoodResponse	0	0.198	99.115	2	9	Target	AvoidedLoss	True
100.115	0.3	Lose2	0.9	0.004	Yes	3.129	-0.004	2.0	GoodResponse	0	0.198	n/a	2	9	ButtonPress	AvoidedLoss	True
100.251	0.37	Lose2	0.9	n/a	Yes	3.129	n/a	n/a	GoodResponse	0	n/a	n/a	2	9	Blank	AvoidedLoss	True
100.619	1.45	Lose2	0.9	n/a	Yes	3.129	n/a	5.0	GoodResponse	0	0.038	99.657	2	9	Feedback	AvoidedLoss	True
102.073	3.129	Lose2	0.9	n/a	Yes	3.129	n/a	n/a	GoodResponse	0	0.0	n/a	2	9	ISIslide	AvoidedLoss	True
105.216	0.25	Control	0.9091	0.0	Yes	3.284	0.016	n/a	GoodResponse	0	n/a	n/a	2	10	Cue	Neutral	True
105.467	4.0	Control	0.9091	0.0	Yes	3.284	0.001	n/a	GoodResponse	0	n/a	n/a	2	10	Fixation	Neutral	True
109.462	0.32	Control	0.9091	0.004	Yes	3.284	-0.004	2.0	GoodResponse	0	0.233	108.695	2	10	Target	Neutral	True
109.695	0.3	Control	0.9091	0.004	Yes	3.284	-0.004	2.0	GoodResponse	0	0.233	n/a	2	10	ButtonPress	Neutral	True
109.796	0.38	Control	0.9091	n/a	Yes	3.284	n/a	n/a	GoodResponse	0	n/a	n/a	2	10	Blank	Neutral	True
110.164	1.45	Control	0.9091	n/a	Yes	3.284	n/a	5.0	GoodResponse	0	0.008	109.172	2	10	Feedback	Neutral	True
111.618	3.284	Control	0.9091	n/a	Yes	3.284	n/a	n/a	GoodResponse	0	0.0	n/a	2	10	ISIslide	Neutral	True
114.928	0.25	Lose2	0.8332999999999999	0.0	No	2.722	0.028	n/a	NoResponse	-1	n/a	n/a	1	11	Cue	Loss	True
115.179	4.05	Lose2	0.8332999999999999	0.0	No	2.722	0.001	2.0	NoResponse	-1	3.927	118.106	1	11	Fixation	Loss	True
119.106	0.3	Lose2	0.8332999999999999	0.0	No	2.722	0.001	2.0	NoResponse	-1	3.927	n/a	1	11	ButtonPress	Loss	True
119.224	0.31	Lose2	0.8332999999999999	0.004	No	2.722	-0.004	n/a	NoResponse	-1	n/a	n/a	1	11	Target	Loss	True
119.542	0.39	Lose2	0.8332999999999999	n/a	No	2.722	n/a	n/a	NoResponse	-1	n/a	n/a	1	11	Blank	Loss	True
119.926	1.45	Lose2	0.8332999999999999	n/a	No	2.722	n/a	5.0	NoResponse	-1	0.048	118.974	1	11	Feedback	Loss	True
121.381	2.722	Lose2	0.8332999999999999	n/a	No	2.722	n/a	n/a	NoResponse	-1	0.0	n/a	1	11	ISIslide	Loss	True
124.122	0.25	Control	0.8462000000000001	0.0	Yes	2.978	0.022	n/a	GoodResponse	0	n/a	n/a	1	12	Cue	Neutral	True
124.373	3.9	Control	0.8462000000000001	0.0	Yes	2.978	0.001	n/a	GoodResponse	0	n/a	n/a	1	12	Fixation	Neutral	True
128.268	0.3	Control	0.8462000000000001	0.004	Yes	2.978	-0.004	2.0	GoodResponse	0	0.256	127.524	1	12	Target	Neutral	True
128.524	0.3	Control	0.8462000000000001	0.004	Yes	2.978	-0.004	2.0	GoodResponse	0	0.256	n/a	1	12	ButtonPress	Neutral	True
128.569	0.4	Control	0.8462000000000001	n/a	Yes	2.978	n/a	n/a	GoodResponse	0	n/a	n/a	1	12	Blank	Neutral	True
128.97	1.45	Control	0.8462000000000001	n/a	Yes	2.978	n/a	5.0	GoodResponse	0	0.028	127.998	1	12	Feedback	Neutral	True
130.424	2.978	Control	0.8462000000000001	n/a	Yes	2.978	n/a	n/a	GoodResponse	0	0.0	n/a	1	12	ISIslide	Neutral	True
133.417	0.25	Control	0.8571	0.0	Yes	2.783	0.017	n/a	GoodResponse	0	n/a	n/a	1	13	Cue	Neutral	True
133.667	4.0	Control	0.8571	0.001	Yes	2.783	0.0	n/a	GoodResponse	0	n/a	n/a	1	13	Fixation	Neutral	True
137.663	0.29	Control	0.8571	0.004	Yes	2.783	-0.004	2.0	GoodResponse	0	0.241	136.904	1	13	Target	Neutral	True
137.904	0.3	Control	0.8571	0.004	Yes	2.783	-0.004	2.0	GoodResponse	0	0.241	n/a	1	13	ButtonPress	Neutral	True
137.964	0.41	Control	0.8571	n/a	Yes	2.783	n/a	n/a	GoodResponse	0	n/a	n/a	1	13	Blank	Neutral	True
138.365	1.45	Control	0.8571	n/a	Yes	2.783	n/a	5.0	GoodResponse	0	0.048	137.413	1	13	Feedback	Neutral	True
139.819	2.783	Control	0.8571	n/a	Yes	2.783	n/a	n/a	GoodResponse	0	0.0	n/a	1	13	ISIslide	Neutral	True
142.628	0.25	Win2	0.8667	0.0	Yes	2.672	0.028	n/a	GoodResponse	1	n/a	n/a	2	14	Cue	Win	True
142.878	4.1	Win2	0.8667	0.0	Yes	2.672	0.0	n/a	GoodResponse	1	n/a	n/a	2	14	Fixation	Win	True
146.974	0.28	Win2	0.8667	0.004	Yes	2.672	-0.004	2.0	GoodResponse	1	0.212	146.186	2	14	Target	Win	True
147.186	0.3	Win2	0.8667	0.004	Yes	2.672	-0.004	2.0	GoodResponse	1	0.212	n/a	2	14	ButtonPress	Win	True
147.258	0.42	Win2	0.8667	n/a	Yes	2.672	n/a	n/a	GoodResponse	1	n/a	n/a	2	14	Blank	Win	True
147.676	1.45	Win2	0.8667	n/a	Yes	2.672	n/a	5.0	GoodResponse	1	0.007	146.683	2	14	Feedback	Win	True
149.13	2.672	Win2	0.8667	n/a	Yes	2.672	n/a	n/a	GoodResponse	1	0.0	n/a	2	14	ISIslide	Win	True
151.822	0.25	Control	0.875	0.0	Yes	2.978	0.022	n/a	GoodResponse	0	n/a	n/a	2	15	Cue	Neutral	True
152.072	4.0	Control	0.875	0.001	Yes	2.978	0.0	n/a	GoodResponse	0	n/a	n/a	2	15	Fixation	Neutral	True
156.068	0.27	Control	0.875	0.004	Yes	2.978	-0.004	2.0	GoodResponse	0	0.201	155.269	2	15	Target	Neutral	True
156.269	0.3	Control	0.875	0.004	Yes	2.978	-0.004	2.0	GoodResponse	0	0.201	n/a	2	15	ButtonPress	Neutral	True
156.352	0.43	Control	0.875	n/a	Yes	2.978	n/a	n/a	GoodResponse	0	n/a	n/a	2	15	Blank	Neutral	True
156.77	1.45	Control	0.875	n/a	Yes	2.978	n/a	5.0	GoodResponse	0	0.032	155.802	2	15	Feedback	Neutral	True
158.224	2.978	Control	0.875	n/a	Yes	2.978	n/a	n/a	GoodResponse	0	0.0	n/a	2	15	ISIslide	Neutral	True
161.216	0.25	Win2	0.8824	0.001	Yes	2.884	0.016	n/a	GoodResponse	1	n/a	n/a	3	16	Cue	Win	True
161.467	4.0	Win2	0.8824	0.0	Yes	2.884	0.001	n/a	GoodResponse	1	n/a	n/a	3	16	Fixation	Win	True
165.462	0.26	Win2	0.8824	0.004	Yes	2.884	-0.004	2.0	GoodResponse	1	0.193	164.655	3	16	Target	Win	True
165.655	0.3	Win2	0.8824	0.004	Yes	2.884	-0.004	2.0	GoodResponse	1	0.193	n/a	3	16	ButtonPress	Win	True
165.73	0.44	Win2	0.8824	n/a	Yes	2.884	n/a	n/a	GoodResponse	1	n/a	n/a	3	16	Blank	Win	True
166.165	1.45	Win2	0.8824	n/a	Yes	2.884	n/a	5.0	GoodResponse	1	0.006	165.171	3	16	Feedback	Win	True
167.619	2.884	Win2	0.8824	n/a	Yes	2.884	n/a	n/a	GoodResponse	1	0.0	n/a	3	16	ISIslide	Win	True
170.528	0.25	Lose2	0.8889	0.0	Yes	2.722	0.028	n/a	GoodResponse	0	n/a	n/a	3	17	Cue	AvoidedLoss	True
170.778	3.95	Lose2	0.8889	0.0	Yes	2.722	0.0	n/a	GoodResponse	0	n/a	n/a	3	17	Fixation	AvoidedLoss	True
174.74	0.25	Lose2	0.8889	0.0	Yes	2.722	0.012	2.0	GoodResponse	0	0.226	173.966	3	17	Target	AvoidedLoss	True
174.966	0.3	Lose2	0.8889	0.0	Yes	2.722	0.012	2.0	GoodResponse	0	0.226	n/a	3	17	ButtonPress	AvoidedLoss	True
174.974	0.45	Lose2	0.8889	n/a	Yes	2.722	n/a	n/a	GoodResponse	0	n/a	n/a	3	17	Blank	AvoidedLoss	True
175.426	1.45	Lose2	0.8889	n/a	Yes	2.722	n/a	5.0	GoodResponse	0	0.011	174.437	3	17	Feedback	AvoidedLoss	True
176.88	2.722	Lose2	0.8889	n/a	Yes	2.722	n/a	n/a	GoodResponse	0	0.0	n/a	3	17	ISIslide	AvoidedLoss	True
179.621	0.25	Lose2	0.8946999999999999	0.0	Yes	2.729	0.021	n/a	GoodResponse	0	n/a	n/a	3	18	Cue	AvoidedLoss	True
179.872	4.05	Lose2	0.8946999999999999	0.0	Yes	2.729	0.001	n/a	GoodResponse	0	n/a	n/a	3	18	Fixation	AvoidedLoss	True
183.918	0.24	Lose2	0.8946999999999999	0.003	Yes	2.729	-0.003	2.0	GoodResponse	0	0.201	183.119	3	18	Target	AvoidedLoss	True
184.119	0.3	Lose2	0.8946999999999999	0.003	Yes	2.729	-0.003	2.0	GoodResponse	0	0.201	n/a	3	18	ButtonPress	AvoidedLoss	True
184.168	0.46	Lose2	0.8946999999999999	n/a	Yes	2.729	n/a	n/a	GoodResponse	0	n/a	n/a	3	18	Blank	AvoidedLoss	True
184.62	1.45	Lose2	0.8946999999999999	n/a	Yes	2.729	n/a	5.0	GoodResponse	0	0.035	183.655	3	18	Feedback	AvoidedLoss	True
186.074	2.729	Lose2	0.8946999999999999	n/a	Yes	2.729	n/a	n/a	GoodResponse	0	0.0	n/a	3	18	ISIslide	AvoidedLoss	True
188.816	0.25	Control	0.9	0.0	Yes	2.934	0.016	n/a	GoodResponse	0	n/a	n/a	3	19	Cue	Neutral	True
189.066	3.95	Control	0.9	0.0	Yes	2.934	0.0	n/a	GoodResponse	0	n/a	n/a	3	19	Fixation	Neutral	True
193.028	0.23	Control	0.9	0.0	Yes	2.934	0.012	2.0	GoodResponse	0	0.191	192.219	3	19	Target	Neutral	True
193.219	0.3	Control	0.9	0.0	Yes	2.934	0.012	2.0	GoodResponse	0	0.191	n/a	3	19	ButtonPress	Neutral	True
193.245	0.47	Control	0.9	n/a	Yes	2.934	n/a	n/a	GoodResponse	0	n/a	n/a	3	19	Blank	Neutral	True
193.713	1.45	Control	0.9	n/a	Yes	2.934	n/a	5.0	GoodResponse	0	0.016	192.729	3	19	Feedback	Neutral	True
195.168	2.934	Control	0.9	n/a	Yes	2.934	n/a	n/a	GoodResponse	0	0.0	n/a	3	19	ISIslide	Neutral	True
198.127	0.25	Control	0.8571	0.0	No	2.623	0.027	n/a	LatePress	0	n/a	n/a	3	20	Cue	Neutral	True
198.377	4.05	Control	0.8571	0.0	No	2.623	0.0	n/a	LatePress	0	n/a	n/a	3	20	Fixation	Neutral	True
202.423	0.22	Control	0.8571	0.004	No	2.623	-0.004	2.0	LatePress	0	0.222	201.645	3	20	Target	Neutral	True
202.645	0.3	Control	0.8571	0.004	No	2.623	-0.004	2.0	LatePress	0	0.222	n/a	3	20	ButtonPress	Neutral	True
202.657	0.48	Control	0.8571	n/a	No	2.623	n/a	n/a	LatePress	0	n/a	n/a	3	20	Blank	Neutral	True
203.125	1.45	Control	0.8571	n/a	No	2.623	n/a	5.0	LatePress	0	0.018	202.143	3	20	Feedback	Neutral	True
204.579	2.623	Control	0.8571	n/a	No	2.623	n/a	n/a	LatePress	0	0.0	n/a	3	20	ISIslide	Neutral	True
207.22	0.25	Control	0.8636	0.001	Yes	2.78	0.02	n/a	GoodResponse	0	n/a	n/a	3	21	Cue	Neutral	True
207.471	4.1	Control	0.8636	0.0	Yes	2.78	0.001	n/a	GoodResponse	0	n/a	n/a	3	21	Fixation	Neutral	True
211.567	0.21	Control	0.8636	0.003	Yes	2.78	-0.003	2.0	GoodResponse	0	0.178	210.745	3	21	Target	Neutral	True
211.745	0.3	Control	0.8636	0.003	Yes	2.78	-0.003	2.0	GoodResponse	0	0.178	n/a	3	21	ButtonPress	Neutral	True
211.784	0.49	Control	0.8636	n/a	Yes	2.78	n/a	n/a	GoodResponse	0	n/a	n/a	3	21	Blank	Neutral	True
212.269	1.45	Control	0.8636	n/a	Yes	2.78	n/a	5.0	GoodResponse	0	0.045	211.314	3	21	Feedback	Neutral	True
213.723	2.78	Control	0.8636	n/a	Yes	2.78	n/a	n/a	GoodResponse	0	0.0	n/a	3	21	ISIslide	Neutral	True
216.515	0.25	Control	0.8695999999999999	0.0	Yes	2.785	0.015	n/a	GoodResponse	0	n/a	n/a	3	22	Cue	Neutral	True
216.766	4.0	Control	0.8695999999999999	0.0	Yes	2.785	0.001	n/a	GoodResponse	0	n/a	n/a	3	22	Fixation	Neutral	True
220.761	0.2	Control	0.8695999999999999	0.004	Yes	2.785	-0.004	2.0	GoodResponse	0	0.179	219.94	3	22	Target	Neutral	True
220.94	0.3	Control	0.8695999999999999	0.004	Yes	2.785	-0.004	2.0	GoodResponse	0	0.179	n/a	3	22	ButtonPress	Neutral	True
220.962	0.5	Control	0.8695999999999999	n/a	Yes	2.785	n/a	n/a	GoodResponse	0	n/a	n/a	3	22	Blank	Neutral	True
221.463	1.45	Control	0.8695999999999999	n/a	Yes	2.785	n/a	5.0	GoodResponse	0	0.021	220.484	3	22	Feedback	Neutral	True
222.917	2.785	Control	0.8695999999999999	n/a	Yes	2.785	n/a	n/a	GoodResponse	0	0.0	n/a	3	22	ISIslide	Neutral	True
225.726	0.25	Control	0.8332999999999999	0.0	No	2.774	0.026	n/a	NoResponse	0	n/a	n/a	3	23	Cue	Neutral	True
225.977	3.9	Control	0.8332999999999999	0.0	No	2.774	0.001	n/a	NoResponse	0	n/a	n/a	3	23	Fixation	Neutral	True
229.888	0.19	Control	0.8332999999999999	0.0	No	2.774	0.012	2.0	NoResponse	0	0.208	229.096	3	23	Target	Neutral	True
230.072	0.51	Control	0.8332999999999999	n/a	No	2.774	n/a	n/a	NoResponse	0	n/a	n/a	3	23	Blank	Neutral	True
230.096	0.3	Control	0.8332999999999999	0.0	No	2.774	0.012	2.0	NoResponse	0	0.208	n/a	3	23	ButtonPress	Neutral	True
230.574	1.45	Control	0.8332999999999999	n/a	No	2.774	n/a	5.0	NoResponse	0	0.032	229.606	3	23	Feedback	Neutral	True
232.028	2.774	Control	0.8332999999999999	n/a	No	2.774	n/a	n/a	NoResponse	0	0.0	n/a	3	23	ISIslide	Neutral	True
234.82	0.25	Win2	0.8	0.0	No	3.13	0.02	n/a	NoResponse	0	n/a	n/a	3	24	Cue	MissedWin	True
235.07	3.95	Win2	0.8	0.0	No	3.13	0.0	n/a	NoResponse	0	n/a	n/a	3	24	Fixation	MissedWin	True
239.032	0.18	Win2	0.8	0.0	No	3.13	0.012	2.0	NoResponse	0	0.183	238.215	3	24	Target	MissedWin	True
239.199	0.52	Win2	0.8	n/a	No	3.13	n/a	n/a	NoResponse	0	n/a	n/a	3	24	Blank	MissedWin	True
239.215	0.3	Win2	0.8	0.0	No	3.13	0.012	2.0	NoResponse	0	0.183	n/a	3	24	ButtonPress	MissedWin	True
239.718	1.45	Win2	0.8	n/a	No	3.13	n/a	5.0	NoResponse	0	0.01	238.728	3	24	Feedback	MissedWin	True
241.172	3.13	Win2	0.8	n/a	No	3.13	n/a	n/a	NoResponse	0	0.0	n/a	3	24	ISIslide	MissedWin	True
244.331	0.25	Win2	0.7692	0.0	No	3.069	0.031	n/a	NoResponse	0	n/a	n/a	3	25	Cue	MissedWin	True
244.582	4.0	Win2	0.7692	0.0	No	3.069	0.001	n/a	NoResponse	0	n/a	n/a	3	25	Fixation	MissedWin	True
248.577	0.17	Win2	0.7692	0.004	No	3.069	-0.004	2.0	NoResponse	0	0.197	247.774	3	25	Target	MissedWin	True
248.761	0.53	Win2	0.7692	n/a	No	3.069	n/a	n/a	NoResponse	0	n/a	n/a	3	25	Blank	MissedWin	True
248.774	0.3	Win2	0.7692	0.004	No	3.069	-0.004	2.0	NoResponse	0	0.197	n/a	3	25	ButtonPress	MissedWin	True
249.279	1.45	Win2	0.7692	n/a	No	3.069	n/a	5.0	NoResponse	0	0.01	248.289	3	25	Feedback	MissedWin	True
250.734	3.069	Win2	0.7692	n/a	No	3.069	n/a	n/a	NoResponse	0	0.0	n/a	3	25	ISIslide	MissedWin	True
253.826	0.25	Win2	0.7406999999999999	0.0	No	2.924	0.026	n/a	NoResponse	0	n/a	n/a	3	26	Cue	MissedWin	True
254.077	3.95	Win2	0.7406999999999999	0.0	No	2.924	0.001	n/a	NoResponse	0	n/a	n/a	3	26	Fixation	MissedWin	True
258.022	0.16	Win2	0.7406999999999999	0.004	No	2.924	-0.004	2.0	NoResponse	0	0.203	257.225	3	26	Target	MissedWin	True
258.189	0.54	Win2	0.7406999999999999	n/a	No	2.924	n/a	n/a	NoResponse	0	n/a	n/a	3	26	Blank	MissedWin	True
258.225	0.3	Win2	0.7406999999999999	0.004	No	2.924	-0.004	2.0	NoResponse	0	0.203	n/a	3	26	ButtonPress	MissedWin	True
258.724	1.45	Win2	0.7406999999999999	n/a	No	2.924	n/a	5.0	NoResponse	0	0.028	257.752	3	26	Feedback	MissedWin	True
260.179	2.924	Win2	0.7406999999999999	n/a	No	2.924	n/a	n/a	NoResponse	0	0.0	n/a	3	26	ISIslide	MissedWin	True
263.121	0.25	Lose2	0.7143	0.0	No	2.829	0.021	n/a	NoResponse	-1	n/a	n/a	2	27	Cue	Loss	True
263.372	4.05	Lose2	0.7143	0.0	No	2.829	0.001	n/a	NoResponse	-1	n/a	n/a	2	27	Fixation	Loss	True
267.417	0.15	Lose2	0.7143	0.004	No	2.829	-0.004	2.0	NoResponse	-1	0.217	266.634	2	27	Target	Loss	True
267.567	0.55	Lose2	0.7143	n/a	No	2.829	n/a	n/a	NoResponse	-1	n/a	n/a	2	27	Blank	Loss	True
267.634	0.3	Lose2	0.7143	0.004	No	2.829	-0.004	2.0	NoResponse	-1	0.217	n/a	2	27	ButtonPress	Loss	True
268.119	1.45	Lose2	0.7143	n/a	No	2.829	n/a	5.0	NoResponse	-1	0.047	267.166	2	27	Feedback	Loss	True
269.573	2.829	Lose2	0.7143	n/a	No	2.829	n/a	n/a	NoResponse	-1	0.0	n/a	2	27	ISIslide	Loss	True
272.415	0.25	Control	0.6897	0.0	No	2.835	0.015	n/a	NoResponse	0	n/a	n/a	2	28	Cue	Neutral	True
272.666	4.05	Control	0.6897	0.0	No	2.835	0.001	n/a	NoResponse	0	n/a	n/a	2	28	Fixation	Neutral	True
276.711	0.15	Control	0.6897	0.004	No	2.835	-0.004	2.0	NoResponse	0	0.18	275.891	2	28	Target	Neutral	True
276.862	0.55	Control	0.6897	n/a	No	2.835	n/a	n/a	NoResponse	0	n/a	n/a	2	28	Blank	Neutral	True
276.891	0.3	Control	0.6897	0.004	No	2.835	-0.004	2.0	NoResponse	0	0.18	n/a	2	28	ButtonPress	Neutral	True
277.413	1.45	Control	0.6897	n/a	No	2.835	n/a	5.0	NoResponse	0	0.022	276.435	2	28	Feedback	Neutral	True
278.868	2.835	Control	0.6897	n/a	No	2.835	n/a	n/a	NoResponse	0	0.0	n/a	2	28	ISIslide	Neutral	True
281.726	0.25	Lose2	0.6667000000000001	0.0	No	2.824	0.026	n/a	NoResponse	-1	n/a	n/a	1	29	Cue	Loss	True
281.977	3.95	Lose2	0.6667000000000001	0.0	No	2.824	0.001	n/a	NoResponse	-1	n/a	n/a	1	29	Fixation	Loss	True
285.922	0.15	Lose2	0.6667000000000001	0.004	No	2.824	-0.004	2.0	NoResponse	-1	0.198	285.12	1	29	Target	Loss	True
286.073	0.55	Lose2	0.6667000000000001	n/a	No	2.824	n/a	n/a	NoResponse	-1	n/a	n/a	1	29	Blank	Loss	True
286.12	0.3	Lose2	0.6667000000000001	0.004	No	2.824	-0.004	2.0	NoResponse	-1	0.198	n/a	1	29	ButtonPress	Loss	True
286.624	1.45	Lose2	0.6667000000000001	n/a	No	2.824	n/a	5.0	NoResponse	-1	0.031	285.655	1	29	Feedback	Loss	True
288.079	2.824	Lose2	0.6667000000000001	n/a	No	2.824	n/a	n/a	NoResponse	-1	0.0	n/a	1	29	ISIslide	Loss	True
290.92	0.25	Win2	0.6452	0.001	No	2.78	0.02	n/a	NoResponse	0	n/a	n/a	1	30	Cue	MissedWin	True
291.171	3.9	Win2	0.6452	0.0	No	2.78	0.001	2.0	NoResponse	0	3.875	294.046	1	30	Fixation	MissedWin	True
295.046	0.3	Win2	0.6452	0.0	No	2.78	0.001	2.0	NoResponse	0	3.875	n/a	1	30	ButtonPress	MissedWin	True
295.066	0.15	Win2	0.6452	0.004	No	2.78	-0.004	n/a	NoResponse	0	n/a	n/a	1	30	Target	MissedWin	True
295.217	0.55	Win2	0.6452	n/a	No	2.78	n/a	n/a	NoResponse	0	n/a	n/a	1	30	Blank	MissedWin	True
295.768	1.45	Win2	0.6452	n/a	No	2.78	n/a	5.0	NoResponse	0	0.008	294.776	1	30	Feedback	MissedWin	True
297.223	2.78	Win2	0.6452	n/a	No	2.78	n/a	n/a	NoResponse	0	0.0	n/a	1	30	ISIslide	MissedWin	True
300.031	0.25	Lose2	0.625	0.0	No	2.819	0.031	n/a	NoResponse	-1	n/a	n/a	0	31	Cue	Loss	True
300.282	4.05	Lose2	0.625	0.0	No	2.819	0.001	n/a	NoResponse	-1	n/a	n/a	0	31	Fixation	Loss	True
304.327	0.16	Lose2	0.625	0.004	No	2.819	-0.004	2.0	NoResponse	-1	0.193	303.52	0	31	Target	Loss	True
304.494	0.54	Lose2	0.625	n/a	No	2.819	n/a	n/a	NoResponse	-1	n/a	n/a	0	31	Blank	Loss	True
304.52	0.3	Lose2	0.625	0.004	No	2.819	-0.004	2.0	NoResponse	-1	0.193	n/a	0	31	ButtonPress	Loss	True
305.029	1.45	Lose2	0.625	n/a	No	2.819	n/a	5.0	NoResponse	-1	0.015	304.044	0	31	Feedback	Loss	True
306.484	2.819	Lose2	0.625	n/a	No	2.819	n/a	n/a	NoResponse	-1	0.0	n/a	0	31	ISIslide	Loss	True
309.325	0.25	Lose2	0.6061	0.0	No	2.625	0.025	n/a	PrematurePress	-1	n/a	n/a	-1	32	Cue	Loss	True
309.576	4.15	Lose2	0.6061	0.0	No	2.625	0.001	n/a	PrematurePress	-1	n/a	n/a	-1	32	Fixation	Loss	True
313.722	0.17	Lose2	0.6061	0.003	No	2.625	-0.003	2.0	PrematurePress	-1	0.084	312.806	-1	32	Target	Loss	True
313.806	0.3	Lose2	0.6061	0.003	No	2.625	-0.003	2.0	PrematurePress	-1	0.084	n/a	-1	32	ButtonPress	Loss	True
313.906	0.53	Lose2	0.6061	n/a	No	2.625	n/a	n/a	PrematurePress	-1	n/a	n/a	-1	32	Blank	Loss	True
314.424	1.45	Lose2	0.6061	n/a	No	2.625	n/a	5.0	PrematurePress	-1	0.035	313.459	-1	32	Feedback	Loss	True
315.878	2.625	Lose2	0.6061	n/a	No	2.625	n/a	n/a	PrematurePress	-1	0.0	n/a	-1	32	ISIslide	Loss	True
318.52	0.25	Win2	0.5882000000000001	0.0	No	2.68	0.02	n/a	LatePress	0	n/a	n/a	-1	33	Cue	MissedWin	True
318.77	4.0	Win2	0.5882000000000001	0.0	No	2.68	0.0	n/a	LatePress	0	n/a	n/a	-1	33	Fixation	MissedWin	True
322.766	0.18	Win2	0.5882000000000001	0.004	No	2.68	-0.004	2.0	LatePress	0	0.184	321.95	-1	33	Target	MissedWin	True
322.949	0.52	Win2	0.5882000000000001	n/a	No	2.68	n/a	n/a	LatePress	0	n/a	n/a	-1	33	Blank	MissedWin	True
322.95	0.3	Win2	0.5882000000000001	0.004	No	2.68	-0.004	2.0	LatePress	0	0.184	n/a	-1	33	ButtonPress	MissedWin	True
323.468	1.45	Win2	0.5882000000000001	n/a	No	2.68	n/a	5.0	LatePress	0	0.015	322.483	-1	33	Feedback	MissedWin	True
324.922	2.68	Win2	0.5882000000000001	n/a	No	2.68	n/a	n/a	LatePress	0	0.0	n/a	-1	33	ISIslide	MissedWin	True
327.63	0.25	Lose2	0.6	0.0	Yes	2.62	0.03	n/a	GoodResponse	0	n/a	n/a	-1	34	Cue	AvoidedLoss	True
327.881	4.05	Lose2	0.6	0.0	Yes	2.62	0.001	n/a	GoodResponse	0	n/a	n/a	-1	34	Fixation	AvoidedLoss	True
331.926	0.19	Lose2	0.6	0.004	Yes	2.62	-0.004	2.0	GoodResponse	0	0.181	331.107	-1	34	Target	AvoidedLoss	True
332.107	0.3	Lose2	0.6	0.004	Yes	2.62	-0.004	2.0	GoodResponse	0	0.181	n/a	-1	34	ButtonPress	AvoidedLoss	True
332.127	0.51	Lose2	0.6	n/a	Yes	2.62	n/a	n/a	GoodResponse	0	n/a	n/a	-1	34	Blank	AvoidedLoss	True
332.628	1.45	Lose2	0.6	n/a	Yes	2.62	n/a	5.0	GoodResponse	0	0.025	331.653	-1	34	Feedback	AvoidedLoss	True
334.083	2.62	Lose2	0.6	n/a	Yes	2.62	n/a	n/a	GoodResponse	0	0.0	n/a	-1	34	ISIslide	AvoidedLoss	True
336.724	0.25	Lose2	0.5832999999999999	0.0	No	2.676	0.024	n/a	NoResponse	-1	n/a	n/a	-2	35	Cue	Loss	True
336.975	4.0	Lose2	0.5832999999999999	0.0	No	2.676	0.001	n/a	NoResponse	-1	n/a	n/a	-2	35	Fixation	Loss	True
340.97	0.2	Lose2	0.5832999999999999	0.004	No	2.676	-0.004	2.0	NoResponse	-1	0.211	340.181	-2	35	Target	Loss	True
341.171	0.5	Lose2	0.5832999999999999	n/a	No	2.676	n/a	n/a	NoResponse	-1	n/a	n/a	-2	35	Blank	Loss	True
341.181	0.3	Lose2	0.5832999999999999	0.004	No	2.676	-0.004	2.0	NoResponse	-1	0.211	n/a	-2	35	ButtonPress	Loss	True
341.672	1.45	Lose2	0.5832999999999999	n/a	No	2.676	n/a	5.0	NoResponse	-1	0.008	340.68	-2	35	Feedback	Loss	True
343.126	2.676	Lose2	0.5832999999999999	n/a	No	2.676	n/a	n/a	NoResponse	-1	0.0	n/a	-2	35	ISIslide	Loss	True
345.818	0.25	Control	0.5676	0.0	No	2.682	0.018	n/a	NoResponse	0	n/a	n/a	-2	36	Cue	Neutral	True
346.068	4.0	Control	0.5676	0.001	No	2.682	0.0	2.0	NoResponse	0	3.924	348.992	-2	36	Fixation	Neutral	True
349.992	0.3	Control	0.5676	0.001	No	2.682	0.0	2.0	NoResponse	0	3.924	n/a	-2	36	ButtonPress	Neutral	True
350.064	0.21	Control	0.5676	0.004	No	2.682	-0.004	n/a	NoResponse	0	n/a	n/a	-2	36	Target	Neutral	True
350.281	0.49	Control	0.5676	n/a	No	2.682	n/a	n/a	NoResponse	0	n/a	n/a	-2	36	Blank	Neutral	True
350.766	1.45	Control	0.5676	n/a	No	2.682	n/a	5.0	NoResponse	0	0.034	349.8	-2	36	Feedback	Neutral	True
352.22	2.682	Control	0.5676	n/a	No	2.682	n/a	n/a	NoResponse	0	0.0	n/a	-2	36	ISIslide	Neutral	True
354.928	0.25	Win2	0.5789	0.0	Yes	2.872	0.028	n/a	GoodResponse	1	n/a	n/a	-1	37	Cue	Win	True
355.179	4.0	Win2	0.5789	0.0	Yes	2.872	0.001	n/a	GoodResponse	1	n/a	n/a	-1	37	Fixation	Win	True
359.174	0.22	Win2	0.5789	0.004	Yes	2.872	-0.004	2.0	GoodResponse	1	0.195	358.369	-1	37	Target	Win	True
359.369	0.3	Win2	0.5789	0.004	Yes	2.872	-0.004	2.0	GoodResponse	1	0.195	n/a	-1	37	ButtonPress	Win	True
359.408	0.48	Win2	0.5789	n/a	Yes	2.872	n/a	n/a	GoodResponse	1	n/a	n/a	-1	37	Blank	Win	True
359.876	1.45	Win2	0.5789	n/a	Yes	2.872	n/a	5.0	GoodResponse	1	0.046	358.922	-1	37	Feedback	Win	True
361.331	2.872	Win2	0.5789	n/a	Yes	2.872	n/a	n/a	GoodResponse	1	0.0	n/a	-1	37	ISIslide	Win	True
364.223	0.25	Lose2	0.5897	0.0	Yes	2.827	0.023	n/a	GoodResponse	0	n/a	n/a	-1	38	Cue	AvoidedLoss	True
364.473	3.95	Lose2	0.5897	0.001	Yes	2.827	0.0	n/a	GoodResponse	0	n/a	n/a	-1	38	Fixation	AvoidedLoss	True
368.419	0.23	Lose2	0.5897	0.004	Yes	2.827	-0.004	2.0	GoodResponse	0	0.128	367.547	-1	38	Target	AvoidedLoss	True
368.547	0.3	Lose2	0.5897	0.004	Yes	2.827	-0.004	2.0	GoodResponse	0	0.128	n/a	-1	38	ButtonPress	AvoidedLoss	True
368.653	0.47	Lose2	0.5897	n/a	Yes	2.827	n/a	n/a	GoodResponse	0	n/a	n/a	-1	38	Blank	AvoidedLoss	True
369.121	1.45	Lose2	0.5897	n/a	Yes	2.827	n/a	5.0	GoodResponse	0	0.019	368.14	-1	38	Feedback	AvoidedLoss	True
370.575	2.827	Lose2	0.5897	n/a	Yes	2.827	n/a	n/a	GoodResponse	0	0.0	n/a	-1	38	ISIslide	AvoidedLoss	True
373.417	0.25	Win2	0.575	0.0	No	2.983	0.017	n/a	NoResponse	0	n/a	n/a	-1	39	Cue	MissedWin	True
373.668	4.1	Win2	0.575	0.0	No	2.983	0.001	2.0	NoResponse	0	4.019	376.687	-1	39	Fixation	MissedWin	True
377.687	0.3	Win2	0.575	0.0	No	2.983	0.001	2.0	NoResponse	0	4.019	n/a	-1	39	ButtonPress	MissedWin	True
377.763	0.24	Win2	0.575	0.004	No	2.983	-0.004	n/a	NoResponse	0	n/a	n/a	-1	39	Target	MissedWin	True
378.014	0.46	Win2	0.575	n/a	No	2.983	n/a	n/a	NoResponse	0	n/a	n/a	-1	39	Blank	MissedWin	True
378.465	1.45	Win2	0.575	n/a	No	2.983	n/a	5.0	NoResponse	0	0.041	377.506	-1	39	Feedback	MissedWin	True
379.92	2.983	Win2	0.575	n/a	No	2.983	n/a	n/a	NoResponse	0	0.0	n/a	-1	39	ISIslide	MissedWin	True
382.929	0.25	Win2	0.561	0.0	No	2.721	0.029	n/a	NoResponse	0	n/a	n/a	-1	40	Cue	MissedWin	True
383.179	3.95	Win2	0.561	0.0	No	2.721	0.0	2.0	NoResponse	0	3.932	386.111	-1	40	Fixation	MissedWin	True
387.111	0.3	Win2	0.561	0.0	No	2.721	0.0	2.0	NoResponse	0	3.932	n/a	-1	40	ButtonPress	MissedWin	True
387.124	0.25	Win2	0.561	0.005	No	2.721	-0.005	n/a	NoResponse	0	n/a	n/a	-1	40	Target	MissedWin	True
387.375	0.45	Win2	0.561	n/a	No	2.721	n/a	n/a	NoResponse	0	n/a	n/a	-1	40	Blank	MissedWin	True
387.827	1.45	Win2	0.561	n/a	No	2.721	n/a	5.0	NoResponse	0	0.045	386.872	-1	40	Feedback	MissedWin	True
389.281	2.721	Win2	0.561	n/a	No	2.721	n/a	n/a	NoResponse	0	0.0	n/a	-1	40	ISIslide	MissedWin	True
392.022	0.25	Win2	0.5714	0.001	Yes	2.778	0.022	n/a	GoodResponse	1	n/a	n/a	0	41	Cue	Win	True
392.273	3.9	Win2	0.5714	0.0	Yes	2.778	0.001	n/a	GoodResponse	1	n/a	n/a	0	41	Fixation	Win	True
396.168	0.26	Win2	0.5714	0.004	Yes	2.778	-0.004	2.0	GoodResponse	1	0.221	395.389	0	41	Target	Win	True
396.389	0.3	Win2	0.5714	0.004	Yes	2.778	-0.004	2.0	GoodResponse	1	0.221	n/a	0	41	ButtonPress	Win	True
396.436	0.44	Win2	0.5714	n/a	Yes	2.778	n/a	n/a	GoodResponse	1	n/a	n/a	0	41	Blank	Win	True
396.87	1.45	Win2	0.5714	n/a	Yes	2.778	n/a	5.0	GoodResponse	1	0.027	395.897	0	41	Feedback	Win	True
398.325	2.778	Win2	0.5714	n/a	Yes	2.778	n/a	n/a	GoodResponse	1	0.0	n/a	0	41	ISIslide	Win	True
401.116	0.25	Control	0.5814	0.0	Yes	2.934	0.016	n/a	GoodResponse	0	n/a	n/a	0	42	Cue	Neutral	True
401.367	3.85	Control	0.5814	0.0	Yes	2.934	0.001	n/a	GoodResponse	0	n/a	n/a	0	42	Fixation	Neutral	True
405.212	0.27	Control	0.5814	0.004	Yes	2.934	-0.004	2.0	GoodResponse	0	0.179	404.391	0	42	Target	Neutral	True
405.391	0.3	Control	0.5814	0.004	Yes	2.934	-0.004	2.0	GoodResponse	0	0.179	n/a	0	42	ButtonPress	Neutral	True
405.496	0.43	Control	0.5814	n/a	Yes	2.934	n/a	n/a	GoodResponse	0	n/a	n/a	0	42	Blank	Neutral	True
405.914	1.45	Control	0.5814	n/a	Yes	2.934	n/a	5.0	GoodResponse	0	0.008	404.922	0	42	Feedback	Neutral	True
407.368	2.934	Control	0.5814	n/a	Yes	2.934	n/a	n/a	GoodResponse	0	0.0	n/a	0	42	ISIslide	Neutral	True
410.327	0.25	Win2	0.5909	0.0	Yes	3.173	0.027	n/a	GoodResponse	1	n/a	n/a	1	43	Cue	Win	True
410.578	4.0	Win2	0.5909	0.0	Yes	3.173	0.001	n/a	GoodResponse	1	n/a	n/a	1	43	Fixation	Win	True
414.573	0.28	Win2	0.5909	0.004	Yes	3.173	-0.004	2.0	GoodResponse	1	0.192	413.765	1	43	Target	Win	True
414.765	0.3	Win2	0.5909	0.004	Yes	3.173	-0.004	2.0	GoodResponse	1	0.192	n/a	1	43	ButtonPress	Win	True
414.857	0.42	Win2	0.5909	n/a	Yes	3.173	n/a	n/a	GoodResponse	1	n/a	n/a	1	43	Blank	Win	True
415.275	1.45	Win2	0.5909	n/a	Yes	3.173	n/a	5.0	GoodResponse	1	0.011	414.286	1	43	Feedback	Win	True
416.73	3.173	Win2	0.5909	n/a	Yes	3.173	n/a	n/a	GoodResponse	1	0.0	n/a	1	43	ISIslide	Win	True
419.922	0.25	Win2	0.5778	0.0	No	2.978	0.022	n/a	PrematurePress	0	n/a	n/a	1	44	Cue	MissedWin	True
420.173	4.0	Win2	0.5778	0.0	No	2.978	0.001	n/a	PrematurePress	0	n/a	n/a	1	44	Fixation	MissedWin	True
424.168	0.29	Win2	0.5778	0.004	No	2.978	-0.004	2.0	PrematurePress	0	0.076	423.244	1	44	Target	MissedWin	True
424.244	0.3	Win2	0.5778	0.004	No	2.978	-0.004	2.0	PrematurePress	0	0.076	n/a	1	44	ButtonPress	MissedWin	True
424.469	0.41	Win2	0.5778	n/a	No	2.978	n/a	n/a	PrematurePress	0	n/a	n/a	1	44	Blank	MissedWin	True
424.87	1.45	Win2	0.5778	n/a	No	2.978	n/a	5.0	PrematurePress	0	0.026	423.896	1	44	Feedback	MissedWin	True
426.325	2.978	Win2	0.5778	n/a	No	2.978	n/a	n/a	PrematurePress	0	0.0	n/a	1	44	ISIslide	MissedWin	True
429.317	0.25	Control	0.5870000000000001	0.0	Yes	2.883	0.017	n/a	GoodResponse	0	n/a	n/a	1	45	Cue	Neutral	True
429.568	4.1	Control	0.5870000000000001	0.0	Yes	2.883	0.001	n/a	GoodResponse	0	n/a	n/a	1	45	Fixation	Neutral	True
433.663	0.3	Control	0.5870000000000001	0.004	Yes	2.883	-0.004	2.0	GoodResponse	0	0.192	432.855	1	45	Target	Neutral	True
433.855	0.3	Control	0.5870000000000001	0.004	Yes	2.883	-0.004	2.0	GoodResponse	0	0.192	n/a	1	45	ButtonPress	Neutral	True
433.964	0.4	Control	0.5870000000000001	n/a	Yes	2.883	n/a	n/a	GoodResponse	0	n/a	n/a	1	45	Blank	Neutral	True
434.366	1.45	Control	0.5870000000000001	n/a	Yes	2.883	n/a	5.0	GoodResponse	0	0.042	433.408	1	45	Feedback	Neutral	True
435.82	2.883	Control	0.5870000000000001	n/a	Yes	2.883	n/a	n/a	GoodResponse	0	0.0	n/a	1	45	ISIslide	Neutral	True
438.729	0.25	Lose2	0.5957	0.0	Yes	3.371	0.029	n/a	GoodResponse	0	n/a	n/a	1	46	Cue	AvoidedLoss	True
438.979	4.0	Lose2	0.5957	0.0	Yes	3.371	0.0	n/a	GoodResponse	0	n/a	n/a	1	46	Fixation	AvoidedLoss	True
442.975	0.31	Lose2	0.5957	0.004	Yes	3.371	-0.004	2.0	GoodResponse	0	0.14	442.115	1	46	Target	AvoidedLoss	True
443.115	0.3	Lose2	0.5957	0.004	Yes	3.371	-0.004	2.0	GoodResponse	0	0.14	n/a	1	46	ButtonPress	AvoidedLoss	True
443.292	0.39	Lose2	0.5957	n/a	Yes	3.371	n/a	n/a	GoodResponse	0	n/a	n/a	1	46	Blank	AvoidedLoss	True
443.677	1.45	Lose2	0.5957	n/a	Yes	3.371	n/a	5.0	GoodResponse	0	0.047	442.724	1	46	Feedback	AvoidedLoss	True
445.131	3.371	Lose2	0.5957	n/a	Yes	3.371	n/a	n/a	GoodResponse	0	0.0	n/a	1	46	ISIslide	AvoidedLoss	True
448.524	0.25	Lose2	0.6042000000000001	0.001	Yes	2.676	0.024	n/a	GoodResponse	0	n/a	n/a	1	47	Cue	AvoidedLoss	True
448.775	4.0	Lose2	0.6042000000000001	0.0	Yes	2.676	0.001	n/a	GoodResponse	0	n/a	n/a	1	47	Fixation	AvoidedLoss	True
452.77	0.32	Lose2	0.6042000000000001	0.004	Yes	2.676	-0.004	2.0	GoodResponse	0	0.193	451.963	1	47	Target	AvoidedLoss	True
452.963	0.3	Lose2	0.6042000000000001	0.004	Yes	2.676	-0.004	2.0	GoodResponse	0	0.193	n/a	1	47	ButtonPress	AvoidedLoss	True
453.105	0.38	Lose2	0.6042000000000001	n/a	Yes	2.676	n/a	n/a	GoodResponse	0	n/a	n/a	1	47	Blank	AvoidedLoss	True
453.473	1.45	Lose2	0.6042000000000001	n/a	Yes	2.676	n/a	5.0	GoodResponse	0	0.008	452.481	1	47	Feedback	AvoidedLoss	True
454.927	2.676	Lose2	0.6042000000000001	n/a	Yes	2.676	n/a	n/a	GoodResponse	0	0.0	n/a	1	47	ISIslide	AvoidedLoss	True
457.618	0.25	Lose2	0.5918	0.0	No	3.032	0.018	n/a	PrematurePress	-1	n/a	n/a	0	48	Cue	Loss	True
457.869	3.95	Lose2	0.5918	0.0	No	3.032	0.001	n/a	PrematurePress	-1	n/a	n/a	0	48	Fixation	Loss	True
461.814	0.33	Lose2	0.5918	0.004	No	3.032	-0.004	2.0	PrematurePress	-1	0.008	460.822	0	48	Target	Loss	True
461.822	0.3	Lose2	0.5918	0.004	No	3.032	-0.004	2.0	PrematurePress	-1	0.008	n/a	0	48	ButtonPress	Loss	True
462.148	0.37	Lose2	0.5918	n/a	No	3.032	n/a	n/a	PrematurePress	-1	n/a	n/a	0	48	Blank	Loss	True
462.516	1.45	Lose2	0.5918	n/a	No	3.032	n/a	5.0	PrematurePress	-1	0.038	461.554	0	48	Feedback	Loss	True
463.971	3.032	Lose2	0.5918	n/a	No	3.032	n/a	n/a	PrematurePress	-1	0.0	n/a	0	48	ISIslide	Loss	True
467.03	0.25	Control	0.58	0.0	No	2.87	0.03	n/a	NoResponse	0	n/a	n/a	0	49	Cue	Neutral	True
467.28	4.0	Control	0.58	0.001	No	2.87	0.0	2.0	NoResponse	0	3.769	470.049	0	49	Fixation	Neutral	True
471.049	0.3	Control	0.58	0.001	No	2.87	0.0	2.0	NoResponse	0	3.769	n/a	0	49	ButtonPress	Neutral	True
471.276	0.34	Control	0.58	0.004	No	2.87	-0.004	n/a	NoResponse	0	n/a	n/a	0	49	Target	Neutral	True
471.627	0.36	Control	0.58	n/a	No	2.87	n/a	n/a	NoResponse	0	n/a	n/a	0	49	Blank	Neutral	True
471.978	1.45	Control	0.58	n/a	No	2.87	n/a	5.0	NoResponse	0	0.039	471.017	0	49	Feedback	Neutral	True
473.432	2.87	Control	0.58	n/a	No	2.87	n/a	n/a	NoResponse	0	0.0	n/a	0	49	ISIslide	Neutral	True
476.324	0.25	Control	0.5882000000000001	0.0	Yes	2.776	0.024	n/a	GoodResponse	0	n/a	n/a	0	50	Cue	Neutral	True
476.575	4.0	Control	0.5882000000000001	0.0	Yes	2.776	0.001	n/a	GoodResponse	0	n/a	n/a	0	50	Fixation	Neutral	True
480.57	0.35	Control	0.5882000000000001	0.004	Yes	2.776	-0.004	2.0	GoodResponse	0	0.192	479.762	0	50	Target	Neutral	True
480.762	0.3	Control	0.5882000000000001	0.004	Yes	2.776	-0.004	2.0	GoodResponse	0	0.192	n/a	0	50	ButtonPress	Neutral	True
480.921	0.35	Control	0.5882000000000001	n/a	Yes	2.776	n/a	n/a	GoodResponse	0	n/a	n/a	0	50	Blank	Neutral	True
481.272	1.45	Control	0.5882000000000001	n/a	Yes	2.776	n/a	5.0	GoodResponse	0	0.013	480.285	0	50	Feedback	Neutral	True
482.727	2.776	Control	0.5882000000000001	n/a	Yes	2.776	n/a	n/a	GoodResponse	0	0.0	n/a	0	50	ISIslide	Neutral	True
485.518	0.25	Control	0.5962	0.0	Yes	2.732	0.018	n/a	GoodResponse	0	n/a	n/a	0	51	Cue	Neutral	True
485.769	3.95	Control	0.5962	0.0	Yes	2.732	0.001	n/a	GoodResponse	0	n/a	n/a	0	51	Fixation	Neutral	True
489.714	0.36	Control	0.5962	0.004	Yes	2.732	-0.004	2.0	GoodResponse	0	0.191	488.905	0	51	Target	Neutral	True
489.905	0.3	Control	0.5962	0.004	Yes	2.732	-0.004	2.0	GoodResponse	0	0.191	n/a	0	51	ButtonPress	Neutral	True
490.082	0.34	Control	0.5962	n/a	Yes	2.732	n/a	n/a	GoodResponse	0	n/a	n/a	0	51	Blank	Neutral	True
490.416	1.45	Control	0.5962	n/a	Yes	2.732	n/a	5.0	GoodResponse	0	0.04	489.456	0	51	Feedback	Neutral	True
491.871	2.732	Control	0.5962	n/a	Yes	2.732	n/a	n/a	GoodResponse	0	0.0	n/a	0	51	ISIslide	Neutral	True
494.629	0.25	Control	0.6038	0.0	Yes	2.621	0.029	n/a	GoodResponse	0	n/a	n/a	0	52	Cue	Neutral	True
494.88	4.05	Control	0.6038	0.0	Yes	2.621	0.001	n/a	GoodResponse	0	n/a	n/a	0	52	Fixation	Neutral	True
498.925	0.37	Control	0.6038	0.004	Yes	2.621	-0.004	2.0	GoodResponse	0	0.185	498.11	0	52	Target	Neutral	True
499.11	0.3	Control	0.6038	0.004	Yes	2.621	-0.004	2.0	GoodResponse	0	0.185	n/a	0	52	ButtonPress	Neutral	True
499.309	0.33	Control	0.6038	n/a	Yes	2.621	n/a	n/a	GoodResponse	0	n/a	n/a	0	52	Blank	Neutral	True
499.627	1.45	Control	0.6038	n/a	Yes	2.621	n/a	5.0	GoodResponse	0	0.048	498.675	0	52	Feedback	Neutral	True
501.081	2.621	Control	0.6038	n/a	Yes	2.621	n/a	n/a	GoodResponse	0	0.0	n/a	0	52	ISIslide	Neutral	True
503.723	0.25	Win2	0.6111	0.0	Yes	2.927	0.023	n/a	GoodResponse	1	n/a	n/a	1	53	Cue	Win	True
503.973	4.05	Win2	0.6111	0.0	Yes	2.927	0.0	n/a	GoodResponse	1	n/a	n/a	1	53	Fixation	Win	True
508.019	0.38	Win2	0.6111	0.004	Yes	2.927	-0.004	2.0	GoodResponse	1	0.236	507.255	1	53	Target	Win	True
508.255	0.3	Win2	0.6111	0.004	Yes	2.927	-0.004	2.0	GoodResponse	1	0.236	n/a	1	53	ButtonPress	Win	True
508.403	0.32	Win2	0.6111	n/a	Yes	2.927	n/a	n/a	GoodResponse	1	n/a	n/a	1	53	Blank	Win	True
508.721	1.45	Win2	0.6111	n/a	Yes	2.927	n/a	5.0	GoodResponse	1	0.028	507.749	1	53	Feedback	Win	True
510.175	2.927	Win2	0.6111	n/a	Yes	2.927	n/a	n/a	GoodResponse	1	0.0	n/a	1	53	ISIslide	Win	True
513.117	0.25	Win2	0.6182	0.0	Yes	2.733	0.017	n/a	GoodResponse	1	n/a	n/a	2	54	Cue	Win	True
513.368	3.95	Win2	0.6182	0.0	Yes	2.733	0.001	n/a	GoodResponse	1	n/a	n/a	2	54	Fixation	Win	True
517.313	0.39	Win2	0.6182	0.004	Yes	2.733	-0.004	2.0	GoodResponse	1	0.142	516.455	2	54	Target	Win	True
517.455	0.3	Win2	0.6182	0.004	Yes	2.733	-0.004	2.0	GoodResponse	1	0.142	n/a	2	54	ButtonPress	Win	True
517.714	0.31	Win2	0.6182	n/a	Yes	2.733	n/a	n/a	GoodResponse	1	n/a	n/a	2	54	Blank	Win	True
518.015	1.45	Win2	0.6182	n/a	Yes	2.733	n/a	5.0	GoodResponse	1	0.001	517.016	2	54	Feedback	Win	True
519.47	2.733	Win2	0.6182	n/a	Yes	2.733	n/a	n/a	GoodResponse	1	0.0	n/a	2	54	ISIslide	Win	True
522.228	0.25	Control	0.6071	0.0	No	3.022	0.028	n/a	PrematurePress	0	n/a	n/a	2	55	Cue	Neutral	True
522.479	3.95	Control	0.6071	0.0	No	3.022	0.001	n/a	PrematurePress	0	n/a	n/a	2	55	Fixation	Neutral	True
526.424	0.4	Control	0.6071	0.004	No	3.022	-0.004	2.0	PrematurePress	0	0.076	525.5	2	55	Target	Neutral	True
526.5	0.3	Control	0.6071	0.004	No	3.022	-0.004	2.0	PrematurePress	0	0.076	n/a	2	55	ButtonPress	Neutral	True
526.825	0.3	Control	0.6071	n/a	No	3.022	n/a	n/a	PrematurePress	0	n/a	n/a	2	55	Blank	Neutral	True
527.126	1.45	Control	0.6071	n/a	No	3.022	n/a	5.0	PrematurePress	0	0.012	526.138	2	55	Feedback	Neutral	True
528.58	3.022	Control	0.6071	n/a	No	3.022	n/a	n/a	PrematurePress	0	0.0	n/a	2	55	ISIslide	Neutral	True
531.623	0.25	Control	0.614	0.0	Yes	2.827	0.023	n/a	GoodResponse	0	n/a	n/a	2	56	Cue	Neutral	True
531.873	3.95	Control	0.614	0.0	Yes	2.827	0.0	n/a	GoodResponse	0	n/a	n/a	2	56	Fixation	Neutral	True
535.819	0.41	Control	0.614	0.004	Yes	2.827	-0.004	2.0	GoodResponse	0	0.11	534.929	2	56	Target	Neutral	True
535.929	0.3	Control	0.614	0.004	Yes	2.827	-0.004	2.0	GoodResponse	0	0.11	n/a	2	56	ButtonPress	Neutral	True
536.236	0.29	Control	0.614	n/a	Yes	2.827	n/a	n/a	GoodResponse	0	n/a	n/a	2	56	Blank	Neutral	True
536.521	1.45	Control	0.614	n/a	Yes	2.827	n/a	5.0	GoodResponse	0	0.032	535.553	2	56	Feedback	Neutral	True
537.975	2.827	Control	0.614	n/a	Yes	2.827	n/a	n/a	GoodResponse	0	0.0	n/a	2	56	ISIslide	Neutral	True
540.817	0.25	Control	0.6207	0.0	Yes	3.483	0.017	n/a	GoodResponse	0	n/a	n/a	2	57	Cue	Neutral	True
541.068	4.0	Control	0.6207	0.0	Yes	3.483	0.001	n/a	GoodResponse	0	n/a	n/a	2	57	Fixation	Neutral	True
545.063	0.42	Control	0.6207	0.004	Yes	3.483	-0.004	2.0	GoodResponse	0	0.191	544.254	2	57	Target	Neutral	True
545.254	0.3	Control	0.6207	0.004	Yes	3.483	-0.004	2.0	GoodResponse	0	0.191	n/a	2	57	ButtonPress	Neutral	True
545.497	0.28	Control	0.6207	n/a	Yes	3.483	n/a	n/a	GoodResponse	0	n/a	n/a	2	57	Blank	Neutral	True
545.765	1.45	Control	0.6207	n/a	Yes	3.483	n/a	5.0	GoodResponse	0	0.008	544.773	2	57	Feedback	Neutral	True
547.219	3.483	Control	0.6207	n/a	Yes	3.483	n/a	n/a	GoodResponse	0	0.0	n/a	2	57	ISIslide	Neutral	True
550.73	0.25	Win2	0.6102000000000001	0.0	No	2.72	0.03	n/a	PrematurePress	0	n/a	n/a	2	58	Cue	MissedWin	True
550.98	4.05	Win2	0.6102000000000001	0.001	No	2.72	0.0	n/a	PrematurePress	0	n/a	n/a	2	58	Fixation	MissedWin	True
555.026	0.43	Win2	0.6102000000000001	0.004	No	2.72	-0.004	2.0	PrematurePress	0	0.073	554.099	2	58	Target	MissedWin	True
555.099	0.3	Win2	0.6102000000000001	0.004	No	2.72	-0.004	2.0	PrematurePress	0	0.073	n/a	2	58	ButtonPress	MissedWin	True
555.461	0.27	Win2	0.6102000000000001	n/a	No	2.72	n/a	n/a	PrematurePress	0	n/a	n/a	2	58	Blank	MissedWin	True
555.728	1.45	Win2	0.6102000000000001	n/a	No	2.72	n/a	5.0	PrematurePress	0	0.043	554.771	2	58	Feedback	MissedWin	True
557.182	2.72	Win2	0.6102000000000001	n/a	No	2.72	n/a	n/a	PrematurePress	0	0.0	n/a	2	58	ISIslide	MissedWin	True
559.924	0.25	Lose2	0.6167	0.0	Yes	2.676	0.024	n/a	GoodResponse	0	n/a	n/a	2	59	Cue	AvoidedLoss	True
560.175	4.0	Lose2	0.6167	0.0	Yes	2.676	0.001	n/a	GoodResponse	0	n/a	n/a	2	59	Fixation	AvoidedLoss	True
564.17	0.44	Lose2	0.6167	0.004	Yes	2.676	-0.004	2.0	GoodResponse	0	0.182	563.352	2	59	Target	AvoidedLoss	True
564.352	0.3	Lose2	0.6167	0.004	Yes	2.676	-0.004	2.0	GoodResponse	0	0.182	n/a	2	59	ButtonPress	AvoidedLoss	True
564.621	0.26	Lose2	0.6167	n/a	Yes	2.676	n/a	n/a	GoodResponse	0	n/a	n/a	2	59	Blank	AvoidedLoss	True
564.872	1.45	Lose2	0.6167	n/a	Yes	2.676	n/a	5.0	GoodResponse	0	0.022	563.894	2	59	Feedback	AvoidedLoss	True
566.326	2.676	Lose2	0.6167	n/a	Yes	2.676	n/a	n/a	GoodResponse	0	0.0	n/a	2	59	ISIslide	AvoidedLoss	True
569.018	0.25	Control	0.623	0.0	Yes	2.682	0.018	n/a	GoodResponse	0	n/a	n/a	2	60	Cue	Neutral	True
569.268	4.0	Control	0.623	0.0	Yes	2.682	0.0	n/a	GoodResponse	0	n/a	n/a	2	60	Fixation	Neutral	True
573.264	0.45	Control	0.623	0.004	Yes	2.682	-0.004	2.0	GoodResponse	0	0.134	572.398	2	60	Target	Neutral	True
573.398	0.3	Control	0.623	0.004	Yes	2.682	-0.004	2.0	GoodResponse	0	0.134	n/a	2	60	ButtonPress	Neutral	True
573.715	0.25	Control	0.623	n/a	Yes	2.682	n/a	n/a	GoodResponse	0	n/a	n/a	2	60	Blank	Neutral	True
573.966	1.45	Control	0.623	n/a	Yes	2.682	n/a	5.0	GoodResponse	0	0.001	572.967	2	60	Feedback	Neutral	True
575.42	2.682	Control	0.623	n/a	Yes	2.682	n/a	n/a	GoodResponse	0	0.0	n/a	2	60	ISIslide	Neutral	True
578.128	0.25	Lose2	0.629	0.0	Yes	2.972	0.028	n/a	GoodResponse	0	n/a	n/a	2	61	Cue	AvoidedLoss	True
578.379	4.0	Lose2	0.629	0.0	Yes	2.972	0.001	n/a	GoodResponse	0	n/a	n/a	2	61	Fixation	AvoidedLoss	True
582.374	0.46	Lose2	0.629	0.004	Yes	2.972	-0.004	2.0	GoodResponse	0	0.183	581.557	2	61	Target	AvoidedLoss	True
582.557	0.3	Lose2	0.629	0.004	Yes	2.972	-0.004	2.0	GoodResponse	0	0.183	n/a	2	61	ButtonPress	AvoidedLoss	True
582.842	0.24	Lose2	0.629	n/a	Yes	2.972	n/a	n/a	GoodResponse	0	n/a	n/a	2	61	Blank	AvoidedLoss	True
583.076	1.45	Lose2	0.629	n/a	Yes	2.972	n/a	5.0	GoodResponse	0	0.013	582.089	2	61	Feedback	AvoidedLoss	True
584.531	2.972	Lose2	0.629	n/a	Yes	2.972	n/a	n/a	GoodResponse	0	0.0	n/a	2	61	ISIslide	AvoidedLoss	True
587.523	0.25	Lose2	0.6349	0.0	Yes	2.877	0.023	n/a	GoodResponse	0	n/a	n/a	2	62	Cue	AvoidedLoss	True
587.774	3.9	Lose2	0.6349	0.0	Yes	2.877	0.001	n/a	GoodResponse	0	n/a	n/a	2	62	Fixation	AvoidedLoss	True
591.669	0.47	Lose2	0.6349	0.004	Yes	2.877	-0.004	2.0	GoodResponse	0	0.178	590.847	2	62	Target	AvoidedLoss	True
591.847	0.3	Lose2	0.6349	0.004	Yes	2.877	-0.004	2.0	GoodResponse	0	0.178	n/a	2	62	ButtonPress	AvoidedLoss	True
592.153	0.23	Lose2	0.6349	n/a	Yes	2.877	n/a	n/a	GoodResponse	0	n/a	n/a	2	62	Blank	AvoidedLoss	True
592.371	1.45	Lose2	0.6349	n/a	Yes	2.877	n/a	5.0	GoodResponse	0	0.034	591.405	2	62	Feedback	AvoidedLoss	True
593.825	2.877	Lose2	0.6349	n/a	Yes	2.877	n/a	n/a	GoodResponse	0	0.0	n/a	2	62	ISIslide	AvoidedLoss	True
596.717	0.25	Lose2	0.625	0.0	No	2.633	0.017	n/a	NoResponse	-1	n/a	n/a	1	63	Cue	Loss	True
596.968	4.05	Lose2	0.625	0.0	No	2.633	0.001	2.0	NoResponse	-1	3.936	599.904	1	63	Fixation	Loss	True
600.904	0.3	Lose2	0.625	0.0	No	2.633	0.001	2.0	NoResponse	-1	3.936	n/a	1	63	ButtonPress	Loss	True
601.013	0.48	Lose2	0.625	0.004	No	2.633	-0.004	n/a	NoResponse	-1	n/a	n/a	1	63	Target	Loss	True
601.498	0.22	Lose2	0.625	n/a	No	2.633	n/a	n/a	NoResponse	-1	n/a	n/a	1	63	Blank	Loss	True
601.715	1.45	Lose2	0.625	n/a	No	2.633	n/a	5.0	NoResponse	-1	0.007	600.722	1	63	Feedback	Loss	True
603.17	2.633	Lose2	0.625	n/a	No	2.633	n/a	n/a	NoResponse	-1	0.0	n/a	1	63	ISIslide	Loss	True
605.828	0.25	Win2	0.6308	0.0	Yes	3.122	0.028	n/a	GoodResponse	1	n/a	n/a	2	64	Cue	Win	True
606.078	4.15	Win2	0.6308	0.0	Yes	3.122	0.0	n/a	GoodResponse	1	n/a	n/a	2	64	Fixation	Win	True
610.224	0.49	Win2	0.6308	0.004	Yes	3.122	-0.004	2.0	GoodResponse	1	0.179	609.403	2	64	Target	Win	True
610.403	0.3	Win2	0.6308	0.004	Yes	3.122	-0.004	2.0	GoodResponse	1	0.179	n/a	2	64	ButtonPress	Win	True
610.726	0.21	Win2	0.6308	n/a	Yes	3.122	n/a	n/a	GoodResponse	1	n/a	n/a	2	64	Blank	Win	True
610.926	1.45	Win2	0.6308	n/a	Yes	3.122	n/a	5.0	GoodResponse	1	0.016	609.942	2	64	Feedback	Win	True
612.38	3.122	Win2	0.6308	n/a	Yes	3.122	n/a	n/a	GoodResponse	1	0.0	n/a	2	64	ISIslide	Win	True
615.523	0.25	Control	0.6364	0.0	Yes	2.777	0.023	n/a	GoodResponse	0	n/a	n/a	2	65	Cue	Neutral	True
615.774	4.0	Control	0.6364	0.0	Yes	2.777	0.001	n/a	GoodResponse	0	n/a	n/a	2	65	Fixation	Neutral	True
619.769	0.5	Control	0.6364	0.004	Yes	2.777	-0.004	2.0	GoodResponse	0	0.204	618.973	2	65	Target	Neutral	True
619.973	0.3	Control	0.6364	0.004	Yes	2.777	-0.004	2.0	GoodResponse	0	0.204	n/a	2	65	ButtonPress	Neutral	True
620.271	0.2	Control	0.6364	n/a	Yes	2.777	n/a	n/a	GoodResponse	0	n/a	n/a	2	65	Blank	Neutral	True
620.471	1.45	Control	0.6364	n/a	Yes	2.777	n/a	5.0	GoodResponse	0	0.032	619.503	2	65	Feedback	Neutral	True
621.926	2.777	Control	0.6364	n/a	Yes	2.777	n/a	n/a	GoodResponse	0	0.0	n/a	2	65	ISIslide	Neutral	True
624.717	0.25	Win2	0.6418	0.0	Yes	2.783	0.017	n/a	GoodResponse	1	n/a	n/a	3	66	Cue	Win	True
624.968	3.9	Win2	0.6418	0.0	Yes	2.783	0.001	n/a	GoodResponse	1	n/a	n/a	3	66	Fixation	Win	True
628.863	0.5	Win2	0.6418	0.004	Yes	2.783	-0.004	2.0	GoodResponse	1	0.17	628.033	3	66	Target	Win	True
629.033	0.3	Win2	0.6418	0.004	Yes	2.783	-0.004	2.0	GoodResponse	1	0.17	n/a	3	66	ButtonPress	Win	True
629.365	0.2	Win2	0.6418	n/a	Yes	2.783	n/a	n/a	GoodResponse	1	n/a	n/a	3	66	Blank	Win	True
629.565	1.45	Win2	0.6418	n/a	Yes	2.783	n/a	5.0	GoodResponse	1	0.01	628.575	3	66	Feedback	Win	True
631.019	2.783	Win2	0.6418	n/a	Yes	2.783	n/a	n/a	GoodResponse	1	0.0	n/a	3	66	ISIslide	Win	True
633.828	0.25	Control	0.6324000000000001	0.0	No	2.722	0.028	n/a	NoResponse	0	n/a	n/a	3	67	Cue	Neutral	True
634.079	3.95	Control	0.6324000000000001	0.0	No	2.722	0.001	2.0	NoResponse	0	3.768	636.847	3	67	Fixation	Neutral	True
637.847	0.3	Control	0.6324000000000001	0.0	No	2.722	0.001	2.0	NoResponse	0	3.768	n/a	3	67	ButtonPress	Neutral	True
638.024	0.5	Control	0.6324000000000001	0.004	No	2.722	-0.004	n/a	NoResponse	0	n/a	n/a	3	67	Target	Neutral	True
638.525	0.2	Control	0.6324000000000001	n/a	No	2.722	n/a	n/a	NoResponse	0	n/a	n/a	3	67	Blank	Neutral	True
638.726	1.45	Control	0.6324000000000001	n/a	No	2.722	n/a	5.0	NoResponse	0	0.02	637.746	3	67	Feedback	Neutral	True
640.18	2.722	Control	0.6324000000000001	n/a	No	2.722	n/a	n/a	NoResponse	0	0.0	n/a	3	67	ISIslide	Neutral	True
642.922	0.25	Win2	0.6232	0.0	No	3.078	0.022	n/a	NoResponse	0	n/a	n/a	3	68	Cue	MissedWin	True
643.172	4.0	Win2	0.6232	0.001	No	3.078	0.0	2.0	NoResponse	0	3.626	645.798	3	68	Fixation	MissedWin	True
646.798	0.3	Win2	0.6232	0.001	No	3.078	0.0	2.0	NoResponse	0	3.626	n/a	3	68	ButtonPress	MissedWin	True
647.168	0.5	Win2	0.6232	0.004	No	3.078	-0.004	n/a	NoResponse	0	n/a	n/a	3	68	Target	MissedWin	True
647.669	0.2	Win2	0.6232	n/a	No	3.078	n/a	n/a	NoResponse	0	n/a	n/a	3	68	Blank	MissedWin	True
647.87	1.45	Win2	0.6232	n/a	No	3.078	n/a	5.0	NoResponse	0	0.047	646.917	3	68	Feedback	MissedWin	True
649.324	3.078	Win2	0.6232	n/a	No	3.078	n/a	n/a	NoResponse	0	0.0	n/a	3	68	ISIslide	MissedWin	True
652.417	0.25	Win2	0.6286	0.0	Yes	3.233	0.017	n/a	GoodResponse	1	n/a	n/a	4	69	Cue	Win	True
652.667	3.95	Win2	0.6286	0.001	Yes	3.233	0.0	n/a	GoodResponse	1	n/a	n/a	4	69	Fixation	Win	True
656.613	0.5	Win2	0.6286	0.004	Yes	3.233	-0.004	2.0	GoodResponse	1	0.107	655.72	4	69	Target	Win	True
656.72	0.3	Win2	0.6286	0.004	Yes	3.233	-0.004	2.0	GoodResponse	1	0.107	n/a	4	69	ButtonPress	Win	True
657.114	0.2	Win2	0.6286	n/a	Yes	3.233	n/a	n/a	GoodResponse	1	n/a	n/a	4	69	Blank	Win	True
657.315	1.45	Win2	0.6286	n/a	Yes	3.233	n/a	5.0	GoodResponse	1	0.017	656.332	4	69	Feedback	Win	True
658.769	3.233	Win2	0.6286	n/a	Yes	3.233	n/a	n/a	GoodResponse	1	0.0	n/a	4	69	ISIslide	Win	True
662.029	0.25	Lose2	0.6338	0.0	Yes	3.021	0.029	n/a	GoodResponse	0	n/a	n/a	4	70	Cue	AvoidedLoss	True
662.28	4.05	Lose2	0.6338	0.0	Yes	3.021	0.001	n/a	GoodResponse	0	n/a	n/a	4	70	Fixation	AvoidedLoss	True
666.325	0.5	Lose2	0.6338	0.004	Yes	3.021	-0.004	2.0	GoodResponse	0	0.212	665.537	4	70	Target	AvoidedLoss	True
666.537	0.3	Lose2	0.6338	0.004	Yes	3.021	-0.004	2.0	GoodResponse	0	0.212	n/a	4	70	ButtonPress	AvoidedLoss	True
666.826	0.2	Lose2	0.6338	n/a	Yes	3.021	n/a	n/a	GoodResponse	0	n/a	n/a	4	70	Blank	AvoidedLoss	True
667.027	1.45	Lose2	0.6338	n/a	Yes	3.021	n/a	5.0	GoodResponse	0	0.011	666.038	4	70	Feedback	AvoidedLoss	True
668.481	3.021	Lose2	0.6338	n/a	Yes	3.021	n/a	n/a	GoodResponse	0	0.0	n/a	4	70	ISIslide	AvoidedLoss	True
671.524	0.25	Win2	0.6389	0.0	Yes	2.726	0.024	n/a	GoodResponse	1	n/a	n/a	5	71	Cue	Win	True
671.775	4.05	Win2	0.6389	0.0	Yes	2.726	0.001	n/a	GoodResponse	1	n/a	n/a	5	71	Fixation	Win	True
675.82	0.5	Win2	0.6389	0.004	Yes	2.726	-0.004	2.0	GoodResponse	1	0.187	675.007	5	71	Target	Win	True
676.007	0.3	Win2	0.6389	0.004	Yes	2.726	-0.004	2.0	GoodResponse	1	0.187	n/a	5	71	ButtonPress	Win	True
676.321	0.2	Win2	0.6389	n/a	Yes	2.726	n/a	n/a	GoodResponse	1	n/a	n/a	5	71	Blank	Win	True
676.522	1.45	Win2	0.6389	n/a	Yes	2.726	n/a	5.0	GoodResponse	1	0.028	675.55	5	71	Feedback	Win	True
677.976	2.726	Win2	0.6389	n/a	Yes	2.726	n/a	n/a	GoodResponse	1	0.0	n/a	5	71	ISIslide	Win	True
680.718	0.25	Win2	0.6301	0.0	No	2.782	0.018	n/a	PrematurePress	0	n/a	n/a	5	72	Cue	MissedWin	True
680.969	4.1	Win2	0.6301	0.0	No	2.782	0.001	n/a	PrematurePress	0	n/a	n/a	5	72	Fixation	MissedWin	True
685.064	0.5	Win2	0.6301	0.004	No	2.782	-0.004	2.0	PrematurePress	0	0.073	684.137	5	72	Target	MissedWin	True
685.137	0.3	Win2	0.6301	0.004	No	2.782	-0.004	2.0	PrematurePress	0	0.073	n/a	5	72	ButtonPress	MissedWin	True
685.566	0.2	Win2	0.6301	n/a	No	2.782	n/a	n/a	PrematurePress	0	n/a	n/a	5	72	Blank	MissedWin	True
685.766	1.45	Win2	0.6301	n/a	No	2.782	n/a	5.0	PrematurePress	0	0.007	684.773	5	72	Feedback	MissedWin	True
687.221	2.782	Win2	0.6301	n/a	No	2.782	n/a	n/a	PrematurePress	0	0.0	n/a	5	72	ISIslide	MissedWin	True
690.029	0.25	Win2	0.6351	0.0	Yes	2.671	0.029	n/a	GoodResponse	1	n/a	n/a	6	73	Cue	Win	True
690.28	4.0	Win2	0.6351	0.0	Yes	2.671	0.001	n/a	GoodResponse	1	n/a	n/a	6	73	Fixation	Win	True
694.275	0.5	Win2	0.6351	0.004	Yes	2.671	-0.004	2.0	GoodResponse	1	0.236	693.511	6	73	Target	Win	True
694.511	0.3	Win2	0.6351	0.004	Yes	2.671	-0.004	2.0	GoodResponse	1	0.236	n/a	6	73	ButtonPress	Win	True
694.777	0.2	Win2	0.6351	n/a	Yes	2.671	n/a	n/a	GoodResponse	1	n/a	n/a	6	73	Blank	Win	True
694.977	1.45	Win2	0.6351	n/a	Yes	2.671	n/a	5.0	GoodResponse	1	0.013	693.99	6	73	Feedback	Win	True
696.432	2.671	Win2	0.6351	n/a	Yes	2.671	n/a	n/a	GoodResponse	1	0.0	n/a	6	73	ISIslide	Win	True
699.123	0.25	Lose2	0.64	0.0	Yes	2.627	0.023	n/a	GoodResponse	0	n/a	n/a	6	74	Cue	AvoidedLoss	True
699.374	4.05	Lose2	0.64	0.0	Yes	2.627	0.001	n/a	GoodResponse	0	n/a	n/a	6	74	Fixation	AvoidedLoss	True
703.419	0.5	Lose2	0.64	0.004	Yes	2.627	-0.004	2.0	GoodResponse	0	0.206	702.625	6	74	Target	AvoidedLoss	True
703.625	0.3	Lose2	0.64	0.004	Yes	2.627	-0.004	2.0	GoodResponse	0	0.206	n/a	6	74	ButtonPress	AvoidedLoss	True
703.921	0.2	Lose2	0.64	n/a	Yes	2.627	n/a	n/a	GoodResponse	0	n/a	n/a	6	74	Blank	AvoidedLoss	True
704.121	1.45	Lose2	0.64	n/a	Yes	2.627	n/a	5.0	GoodResponse	0	0.038	703.159	6	74	Feedback	AvoidedLoss	True
705.575	2.627	Lose2	0.64	n/a	Yes	2.627	n/a	n/a	GoodResponse	0	0.0	n/a	6	74	ISIslide	AvoidedLoss	True
708.217	0.25	Lose2	0.6446999999999999	0.0	Yes	2.933	0.017	n/a	GoodResponse	0	n/a	n/a	6	75	Cue	AvoidedLoss	True
708.467	3.95	Lose2	0.6446999999999999	0.001	Yes	2.933	0.0	n/a	GoodResponse	0	n/a	n/a	6	75	Fixation	AvoidedLoss	True
712.413	0.5	Lose2	0.6446999999999999	0.004	Yes	2.933	-0.004	2.0	GoodResponse	0	0.217	711.63	6	75	Target	AvoidedLoss	True
712.63	0.3	Lose2	0.6446999999999999	0.004	Yes	2.933	-0.004	2.0	GoodResponse	0	0.217	n/a	6	75	ButtonPress	AvoidedLoss	True
712.914	0.2	Lose2	0.6446999999999999	n/a	Yes	2.933	n/a	n/a	GoodResponse	0	n/a	n/a	6	75	Blank	AvoidedLoss	True
713.115	1.45	Lose2	0.6446999999999999	n/a	Yes	2.933	n/a	5.0	GoodResponse	0	0.02	712.135	6	75	Feedback	AvoidedLoss	True
714.569	2.933	Lose2	0.6446999999999999	n/a	Yes	2.933	n/a	n/a	GoodResponse	0	0.0	n/a	6	75	ISIslide	AvoidedLoss	True
717.528	0.25	Control	0.6494	0.0	Yes	3.222	0.028	n/a	GoodResponse	0	n/a	n/a	6	76	Cue	Neutral	True
717.779	4.05	Control	0.6494	0.0	Yes	3.222	0.001	n/a	GoodResponse	0	n/a	n/a	6	76	Fixation	Neutral	True
721.824	0.5	Control	0.6494	0.004	Yes	3.222	-0.004	2.0	GoodResponse	0	0.169	720.993	6	76	Target	Neutral	True
721.993	0.3	Control	0.6494	0.004	Yes	3.222	-0.004	2.0	GoodResponse	0	0.169	n/a	6	76	ButtonPress	Neutral	True
722.326	0.2	Control	0.6494	n/a	Yes	3.222	n/a	n/a	GoodResponse	0	n/a	n/a	6	76	Blank	Neutral	True
722.526	1.45	Control	0.6494	n/a	Yes	3.222	n/a	5.0	GoodResponse	0	0.024	721.55	6	76	Feedback	Neutral	True
723.98	3.222	Control	0.6494	n/a	Yes	3.222	n/a	n/a	GoodResponse	0	0.0	n/a	6	76	ISIslide	Neutral	True
727.223	0.25	Lose2	0.6537999999999999	0.001	Yes	2.577	0.023	n/a	GoodResponse	0	n/a	n/a	6	77	Cue	AvoidedLoss	True
727.474	3.95	Lose2	0.6537999999999999	0.0	Yes	2.577	0.001	n/a	GoodResponse	0	n/a	n/a	6	77	Fixation	AvoidedLoss	True
731.419	0.5	Lose2	0.6537999999999999	0.004	Yes	2.577	-0.004	2.0	GoodResponse	0	0.185	730.604	6	77	Target	AvoidedLoss	True
731.604	0.3	Lose2	0.6537999999999999	0.004	Yes	2.577	-0.004	2.0	GoodResponse	0	0.185	n/a	6	77	ButtonPress	AvoidedLoss	True
731.921	0.2	Lose2	0.6537999999999999	n/a	Yes	2.577	n/a	n/a	GoodResponse	0	n/a	n/a	6	77	Blank	AvoidedLoss	True
732.121	1.45	Lose2	0.6537999999999999	n/a	Yes	2.577	n/a	5.0	GoodResponse	0	0.039	731.16	6	77	Feedback	AvoidedLoss	True
733.576	2.577	Lose2	0.6537999999999999	n/a	Yes	2.577	n/a	n/a	GoodResponse	0	0.0	n/a	6	77	ISIslide	AvoidedLoss	True
