onset	duration	cue_type	current_mean_accuracy	duration_error	is_hit	isi_adjusted	onset_delay	response	response_type	reward	rt	rt_time	total_reward	trial_number	trial_phase	trial_type	one_press
11.112	0.25	Control	1.0	0.0	Yes	2.938	0.012	n/a	GoodResponse	0	n/a	n/a	0	0	Cue	Neutral	False
11.362	3.85	Control	1.0	0.0	Yes	2.938	0.0	1.0	GoodResponse	0	0.498	10.86	0	0	Fixation	Neutral	False
11.86	0.3	Control	1.0	0.0	Yes	2.938	0.0	1.0	GoodResponse	0	0.498	n/a	0	0	ButtonPress	Neutral	False
15.224	0.4	Control	1.0	0.0	Yes	2.938	0.012	1.0	GoodResponse	0	0.23	14.454	0	0	Target	Neutral	False
15.454	0.3	Control	1.0	0.0	Yes	2.938	0.012	1.0	GoodResponse	0	0.23	n/a	0	0	ButtonPress	Neutral	False
15.608	0.3	Control	1.0	n/a	Yes	2.938	n/a	n/a	GoodResponse	0	n/a	n/a	0	0	Blank	Neutral	False
15.909	1.45	Control	1.0	n/a	Yes	2.938	n/a	5.0	GoodResponse	0	0.017	14.926	0	0	Feedback	Neutral	False
17.364	2.938	Control	1.0	n/a	Yes	2.938	n/a	n/a	GoodResponse	0	0.0	n/a	0	0	ISIslide	Neutral	False
20.322	0.25	Lose2	1.0	0.001	Yes	2.778	0.022	n/a	GoodResponse	0	n/a	n/a	0	1	Cue	AvoidedLoss	True
20.573	4.0	Lose2	1.0	0.0	Yes	2.778	0.001	n/a	GoodResponse	0	n/a	n/a	0	1	Fixation	AvoidedLoss	True
24.569	0.39	Lose2	1.0	0.003	Yes	2.778	-0.003	1.0	GoodResponse	0	0.283	23.852	0	1	Target	AvoidedLoss	True
24.852	0.3	Lose2	1.0	0.003	Yes	2.778	-0.003	1.0	GoodResponse	0	0.283	n/a	0	1	ButtonPress	AvoidedLoss	True
24.97	0.31	Lose2	1.0	n/a	Yes	2.778	n/a	n/a	GoodResponse	0	n/a	n/a	0	1	Blank	AvoidedLoss	True
25.271	1.45	Lose2	1.0	n/a	Yes	2.778	n/a	5.0	GoodResponse	0	0.021	24.292	0	1	Feedback	AvoidedLoss	True
26.725	2.778	Lose2	1.0	n/a	Yes	2.778	n/a	n/a	GoodResponse	0	0.0	n/a	0	1	ISIslide	AvoidedLoss	True
29.517	0.25	Control	1.0	0.0	Yes	2.583	0.017	n/a	GoodResponse	0	n/a	n/a	0	2	Cue	Neutral	True
29.767	4.1	Control	1.0	0.001	Yes	2.583	0.0	n/a	GoodResponse	0	n/a	n/a	0	2	Fixation	Neutral	True
33.863	0.38	Control	1.0	0.004	Yes	2.583	-0.004	1.0	GoodResponse	0	0.266	33.129	0	2	Target	Neutral	True
34.129	0.3	Control	1.0	0.004	Yes	2.583	-0.004	1.0	GoodResponse	0	0.266	n/a	0	2	ButtonPress	Neutral	True
34.248	0.32	Control	1.0	n/a	Yes	2.583	n/a	n/a	GoodResponse	0	n/a	n/a	0	2	Blank	Neutral	True
34.565	1.45	Control	1.0	n/a	Yes	2.583	n/a	5.0	GoodResponse	0	0.044	33.609	0	2	Feedback	Neutral	True
36.02	2.583	Control	1.0	n/a	Yes	2.583	n/a	n/a	GoodResponse	0	0.0	n/a	0	2	ISIslide	Neutral	True
38.627	0.25	Win2	1.0	0.0	Yes	2.823	0.027	n/a	GoodResponse	1	n/a	n/a	1	3	Cue	Win	True
38.878	3.95	Win2	1.0	0.0	Yes	2.823	0.001	n/a	GoodResponse	1	n/a	n/a	1	3	Fixation	Win	True
42.823	0.37	Win2	1.0	0.004	Yes	2.823	-0.004	1.0	GoodResponse	1	0.261	42.084	1	3	Target	Win	True
43.084	0.3	Win2	1.0	0.004	Yes	2.823	-0.004	1.0	GoodResponse	1	0.261	n/a	1	3	ButtonPress	Win	True
43.208	0.33	Win2	1.0	n/a	Yes	2.823	n/a	n/a	GoodResponse	1	n/a	n/a	1	3	Blank	Win	True
43.525	1.45	Win2	1.0	n/a	Yes	2.823	n/a	5.0	GoodResponse	1	0.011	42.536	1	3	Feedback	Win	True
44.98	2.823	Win2	1.0	n/a	Yes	2.823	n/a	n/a	GoodResponse	1	0.0	n/a	1	3	ISIslide	Win	True
47.822	0.25	Win2	1.0	0.0	Yes	3.278	0.022	n/a	GoodResponse	1	n/a	n/a	2	4	Cue	Win	True
48.072	4.0	Win2	1.0	0.0	Yes	3.278	0.0	n/a	GoodResponse	1	n/a	n/a	2	4	Fixation	Win	True
52.068	0.36	Win2	1.0	0.004	Yes	3.278	-0.004	1.0	GoodResponse	1	0.329	51.397	2	4	Target	Win	True
52.397	0.3	Win2	1.0	0.004	Yes	3.278	-0.004	1.0	GoodResponse	1	0.329	n/a	2	4	ButtonPress	Win	True
52.435	0.34	Win2	1.0	n/a	Yes	3.278	n/a	n/a	GoodResponse	1	n/a	n/a	2	4	Blank	Win	True
52.77	1.45	Win2	1.0	n/a	Yes	3.278	n/a	5.0	GoodResponse	1	0.035	51.805	2	4	Feedback	Win	True
54.224	3.278	Win2	1.0	n/a	Yes	3.278	n/a	n/a	GoodResponse	1	0.0	n/a	2	4	ISIslide	Win	True
57.517	0.25	Win2	1.0	0.0	Yes	2.783	0.017	n/a	GoodResponse	1	n/a	n/a	3	5	Cue	Win	True
57.768	4.0	Win2	1.0	0.0	Yes	2.783	0.001	n/a	GoodResponse	1	n/a	n/a	3	5	Fixation	Win	True
61.763	0.35	Win2	1.0	0.004	Yes	2.783	-0.004	1.0	GoodResponse	1	0.263	61.026	3	5	Target	Win	True
62.026	0.3	Win2	1.0	0.004	Yes	2.783	-0.004	1.0	GoodResponse	1	0.263	n/a	3	5	ButtonPress	Win	True
62.114	0.35	Win2	1.0	n/a	Yes	2.783	n/a	n/a	GoodResponse	1	n/a	n/a	3	5	Blank	Win	True
62.465	1.45	Win2	1.0	n/a	Yes	2.783	n/a	5.0	GoodResponse	1	0.046	61.511	3	5	Feedback	Win	True
63.92	2.783	Win2	1.0	n/a	Yes	2.783	n/a	n/a	GoodResponse	1	0.0	n/a	3	5	ISIslide	Win	True
66.728	0.25	Lose2	1.0	0.0	Yes	2.722	0.028	n/a	GoodResponse	0	n/a	n/a	3	6	Cue	AvoidedLoss	True
66.979	3.95	Lose2	1.0	0.0	Yes	2.722	0.001	n/a	GoodResponse	0	n/a	n/a	3	6	Fixation	AvoidedLoss	True
70.924	0.34	Lose2	1.0	0.004	Yes	2.722	-0.004	1.0	GoodResponse	0	0.245	70.169	3	6	Target	AvoidedLoss	True
71.169	0.3	Lose2	1.0	0.004	Yes	2.722	-0.004	1.0	GoodResponse	0	0.245	n/a	3	6	ButtonPress	AvoidedLoss	True
71.275	0.36	Lose2	1.0	n/a	Yes	2.722	n/a	n/a	GoodResponse	0	n/a	n/a	3	6	Blank	AvoidedLoss	True
71.626	1.45	Lose2	1.0	n/a	Yes	2.722	n/a	5.0	GoodResponse	0	0.008	70.634	3	6	Feedback	AvoidedLoss	True
73.081	2.722	Lose2	1.0	n/a	Yes	2.722	n/a	n/a	GoodResponse	0	0.0	n/a	3	6	ISIslide	AvoidedLoss	True
75.822	0.25	Lose2	1.0	0.0	Yes	4.028	0.022	n/a	GoodResponse	0	n/a	n/a	3	7	Cue	AvoidedLoss	True
76.073	4.05	Lose2	1.0	0.0	Yes	4.028	0.001	n/a	GoodResponse	0	n/a	n/a	3	7	Fixation	AvoidedLoss	True
80.118	0.33	Lose2	1.0	0.004	Yes	4.028	-0.004	1.0	GoodResponse	0	0.22	79.338	3	7	Target	AvoidedLoss	True
80.338	0.3	Lose2	1.0	0.004	Yes	4.028	-0.004	1.0	GoodResponse	0	0.22	n/a	3	7	ButtonPress	AvoidedLoss	True
80.453	0.37	Lose2	1.0	n/a	Yes	4.028	n/a	n/a	GoodResponse	0	n/a	n/a	3	7	Blank	AvoidedLoss	True
80.82	1.45	Lose2	1.0	n/a	Yes	4.028	n/a	5.0	GoodResponse	0	0.033	79.853	3	7	Feedback	AvoidedLoss	True
82.275	4.028	Lose2	1.0	n/a	Yes	4.028	n/a	n/a	GoodResponse	0	0.0	n/a	3	7	ISIslide	AvoidedLoss	True
86.32	0.25	Lose2	1.0	0.0	Yes	3.03	0.02	n/a	GoodResponse	0	n/a	n/a	3	8	Cue	AvoidedLoss	True
86.571	3.95	Lose2	1.0	0.0	Yes	3.03	0.001	n/a	GoodResponse	0	n/a	n/a	3	8	Fixation	AvoidedLoss	True
90.516	0.32	Lose2	1.0	0.004	Yes	3.03	-0.004	1.0	GoodResponse	0	0.23	89.746	3	8	Target	AvoidedLoss	True
90.746	0.3	Lose2	1.0	0.004	Yes	3.03	-0.004	1.0	GoodResponse	0	0.23	n/a	3	8	ButtonPress	AvoidedLoss	True
90.85	0.38	Lose2	1.0	n/a	Yes	3.03	n/a	n/a	GoodResponse	0	n/a	n/a	3	8	Blank	AvoidedLoss	True
91.218	1.45	Lose2	1.0	n/a	Yes	3.03	n/a	5.0	GoodResponse	0	0.025	90.243	3	8	Feedback	AvoidedLoss	True
92.673	3.03	Lose2	1.0	n/a	Yes	3.03	n/a	n/a	GoodResponse	0	0.0	n/a	3	8	ISIslide	AvoidedLoss	True
95.715	0.25	Lose2	0.9	0.0	No	3.135	0.015	n/a	NoResponse	-1	n/a	n/a	2	9	Cue	Loss	True
95.966	3.95	Lose2	0.9	0.0	No	3.135	0.001	n/a	NoResponse	-1	n/a	n/a	2	9	Fixation	Loss	True
99.911	0.31	Lose2	0.9	0.004	No	3.135	-0.004	1.0	NoResponse	-1	0.416	99.327	2	9	Target	Loss	True
100.229	0.39	Lose2	0.9	n/a	No	3.135	n/a	n/a	NoResponse	-1	n/a	n/a	2	9	Blank	Loss	True
100.327	0.3	Lose2	0.9	0.004	No	3.135	-0.004	1.0	NoResponse	-1	0.416	n/a	2	9	ButtonPress	Loss	True
100.613	1.45	Lose2	0.9	n/a	No	3.135	n/a	5.0	NoResponse	-1	0.045	99.658	2	9	Feedback	Loss	True
102.067	3.135	Lose2	0.9	n/a	No	3.135	n/a	n/a	NoResponse	-1	0.0	n/a	2	9	ISIslide	Loss	True
105.227	0.25	Control	0.9091	0.0	Yes	3.273	0.027	n/a	GoodResponse	0	n/a	n/a	2	10	Cue	Neutral	True
105.478	4.0	Control	0.9091	0.0	Yes	3.273	0.001	n/a	GoodResponse	0	n/a	n/a	2	10	Fixation	Neutral	True
109.473	0.3	Control	0.9091	0.004	Yes	3.273	-0.004	1.0	GoodResponse	0	0.206	108.679	2	10	Target	Neutral	True
109.679	0.3	Control	0.9091	0.004	Yes	3.273	-0.004	1.0	GoodResponse	0	0.206	n/a	2	10	ButtonPress	Neutral	True
109.774	0.4	Control	0.9091	n/a	Yes	3.273	n/a	n/a	GoodResponse	0	n/a	n/a	2	10	Blank	Neutral	True
110.175	1.45	Control	0.9091	n/a	Yes	3.273	n/a	5.0	GoodResponse	0	0.044	109.219	2	10	Feedback	Neutral	True
111.629	3.273	Control	0.9091	n/a	Yes	3.273	n/a	n/a	GoodResponse	0	0.0	n/a	2	10	ISIslide	Neutral	True
114.923	0.25	Lose2	0.9167000000000001	0.0	Yes	2.727	0.023	n/a	GoodResponse	0	n/a	n/a	2	11	Cue	AvoidedLoss	True
115.173	4.05	Lose2	0.9167000000000001	0.0	Yes	2.727	0.0	n/a	GoodResponse	0	n/a	n/a	2	11	Fixation	AvoidedLoss	True
119.219	0.29	Lose2	0.9167000000000001	0.004	Yes	2.727	-0.004	1.0	GoodResponse	0	0.213	118.432	2	11	Target	AvoidedLoss	True
119.432	0.3	Lose2	0.9167000000000001	0.004	Yes	2.727	-0.004	1.0	GoodResponse	0	0.213	n/a	2	11	ButtonPress	AvoidedLoss	True
119.52	0.41	Lose2	0.9167000000000001	n/a	Yes	2.727	n/a	n/a	GoodResponse	0	n/a	n/a	2	11	Blank	AvoidedLoss	True
119.921	1.45	Lose2	0.9167000000000001	n/a	Yes	2.727	n/a	5.0	GoodResponse	0	0.007	118.928	2	11	Feedback	AvoidedLoss	True
121.375	2.727	Lose2	0.9167000000000001	n/a	Yes	2.727	n/a	n/a	GoodResponse	0	0.0	n/a	2	11	ISIslide	AvoidedLoss	True
124.117	0.25	Control	0.9231	0.0	Yes	2.983	0.017	n/a	GoodResponse	0	n/a	n/a	2	12	Cue	Neutral	True
124.368	3.9	Control	0.9231	0.0	Yes	2.983	0.001	n/a	GoodResponse	0	n/a	n/a	2	12	Fixation	Neutral	True
128.263	0.28	Control	0.9231	0.004	Yes	2.983	-0.004	1.0	GoodResponse	0	0.246	127.509	2	12	Target	Neutral	True
128.509	0.3	Control	0.9231	0.004	Yes	2.983	-0.004	1.0	GoodResponse	0	0.246	n/a	2	12	ButtonPress	Neutral	True
128.547	0.42	Control	0.9231	n/a	Yes	2.983	n/a	n/a	GoodResponse	0	n/a	n/a	2	12	Blank	Neutral	True
128.965	1.45	Control	0.9231	n/a	Yes	2.983	n/a	5.0	GoodResponse	0	0.034	127.999	2	12	Feedback	Neutral	True
130.419	2.983	Control	0.9231	n/a	Yes	2.983	n/a	n/a	GoodResponse	0	0.0	n/a	2	12	ISIslide	Neutral	True
133.428	0.25	Control	0.8571	0.0	No	2.772	0.028	n/a	LatePress	0	n/a	n/a	2	13	Cue	Neutral	True
133.679	4.0	Control	0.8571	0.0	No	2.772	0.001	n/a	LatePress	0	n/a	n/a	2	13	Fixation	Neutral	True
137.674	0.27	Control	0.8571	0.004	No	2.772	-0.004	1.0	LatePress	0	0.283	136.957	2	13	Target	Neutral	True
137.957	0.3	Control	0.8571	0.004	No	2.772	-0.004	1.0	LatePress	0	0.283	n/a	2	13	ButtonPress	Neutral	True
137.958	0.43	Control	0.8571	n/a	No	2.772	n/a	n/a	LatePress	0	n/a	n/a	2	13	Blank	Neutral	True
138.376	1.45	Control	0.8571	n/a	No	2.772	n/a	5.0	LatePress	0	0.037	137.413	2	13	Feedback	Neutral	True
139.831	2.772	Control	0.8571	n/a	No	2.772	n/a	n/a	LatePress	0	0.0	n/a	2	13	ISIslide	Neutral	True
142.622	0.25	Win2	0.8667	0.0	Yes	2.678	0.022	n/a	GoodResponse	1	n/a	n/a	3	14	Cue	Win	True
142.873	4.1	Win2	0.8667	0.0	Yes	2.678	0.001	n/a	GoodResponse	1	n/a	n/a	3	14	Fixation	Win	True
146.969	0.26	Win2	0.8667	0.003	Yes	2.678	-0.003	1.0	GoodResponse	1	0.24	146.209	3	14	Target	Win	True
147.209	0.3	Win2	0.8667	0.003	Yes	2.678	-0.003	1.0	GoodResponse	1	0.24	n/a	3	14	ButtonPress	Win	True
147.236	0.44	Win2	0.8667	n/a	Yes	2.678	n/a	n/a	GoodResponse	1	n/a	n/a	3	14	Blank	Win	True
147.671	1.45	Win2	0.8667	n/a	Yes	2.678	n/a	5.0	GoodResponse	1	0.011	146.682	3	14	Feedback	Win	True
149.125	2.678	Win2	0.8667	n/a	Yes	2.678	n/a	n/a	GoodResponse	1	0.0	n/a	3	14	ISIslide	Win	True
151.816	0.25	Control	0.875	0.001	Yes	2.984	0.016	n/a	GoodResponse	0	n/a	n/a	3	15	Cue	Neutral	True
152.067	4.0	Control	0.875	0.0	Yes	2.984	0.001	n/a	GoodResponse	0	n/a	n/a	3	15	Fixation	Neutral	True
156.063	0.25	Control	0.875	0.003	Yes	2.984	-0.003	1.0	GoodResponse	0	0.217	155.28	3	15	Target	Neutral	True
156.28	0.3	Control	0.875	0.003	Yes	2.984	-0.003	1.0	GoodResponse	0	0.217	n/a	3	15	ButtonPress	Neutral	True
156.313	0.45	Control	0.875	n/a	Yes	2.984	n/a	n/a	GoodResponse	0	n/a	n/a	3	15	Blank	Neutral	True
156.765	1.45	Control	0.875	n/a	Yes	2.984	n/a	5.0	GoodResponse	0	0.039	155.804	3	15	Feedback	Neutral	True
158.219	2.984	Control	0.875	n/a	Yes	2.984	n/a	n/a	GoodResponse	0	0.0	n/a	3	15	ISIslide	Neutral	True
161.228	0.25	Win2	0.8824	0.0	Yes	2.872	0.028	n/a	GoodResponse	1	n/a	n/a	4	16	Cue	Win	True
161.479	4.0	Win2	0.8824	0.0	Yes	2.872	0.001	n/a	GoodResponse	1	n/a	n/a	4	16	Fixation	Win	True
165.474	0.24	Win2	0.8824	0.004	Yes	2.872	-0.004	1.0	GoodResponse	1	0.229	164.703	4	16	Target	Win	True
165.703	0.3	Win2	0.8824	0.004	Yes	2.872	-0.004	1.0	GoodResponse	1	0.229	n/a	4	16	ButtonPress	Win	True
165.725	0.46	Win2	0.8824	n/a	Yes	2.872	n/a	n/a	GoodResponse	1	n/a	n/a	4	16	Blank	Win	True
166.176	1.45	Win2	0.8824	n/a	Yes	2.872	n/a	5.0	GoodResponse	1	0.042	165.218	4	16	Feedback	Win	True
167.631	2.872	Win2	0.8824	n/a	Yes	2.872	n/a	n/a	GoodResponse	1	0.0	n/a	4	16	ISIslide	Win	True
170.523	0.25	Lose2	0.8332999999999999	0.0	No	2.727	0.023	n/a	NoResponse	-1	n/a	n/a	3	17	Cue	Loss	True
170.773	3.95	Lose2	0.8332999999999999	0.0	No	2.727	0.0	n/a	NoResponse	-1	n/a	n/a	3	17	Fixation	Loss	True
174.735	0.23	Lose2	0.8332999999999999	0.0	No	2.727	0.012	1.0	NoResponse	-1	0.239	173.974	3	17	Target	Loss	True
174.952	0.47	Lose2	0.8332999999999999	n/a	No	2.727	n/a	n/a	NoResponse	-1	n/a	n/a	3	17	Blank	Loss	True
174.974	0.3	Lose2	0.8332999999999999	0.0	No	2.727	0.012	1.0	NoResponse	-1	0.239	n/a	3	17	ButtonPress	Loss	True
175.421	1.45	Lose2	0.8332999999999999	n/a	No	2.727	n/a	5.0	NoResponse	-1	0.017	174.438	3	17	Feedback	Loss	True
176.875	2.727	Lose2	0.8332999999999999	n/a	No	2.727	n/a	n/a	NoResponse	-1	0.0	n/a	3	17	ISIslide	Loss	True
179.616	0.25	Lose2	0.8421	0.001	Yes	2.734	0.016	n/a	GoodResponse	0	n/a	n/a	3	18	Cue	AvoidedLoss	True
179.867	4.05	Lose2	0.8421	0.0	Yes	2.734	0.001	n/a	GoodResponse	0	n/a	n/a	3	18	Fixation	AvoidedLoss	True
183.913	0.22	Lose2	0.8421	0.003	Yes	2.734	-0.003	1.0	GoodResponse	0	0.211	183.124	3	18	Target	AvoidedLoss	True
184.124	0.3	Lose2	0.8421	0.003	Yes	2.734	-0.003	1.0	GoodResponse	0	0.211	n/a	3	18	ButtonPress	AvoidedLoss	True
184.147	0.48	Lose2	0.8421	n/a	Yes	2.734	n/a	n/a	GoodResponse	0	n/a	n/a	3	18	Blank	AvoidedLoss	True
184.615	1.45	Lose2	0.8421	n/a	Yes	2.734	n/a	5.0	GoodResponse	0	0.042	183.657	3	18	Feedback	AvoidedLoss	True
186.069	2.734	Lose2	0.8421	n/a	Yes	2.734	n/a	n/a	GoodResponse	0	0.0	n/a	3	18	ISIslide	AvoidedLoss	True
188.827	0.25	Control	0.85	0.001	Yes	2.923	0.027	n/a	GoodResponse	0	n/a	n/a	3	19	Cue	Neutral	True
189.078	3.95	Control	0.85	0.0	Yes	2.923	0.001	n/a	GoodResponse	0	n/a	n/a	3	19	Fixation	Neutral	True
193.023	0.21	Control	0.85	0.004	Yes	2.923	-0.004	1.0	GoodResponse	0	0.192	192.215	3	19	Target	Neutral	True
193.215	0.3	Control	0.85	0.004	Yes	2.923	-0.004	1.0	GoodResponse	0	0.192	n/a	3	19	ButtonPress	Neutral	True
193.241	0.49	Control	0.85	n/a	Yes	2.923	n/a	n/a	GoodResponse	0	n/a	n/a	3	19	Blank	Neutral	True
193.725	1.45	Control	0.85	n/a	Yes	2.923	n/a	5.0	GoodResponse	0	0.006	192.731	3	19	Feedback	Neutral	True
195.18	2.923	Control	0.85	n/a	Yes	2.923	n/a	n/a	GoodResponse	0	0.0	n/a	3	19	ISIslide	Neutral	True
198.122	0.25	Control	0.8095	0.0	No	2.628	0.022	n/a	NoResponse	0	n/a	n/a	3	20	Cue	Neutral	True
198.373	4.05	Control	0.8095	0.0	No	2.628	0.001	n/a	NoResponse	0	n/a	n/a	3	20	Fixation	Neutral	True
202.418	0.2	Control	0.8095	0.004	No	2.628	-0.004	1.0	NoResponse	0	0.204	201.622	3	20	Target	Neutral	True
202.619	0.5	Control	0.8095	n/a	No	2.628	n/a	n/a	NoResponse	0	n/a	n/a	3	20	Blank	Neutral	True
202.622	0.3	Control	0.8095	0.004	No	2.628	-0.004	1.0	NoResponse	0	0.204	n/a	3	20	ButtonPress	Neutral	True
203.12	1.45	Control	0.8095	n/a	No	2.628	n/a	5.0	NoResponse	0	0.025	202.145	3	20	Feedback	Neutral	True
204.575	2.628	Control	0.8095	n/a	No	2.628	n/a	n/a	NoResponse	0	0.0	n/a	3	20	ISIslide	Neutral	True
207.216	0.25	Control	0.7726999999999999	0.0	No	2.784	0.016	n/a	NoResponse	0	n/a	n/a	3	21	Cue	Neutral	True
207.467	4.1	Control	0.7726999999999999	0.0	No	2.784	0.001	n/a	NoResponse	0	n/a	n/a	3	21	Fixation	Neutral	True
211.562	0.19	Control	0.7726999999999999	0.004	No	2.784	-0.004	1.0	NoResponse	0	0.21	210.772	3	21	Target	Neutral	True
211.763	0.51	Control	0.7726999999999999	n/a	No	2.784	n/a	n/a	NoResponse	0	n/a	n/a	3	21	Blank	Neutral	True
211.772	0.3	Control	0.7726999999999999	0.004	No	2.784	-0.004	1.0	NoResponse	0	0.21	n/a	3	21	ButtonPress	Neutral	True
212.264	1.45	Control	0.7726999999999999	n/a	No	2.784	n/a	5.0	NoResponse	0	0.007	211.271	3	21	Feedback	Neutral	True
213.719	2.784	Control	0.7726999999999999	n/a	No	2.784	n/a	n/a	NoResponse	0	0.0	n/a	3	21	ISIslide	Neutral	True
216.527	0.25	Control	0.7391	0.0	No	2.773	0.027	n/a	NoResponse	0	n/a	n/a	3	22	Cue	Neutral	True
216.778	4.0	Control	0.7391	0.0	No	2.773	0.001	n/a	NoResponse	0	n/a	n/a	3	22	Fixation	Neutral	True
220.773	0.18	Control	0.7391	0.004	No	2.773	-0.004	1.0	NoResponse	0	0.329	220.102	3	22	Target	Neutral	True
220.957	0.52	Control	0.7391	n/a	No	2.773	n/a	n/a	NoResponse	0	n/a	n/a	3	22	Blank	Neutral	True
221.102	0.3	Control	0.7391	0.004	No	2.773	-0.004	1.0	NoResponse	0	0.329	n/a	3	22	ButtonPress	Neutral	True
221.475	1.45	Control	0.7391	n/a	No	2.773	n/a	5.0	NoResponse	0	0.011	220.486	3	22	Feedback	Neutral	True
222.93	2.773	Control	0.7391	n/a	No	2.773	n/a	n/a	NoResponse	0	0.0	n/a	3	22	ISIslide	Neutral	True
225.721	0.25	Control	0.7082999999999999	0.0	No	2.779	0.021	n/a	NoResponse	0	n/a	n/a	3	23	Cue	Neutral	True
225.972	3.9	Control	0.7082999999999999	0.0	No	2.779	0.001	n/a	NoResponse	0	n/a	n/a	3	23	Fixation	Neutral	True
229.867	0.17	Control	0.7082999999999999	0.004	No	2.779	-0.004	1.0	NoResponse	0	0.244	229.111	3	23	Target	Neutral	True
230.051	0.53	Control	0.7082999999999999	n/a	No	2.779	n/a	n/a	NoResponse	0	n/a	n/a	3	23	Blank	Neutral	True
230.111	0.3	Control	0.7082999999999999	0.004	No	2.779	-0.004	1.0	NoResponse	0	0.244	n/a	3	23	ButtonPress	Neutral	True
230.569	1.45	Control	0.7082999999999999	n/a	No	2.779	n/a	5.0	NoResponse	0	0.039	229.608	3	23	Feedback	Neutral	True
232.023	2.779	Control	0.7082999999999999	n/a	No	2.779	n/a	n/a	NoResponse	0	0.0	n/a	3	23	ISIslide	Neutral	True
234.832	0.25	Win2	0.68	0.0	No	3.118	0.032	n/a	NoResponse	0	n/a	n/a	3	24	Cue	MissedWin	True
235.083	3.95	Win2	0.68	0.0	No	3.118	0.001	n/a	NoResponse	0	n/a	n/a	3	24	Fixation	MissedWin	True
239.028	0.16	Win2	0.68	0.004	No	3.118	-0.004	1.0	NoResponse	0	0.195	238.223	3	24	Target	MissedWin	True
239.195	0.54	Win2	0.68	n/a	No	3.118	n/a	n/a	NoResponse	0	n/a	n/a	3	24	Blank	MissedWin	True
239.223	0.3	Win2	0.68	0.004	No	3.118	-0.004	1.0	NoResponse	0	0.195	n/a	3	24	ButtonPress	MissedWin	True
239.73	1.45	Win2	0.68	n/a	No	3.118	n/a	5.0	NoResponse	0	0.048	238.778	3	24	Feedback	MissedWin	True
241.184	3.118	Win2	0.68	n/a	No	3.118	n/a	n/a	NoResponse	0	0.0	n/a	3	24	ISIslide	MissedWin	True
244.327	0.25	Win2	0.6537999999999999	0.0	No	3.073	0.027	n/a	NoResponse	0	n/a	n/a	3	25	Cue	MissedWin	True
244.578	4.0	Win2	0.6537999999999999	0.0	No	3.073	0.001	n/a	NoResponse	0	n/a	n/a	3	25	Fixation	MissedWin	True
248.573	0.15	Win2	0.6537999999999999	0.004	No	3.073	-0.004	1.0	NoResponse	0	0.181	247.754	3	25	Target	MissedWin	True
248.724	0.55	Win2	0.6537999999999999	n/a	No	3.073	n/a	n/a	NoResponse	0	n/a	n/a	3	25	Blank	MissedWin	True
248.754	0.3	Win2	0.6537999999999999	0.004	No	3.073	-0.004	1.0	NoResponse	0	0.181	n/a	3	25	ButtonPress	MissedWin	True
249.275	1.45	Win2	0.6537999999999999	n/a	No	3.073	n/a	5.0	NoResponse	0	0.016	248.291	3	25	Feedback	MissedWin	True
250.73	3.073	Win2	0.6537999999999999	n/a	No	3.073	n/a	n/a	NoResponse	0	0.0	n/a	3	25	ISIslide	MissedWin	True
253.822	0.25	Win2	0.6296	0.0	No	2.928	0.022	n/a	NoResponse	0	n/a	n/a	3	26	Cue	MissedWin	True
254.073	3.95	Win2	0.6296	0.0	No	2.928	0.001	n/a	NoResponse	0	n/a	n/a	3	26	Fixation	MissedWin	True
258.018	0.16	Win2	0.6296	0.004	No	2.928	-0.004	1.0	NoResponse	0	0.175	257.193	3	26	Target	MissedWin	True
258.185	0.54	Win2	0.6296	n/a	No	2.928	n/a	n/a	NoResponse	0	n/a	n/a	3	26	Blank	MissedWin	True
258.193	0.3	Win2	0.6296	0.004	No	2.928	-0.004	1.0	NoResponse	0	0.175	n/a	3	26	ButtonPress	MissedWin	True
258.72	1.45	Win2	0.6296	n/a	No	2.928	n/a	5.0	NoResponse	0	0.034	257.754	3	26	Feedback	MissedWin	True
260.175	2.928	Win2	0.6296	n/a	No	2.928	n/a	1.0	NoResponse	0	0.492	n/a	3	26	ISIslide	MissedWin	True
263.1	0.25	Lose2	0.6071	0.0	No	2.85	0.0	n/a	LatePress	-1	n/a	n/a	2	27	Cue	Loss	True
263.351	4.05	Lose2	0.6071	0.0	No	2.85	0.001	n/a	LatePress	-1	n/a	n/a	2	27	Fixation	Loss	True
267.396	0.17	Lose2	0.6071	0.004	No	2.85	-0.004	1.0	LatePress	-1	0.179	266.575	2	27	Target	Loss	True
267.575	0.3	Lose2	0.6071	0.004	No	2.85	-0.004	1.0	LatePress	-1	0.179	n/a	2	27	ButtonPress	Loss	True
267.58	0.53	Lose2	0.6071	n/a	No	2.85	n/a	n/a	LatePress	-1	n/a	n/a	2	27	Blank	Loss	True
268.098	1.45	Lose2	0.6071	n/a	No	2.85	n/a	5.0	LatePress	-1	0.022	267.12	2	27	Feedback	Loss	True
269.553	2.85	Lose2	0.6071	n/a	No	2.85	n/a	n/a	LatePress	-1	0.0	n/a	2	27	ISIslide	Loss	True
272.428	0.25	Control	0.5861999999999999	0.0	No	2.822	0.028	n/a	NoResponse	0	n/a	n/a	2	28	Cue	Neutral	False
272.679	4.05	Control	0.5861999999999999	0.0	No	2.822	0.001	1.0	NoResponse	0	3.853	275.532	2	28	Fixation	Neutral	False
276.532	0.3	Control	0.5861999999999999	0.0	No	2.822	0.001	1.0	NoResponse	0	3.853	n/a	2	28	ButtonPress	Neutral	False
276.724	0.18	Control	0.5861999999999999	0.004	No	2.822	-0.004	1.0	NoResponse	0	0.287	276.011	2	28	Target	Neutral	False
276.908	0.52	Control	0.5861999999999999	n/a	No	2.822	n/a	n/a	NoResponse	0	n/a	n/a	2	28	Blank	Neutral	False
277.011	0.3	Control	0.5861999999999999	0.004	No	2.822	-0.004	1.0	NoResponse	0	0.287	n/a	2	28	ButtonPress	Neutral	False
277.426	1.45	Control	0.5861999999999999	n/a	No	2.822	n/a	5.0	NoResponse	0	0.011	276.437	2	28	Feedback	Neutral	False
278.881	2.822	Control	0.5861999999999999	n/a	No	2.822	n/a	n/a	NoResponse	0	0.0	n/a	2	28	ISIslide	Neutral	False
281.722	0.25	Lose2	0.6	0.0	Yes	2.828	0.022	n/a	GoodResponse	0	n/a	n/a	2	29	Cue	AvoidedLoss	True
281.973	3.95	Lose2	0.6	0.0	Yes	2.828	0.001	n/a	GoodResponse	0	n/a	n/a	2	29	Fixation	AvoidedLoss	True
285.918	0.19	Lose2	0.6	0.004	Yes	2.828	-0.004	1.0	GoodResponse	0	0.184	285.102	2	29	Target	AvoidedLoss	True
286.102	0.3	Lose2	0.6	0.004	Yes	2.828	-0.004	1.0	GoodResponse	0	0.184	n/a	2	29	ButtonPress	AvoidedLoss	True
286.119	0.51	Lose2	0.6	n/a	Yes	2.828	n/a	n/a	GoodResponse	0	n/a	n/a	2	29	Blank	AvoidedLoss	True
286.62	1.45	Lose2	0.6	n/a	Yes	2.828	n/a	5.0	GoodResponse	0	0.037	285.657	2	29	Feedback	AvoidedLoss	True
288.075	2.828	Lose2	0.6	n/a	Yes	2.828	n/a	n/a	GoodResponse	0	0.0	n/a	2	29	ISIslide	AvoidedLoss	True
290.917	0.25	Win2	0.6129	0.0	Yes	2.783	0.017	n/a	GoodResponse	1	n/a	n/a	3	30	Cue	Win	True
291.167	3.9	Win2	0.6129	0.0	Yes	2.783	0.0	n/a	GoodResponse	1	n/a	n/a	3	30	Fixation	Win	True
295.079	0.2	Win2	0.6129	0.0	Yes	2.783	0.012	1.0	GoodResponse	1	0.186	294.265	3	30	Target	Win	True
295.263	0.5	Win2	0.6129	n/a	Yes	2.783	n/a	n/a	GoodResponse	1	n/a	n/a	3	30	Blank	Win	True
295.265	0.3	Win2	0.6129	0.0	Yes	2.783	0.012	1.0	GoodResponse	1	0.186	n/a	3	30	ButtonPress	Win	True
295.764	1.45	Win2	0.6129	n/a	Yes	2.783	n/a	5.0	GoodResponse	1	0.015	294.779	3	30	Feedback	Win	True
297.219	2.783	Win2	0.6129	n/a	Yes	2.783	n/a	n/a	GoodResponse	1	0.0	n/a	3	30	ISIslide	Win	True
300.027	0.25	Lose2	0.625	0.0	Yes	2.823	0.027	n/a	GoodResponse	0	n/a	n/a	3	31	Cue	AvoidedLoss	True
300.278	4.05	Lose2	0.625	0.0	Yes	2.823	0.001	n/a	GoodResponse	0	n/a	n/a	3	31	Fixation	AvoidedLoss	True
304.323	0.21	Lose2	0.625	0.004	Yes	2.823	-0.004	1.0	GoodResponse	0	0.181	303.504	3	31	Target	AvoidedLoss	True
304.504	0.3	Lose2	0.625	0.004	Yes	2.823	-0.004	1.0	GoodResponse	0	0.181	n/a	3	31	ButtonPress	AvoidedLoss	True
304.541	0.49	Lose2	0.625	n/a	Yes	2.823	n/a	n/a	GoodResponse	0	n/a	n/a	3	31	Blank	AvoidedLoss	True
305.026	1.45	Lose2	0.625	n/a	Yes	2.823	n/a	5.0	GoodResponse	0	0.02	304.046	3	31	Feedback	AvoidedLoss	True
306.48	2.823	Lose2	0.625	n/a	Yes	2.823	n/a	n/a	GoodResponse	0	0.0	n/a	3	31	ISIslide	AvoidedLoss	True
309.322	0.25	Lose2	0.6364	0.0	Yes	2.628	0.022	n/a	GoodResponse	0	n/a	n/a	3	32	Cue	AvoidedLoss	True
309.573	4.15	Lose2	0.6364	0.0	Yes	2.628	0.001	n/a	GoodResponse	0	n/a	n/a	3	32	Fixation	AvoidedLoss	True
313.718	0.22	Lose2	0.6364	0.004	Yes	2.628	-0.004	1.0	GoodResponse	0	0.211	312.929	3	32	Target	AvoidedLoss	True
313.929	0.3	Lose2	0.6364	0.004	Yes	2.628	-0.004	1.0	GoodResponse	0	0.211	n/a	3	32	ButtonPress	AvoidedLoss	True
313.952	0.48	Lose2	0.6364	n/a	Yes	2.628	n/a	n/a	GoodResponse	0	n/a	n/a	3	32	Blank	AvoidedLoss	True
314.42	1.45	Lose2	0.6364	n/a	Yes	2.628	n/a	5.0	GoodResponse	0	0.041	313.461	3	32	Feedback	AvoidedLoss	True
315.875	2.628	Lose2	0.6364	n/a	Yes	2.628	n/a	n/a	GoodResponse	0	0.0	n/a	3	32	ISIslide	AvoidedLoss	True
318.516	0.25	Win2	0.6175999999999999	0.0	No	2.684	0.016	n/a	NoResponse	0	n/a	n/a	3	33	Cue	MissedWin	False
318.767	4.0	Win2	0.6175999999999999	0.0	No	2.684	0.001	1.0	NoResponse	0	3.764	321.531	3	33	Fixation	MissedWin	False
322.531	0.3	Win2	0.6175999999999999	0.0	No	2.684	0.001	1.0	NoResponse	0	3.764	n/a	3	33	ButtonPress	MissedWin	False
322.762	0.23	Win2	0.6175999999999999	0.004	No	2.684	-0.004	1.0	NoResponse	0	0.257	322.019	3	33	Target	MissedWin	False
322.996	0.47	Win2	0.6175999999999999	n/a	No	2.684	n/a	n/a	NoResponse	0	n/a	n/a	3	33	Blank	MissedWin	False
323.019	0.3	Win2	0.6175999999999999	0.004	No	2.684	-0.004	1.0	NoResponse	0	0.257	n/a	3	33	ButtonPress	MissedWin	False
323.464	1.45	Win2	0.6175999999999999	n/a	No	2.684	n/a	5.0	NoResponse	0	0.021	322.485	3	33	Feedback	MissedWin	False
324.919	2.684	Win2	0.6175999999999999	n/a	No	2.684	n/a	n/a	NoResponse	0	0.0	n/a	3	33	ISIslide	MissedWin	False
327.627	0.25	Lose2	0.6286	0.0	Yes	2.623	0.027	n/a	GoodResponse	0	n/a	n/a	3	34	Cue	AvoidedLoss	True
327.877	4.05	Lose2	0.6286	0.0	Yes	2.623	0.0	n/a	GoodResponse	0	n/a	n/a	3	34	Fixation	AvoidedLoss	True
331.923	0.24	Lose2	0.6286	0.004	Yes	2.623	-0.004	1.0	GoodResponse	0	0.185	331.108	3	34	Target	AvoidedLoss	True
332.108	0.3	Lose2	0.6286	0.004	Yes	2.623	-0.004	1.0	GoodResponse	0	0.185	n/a	3	34	ButtonPress	AvoidedLoss	True
332.174	0.46	Lose2	0.6286	n/a	Yes	2.623	n/a	n/a	GoodResponse	0	n/a	n/a	3	34	Blank	AvoidedLoss	True
332.625	1.45	Lose2	0.6286	n/a	Yes	2.623	n/a	5.0	GoodResponse	0	0.031	331.656	3	34	Feedback	AvoidedLoss	True
334.079	2.623	Lose2	0.6286	n/a	Yes	2.623	n/a	n/a	GoodResponse	0	0.0	n/a	3	34	ISIslide	AvoidedLoss	True
336.721	0.25	Lose2	0.6389	0.0	Yes	2.679	0.021	n/a	GoodResponse	0	n/a	n/a	3	35	Cue	AvoidedLoss	True
336.971	4.0	Lose2	0.6389	0.0	Yes	2.679	0.0	n/a	GoodResponse	0	n/a	n/a	3	35	Fixation	AvoidedLoss	True
340.967	0.25	Lose2	0.6389	0.004	Yes	2.679	-0.004	1.0	GoodResponse	0	0.171	340.138	3	35	Target	AvoidedLoss	True
341.138	0.3	Lose2	0.6389	0.004	Yes	2.679	-0.004	1.0	GoodResponse	0	0.171	n/a	3	35	ButtonPress	AvoidedLoss	True
341.217	0.45	Lose2	0.6389	n/a	Yes	2.679	n/a	n/a	GoodResponse	0	n/a	n/a	3	35	Blank	AvoidedLoss	True
341.669	1.45	Lose2	0.6389	n/a	Yes	2.679	n/a	5.0	GoodResponse	0	0.012	340.681	3	35	Feedback	AvoidedLoss	True
343.123	2.679	Lose2	0.6389	n/a	Yes	2.679	n/a	n/a	GoodResponse	0	0.0	n/a	3	35	ISIslide	AvoidedLoss	True
345.814	0.25	Control	0.6486	0.001	Yes	2.686	0.014	n/a	GoodResponse	0	n/a	n/a	3	36	Cue	Neutral	True
346.065	4.0	Control	0.6486	0.0	Yes	2.686	0.001	n/a	GoodResponse	0	n/a	n/a	3	36	Fixation	Neutral	True
350.061	0.26	Control	0.6486	0.003	Yes	2.686	-0.003	1.0	GoodResponse	0	0.237	349.298	3	36	Target	Neutral	True
350.298	0.3	Control	0.6486	0.003	Yes	2.686	-0.003	1.0	GoodResponse	0	0.237	n/a	3	36	ButtonPress	Neutral	True
350.328	0.44	Control	0.6486	n/a	Yes	2.686	n/a	n/a	GoodResponse	0	n/a	n/a	3	36	Blank	Neutral	True
350.763	1.45	Control	0.6486	n/a	Yes	2.686	n/a	5.0	GoodResponse	0	0.04	349.803	3	36	Feedback	Neutral	True
352.217	2.686	Control	0.6486	n/a	Yes	2.686	n/a	n/a	GoodResponse	0	0.0	n/a	3	36	ISIslide	Neutral	True
354.925	0.25	Win2	0.6579	0.0	Yes	2.875	0.025	n/a	GoodResponse	1	n/a	n/a	4	37	Cue	Win	True
355.176	4.0	Win2	0.6579	0.0	Yes	2.875	0.001	n/a	GoodResponse	1	n/a	n/a	4	37	Fixation	Win	True
359.171	0.27	Win2	0.6579	0.004	Yes	2.875	-0.004	1.0	GoodResponse	1	0.204	358.375	4	37	Target	Win	True
359.375	0.3	Win2	0.6579	0.004	Yes	2.875	-0.004	1.0	GoodResponse	1	0.204	n/a	4	37	ButtonPress	Win	True
359.455	0.43	Win2	0.6579	n/a	Yes	2.875	n/a	n/a	GoodResponse	1	n/a	n/a	4	37	Blank	Win	True
359.873	1.45	Win2	0.6579	n/a	Yes	2.875	n/a	5.0	GoodResponse	1	0.007	358.88	4	37	Feedback	Win	True
361.328	2.875	Win2	0.6579	n/a	Yes	2.875	n/a	n/a	GoodResponse	1	0.0	n/a	4	37	ISIslide	Win	True
364.22	0.25	Lose2	0.6409999999999999	0.0	No	2.83	0.02	n/a	NoResponse	-1	n/a	n/a	3	38	Cue	Loss	False
364.47	3.95	Lose2	0.6409999999999999	0.0	No	2.83	0.0	n/a	NoResponse	-1	n/a	n/a	3	38	Fixation	Loss	False
368.416	0.27	Lose2	0.6409999999999999	0.004	No	2.83	-0.004	n/a	NoResponse	-1	n/a	n/a	3	38	Target	Loss	False
368.7	0.43	Lose2	0.6409999999999999	n/a	No	2.83	n/a	n/a	NoResponse	-1	n/a	n/a	3	38	Blank	Loss	False
369.118	1.45	Lose2	0.6409999999999999	n/a	No	2.83	n/a	5.0	NoResponse	-1	0.025	368.143	3	38	Feedback	Loss	False
370.572	2.83	Lose2	0.6409999999999999	n/a	No	2.83	n/a	n/a	NoResponse	-1	0.0	n/a	3	38	ISIslide	Loss	False
373.431	0.25	Win2	0.65	0.0	Yes	2.969	0.031	n/a	GoodResponse	1	n/a	n/a	4	39	Cue	Win	True
373.681	4.1	Win2	0.65	0.0	Yes	2.969	0.0	n/a	GoodResponse	1	n/a	n/a	4	39	Fixation	Win	True
377.777	0.28	Win2	0.65	0.004	Yes	2.969	-0.004	1.0	GoodResponse	1	0.208	376.985	4	39	Target	Win	True
377.985	0.3	Win2	0.65	0.004	Yes	2.969	-0.004	1.0	GoodResponse	1	0.208	n/a	4	39	ButtonPress	Win	True
378.061	0.42	Win2	0.65	n/a	Yes	2.969	n/a	n/a	GoodResponse	1	n/a	n/a	4	39	Blank	Win	True
378.479	1.45	Win2	0.65	n/a	Yes	2.969	n/a	5.0	GoodResponse	1	0.03	377.509	4	39	Feedback	Win	True
379.933	2.969	Win2	0.65	n/a	Yes	2.969	n/a	n/a	GoodResponse	1	0.0	n/a	4	39	ISIslide	Win	True
382.926	0.25	Win2	0.6585	0.0	Yes	2.724	0.026	n/a	GoodResponse	1	n/a	n/a	5	40	Cue	Win	True
383.176	3.95	Win2	0.6585	0.0	Yes	2.724	0.0	n/a	GoodResponse	1	n/a	n/a	5	40	Fixation	Win	True
387.122	0.29	Win2	0.6585	0.004	Yes	2.724	-0.004	1.0	GoodResponse	1	0.267	386.389	5	40	Target	Win	True
387.389	0.3	Win2	0.6585	0.004	Yes	2.724	-0.004	1.0	GoodResponse	1	0.267	n/a	5	40	ButtonPress	Win	True
387.422	0.41	Win2	0.6585	n/a	Yes	2.724	n/a	n/a	GoodResponse	1	n/a	n/a	5	40	Blank	Win	True
387.824	1.45	Win2	0.6585	n/a	Yes	2.724	n/a	5.0	GoodResponse	1	0.007	386.831	5	40	Feedback	Win	True
389.278	2.724	Win2	0.6585	n/a	Yes	2.724	n/a	n/a	GoodResponse	1	0.0	n/a	5	40	ISIslide	Win	True
392.02	0.25	Win2	0.6667000000000001	0.0	Yes	2.78	0.02	n/a	GoodResponse	1	n/a	n/a	6	41	Cue	Win	True
392.27	3.9	Win2	0.6667000000000001	0.0	Yes	2.78	0.0	n/a	GoodResponse	1	n/a	n/a	6	41	Fixation	Win	True
396.182	0.29	Win2	0.6667000000000001	0.0	Yes	2.78	0.012	1.0	GoodResponse	1	0.192	395.374	6	41	Target	Win	True
396.374	0.3	Win2	0.6667000000000001	0.0	Yes	2.78	0.012	1.0	GoodResponse	1	0.192	n/a	6	41	ButtonPress	Win	True
396.466	0.41	Win2	0.6667000000000001	n/a	Yes	2.78	n/a	n/a	GoodResponse	1	n/a	n/a	6	41	Blank	Win	True
396.867	1.45	Win2	0.6667000000000001	n/a	Yes	2.78	n/a	5.0	GoodResponse	1	0.033	395.9	6	41	Feedback	Win	True
398.322	2.78	Win2	0.6667000000000001	n/a	Yes	2.78	n/a	n/a	GoodResponse	1	0.0	n/a	6	41	ISIslide	Win	True
401.13	0.25	Control	0.6744	0.0	Yes	2.92	0.03	n/a	GoodResponse	0	n/a	n/a	6	42	Cue	Neutral	True
401.381	3.85	Control	0.6744	0.0	Yes	2.92	0.001	n/a	GoodResponse	0	n/a	n/a	6	42	Fixation	Neutral	True
405.226	0.28	Control	0.6744	0.004	Yes	2.92	-0.004	1.0	GoodResponse	0	0.225	404.451	6	42	Target	Neutral	True
405.451	0.3	Control	0.6744	0.004	Yes	2.92	-0.004	1.0	GoodResponse	0	0.225	n/a	6	42	ButtonPress	Neutral	True
405.51	0.42	Control	0.6744	n/a	Yes	2.92	n/a	n/a	GoodResponse	0	n/a	n/a	6	42	Blank	Neutral	True
405.928	1.45	Control	0.6744	n/a	Yes	2.92	n/a	5.0	GoodResponse	0	0.045	404.973	6	42	Feedback	Neutral	True
407.382	2.92	Control	0.6744	n/a	Yes	2.92	n/a	n/a	GoodResponse	0	0.0	n/a	6	42	ISIslide	Neutral	True
410.324	0.25	Win2	0.6818000000000001	0.001	Yes	3.176	0.024	n/a	GoodResponse	1	n/a	n/a	7	43	Cue	Win	True
410.575	4.0	Win2	0.6818000000000001	0.0	Yes	3.176	0.001	n/a	GoodResponse	1	n/a	n/a	7	43	Fixation	Win	True
414.57	0.27	Win2	0.6818000000000001	0.004	Yes	3.176	-0.004	1.0	GoodResponse	1	0.252	413.822	7	43	Target	Win	True
414.822	0.3	Win2	0.6818000000000001	0.004	Yes	3.176	-0.004	1.0	GoodResponse	1	0.252	n/a	7	43	ButtonPress	Win	True
414.855	0.43	Win2	0.6818000000000001	n/a	Yes	3.176	n/a	n/a	GoodResponse	1	n/a	n/a	7	43	Blank	Win	True
415.273	1.45	Win2	0.6818000000000001	n/a	Yes	3.176	n/a	5.0	GoodResponse	1	0.017	414.29	7	43	Feedback	Win	True
416.727	3.176	Win2	0.6818000000000001	n/a	Yes	3.176	n/a	n/a	GoodResponse	1	0.0	n/a	7	43	ISIslide	Win	True
419.92	0.25	Win2	0.6889	0.0	Yes	2.98	0.02	n/a	GoodResponse	1	n/a	n/a	8	44	Cue	Win	True
420.171	4.0	Win2	0.6889	0.0	Yes	2.98	0.001	n/a	GoodResponse	1	n/a	n/a	8	44	Fixation	Win	True
424.166	0.26	Win2	0.6889	0.004	Yes	2.98	-0.004	1.0	GoodResponse	1	0.238	423.404	8	44	Target	Win	True
424.404	0.3	Win2	0.6889	0.004	Yes	2.98	-0.004	1.0	GoodResponse	1	0.238	n/a	8	44	ButtonPress	Win	True
424.433	0.44	Win2	0.6889	n/a	Yes	2.98	n/a	n/a	GoodResponse	1	n/a	n/a	8	44	Blank	Win	True
424.868	1.45	Win2	0.6889	n/a	Yes	2.98	n/a	5.0	GoodResponse	1	0.031	423.899	8	44	Feedback	Win	True
426.322	2.98	Win2	0.6889	n/a	Yes	2.98	n/a	n/a	GoodResponse	1	0.0	n/a	8	44	ISIslide	Win	True
429.315	0.25	Control	0.6957	0.0	Yes	2.885	0.015	n/a	GoodResponse	0	n/a	n/a	8	45	Cue	Neutral	True
429.565	4.1	Control	0.6957	0.0	Yes	2.885	0.0	n/a	GoodResponse	0	n/a	n/a	8	45	Fixation	Neutral	True
433.661	0.25	Control	0.6957	0.004	Yes	2.885	-0.004	1.0	GoodResponse	0	0.231	432.892	8	45	Target	Neutral	True
433.892	0.3	Control	0.6957	0.004	Yes	2.885	-0.004	1.0	GoodResponse	0	0.231	n/a	8	45	ButtonPress	Neutral	True
433.912	0.45	Control	0.6957	n/a	Yes	2.885	n/a	n/a	GoodResponse	0	n/a	n/a	8	45	Blank	Neutral	True
434.363	1.45	Control	0.6957	n/a	Yes	2.885	n/a	5.0	GoodResponse	0	0.0	433.363	8	45	Feedback	Neutral	True
435.817	2.885	Control	0.6957	n/a	Yes	2.885	n/a	n/a	GoodResponse	0	0.0	n/a	8	45	ISIslide	Neutral	True
438.726	0.25	Lose2	0.7021	0.0	Yes	3.374	0.026	n/a	GoodResponse	0	n/a	n/a	8	46	Cue	AvoidedLoss	True
438.977	4.0	Lose2	0.7021	0.0	Yes	3.374	0.001	n/a	GoodResponse	0	n/a	n/a	8	46	Fixation	AvoidedLoss	True
442.972	0.24	Lose2	0.7021	0.004	Yes	3.374	-0.004	1.0	GoodResponse	0	0.214	442.186	8	46	Target	AvoidedLoss	True
443.186	0.3	Lose2	0.7021	0.004	Yes	3.374	-0.004	1.0	GoodResponse	0	0.214	n/a	8	46	ButtonPress	AvoidedLoss	True
443.223	0.46	Lose2	0.7021	n/a	Yes	3.374	n/a	n/a	GoodResponse	0	n/a	n/a	8	46	Blank	AvoidedLoss	True
443.674	1.45	Lose2	0.7021	n/a	Yes	3.374	n/a	5.0	GoodResponse	0	0.007	442.681	8	46	Feedback	AvoidedLoss	True
445.129	3.374	Lose2	0.7021	n/a	Yes	3.374	n/a	n/a	GoodResponse	0	0.0	n/a	8	46	ISIslide	AvoidedLoss	True
448.522	0.25	Lose2	0.6875	0.0	No	2.678	0.022	n/a	NoResponse	-1	n/a	n/a	7	47	Cue	Loss	True
448.773	4.0	Lose2	0.6875	0.0	No	2.678	0.001	n/a	NoResponse	-1	n/a	n/a	7	47	Fixation	Loss	True
452.768	0.23	Lose2	0.6875	0.004	No	2.678	-0.004	1.0	NoResponse	-1	0.245	452.013	7	47	Target	Loss	True
453.002	0.47	Lose2	0.6875	n/a	No	2.678	n/a	n/a	NoResponse	-1	n/a	n/a	7	47	Blank	Loss	True
453.013	0.3	Lose2	0.6875	0.004	No	2.678	-0.004	1.0	NoResponse	-1	0.245	n/a	7	47	ButtonPress	Loss	True
453.47	1.45	Lose2	0.6875	n/a	No	2.678	n/a	5.0	NoResponse	-1	0.015	452.485	7	47	Feedback	Loss	True
454.925	2.678	Lose2	0.6875	n/a	No	2.678	n/a	n/a	NoResponse	-1	0.0	n/a	7	47	ISIslide	Loss	True
457.616	0.25	Lose2	0.6939	0.0	Yes	3.034	0.016	n/a	GoodResponse	0	n/a	n/a	7	48	Cue	AvoidedLoss	True
457.867	3.95	Lose2	0.6939	0.0	Yes	3.034	0.001	n/a	GoodResponse	0	n/a	n/a	7	48	Fixation	AvoidedLoss	True
461.812	0.22	Lose2	0.6939	0.004	Yes	3.034	-0.004	1.0	GoodResponse	0	0.21	461.022	7	48	Target	AvoidedLoss	True
462.022	0.3	Lose2	0.6939	0.004	Yes	3.034	-0.004	1.0	GoodResponse	0	0.21	n/a	7	48	ButtonPress	AvoidedLoss	True
462.046	0.48	Lose2	0.6939	n/a	Yes	3.034	n/a	n/a	GoodResponse	0	n/a	n/a	7	48	Blank	AvoidedLoss	True
462.514	1.45	Lose2	0.6939	n/a	Yes	3.034	n/a	5.0	GoodResponse	0	0.044	461.558	7	48	Feedback	AvoidedLoss	True
463.969	3.034	Lose2	0.6939	n/a	Yes	3.034	n/a	n/a	GoodResponse	0	0.0	n/a	7	48	ISIslide	AvoidedLoss	True
467.028	0.25	Control	0.7	0.0	Yes	2.872	0.028	n/a	GoodResponse	0	n/a	n/a	7	49	Cue	Neutral	True
467.278	4.0	Control	0.7	0.0	Yes	2.872	0.0	n/a	GoodResponse	0	n/a	n/a	7	49	Fixation	Neutral	True
471.274	0.21	Control	0.7	0.004	Yes	2.872	-0.004	1.0	GoodResponse	0	0.19	470.464	7	49	Target	Neutral	True
471.464	0.3	Control	0.7	0.004	Yes	2.872	-0.004	1.0	GoodResponse	0	0.19	n/a	7	49	ButtonPress	Neutral	True
471.491	0.49	Control	0.7	n/a	Yes	2.872	n/a	n/a	GoodResponse	0	n/a	n/a	7	49	Blank	Neutral	True
471.976	1.45	Control	0.7	n/a	Yes	2.872	n/a	5.0	GoodResponse	0	0.046	471.022	7	49	Feedback	Neutral	True
473.43	2.872	Control	0.7	n/a	Yes	2.872	n/a	n/a	GoodResponse	0	0.0	n/a	7	49	ISIslide	Neutral	True
476.322	0.25	Control	0.6862999999999999	0.0	No	2.778	0.022	n/a	NoResponse	0	n/a	n/a	7	50	Cue	Neutral	True
476.573	4.0	Control	0.6862999999999999	0.0	No	2.778	0.001	n/a	NoResponse	0	n/a	n/a	7	50	Fixation	Neutral	True
480.568	0.2	Control	0.6862999999999999	0.004	No	2.778	-0.004	1.0	NoResponse	0	0.331	479.899	7	50	Target	Neutral	True
480.769	0.5	Control	0.6862999999999999	n/a	No	2.778	n/a	n/a	NoResponse	0	n/a	n/a	7	50	Blank	Neutral	True
480.899	0.3	Control	0.6862999999999999	0.004	No	2.778	-0.004	1.0	NoResponse	0	0.331	n/a	7	50	ButtonPress	Neutral	True
481.27	1.45	Control	0.6862999999999999	n/a	No	2.778	n/a	5.0	NoResponse	0	0.019	480.289	7	50	Feedback	Neutral	True
482.725	2.778	Control	0.6862999999999999	n/a	No	2.778	n/a	n/a	NoResponse	0	0.0	n/a	7	50	ISIslide	Neutral	True
485.516	0.25	Control	0.6731	0.0	No	2.734	0.016	n/a	NoResponse	0	n/a	n/a	7	51	Cue	Neutral	True
485.767	3.95	Control	0.6731	0.0	No	2.734	0.001	n/a	NoResponse	0	n/a	n/a	7	51	Fixation	Neutral	True
489.712	0.19	Control	0.6731	0.004	No	2.734	-0.004	1.0	NoResponse	0	0.207	488.919	7	51	Target	Neutral	True
489.913	0.51	Control	0.6731	n/a	No	2.734	n/a	n/a	NoResponse	0	n/a	n/a	7	51	Blank	Neutral	True
489.919	0.3	Control	0.6731	0.004	No	2.734	-0.004	1.0	NoResponse	0	0.207	n/a	7	51	ButtonPress	Neutral	True
490.414	1.45	Control	0.6731	n/a	No	2.734	n/a	5.0	NoResponse	0	0.046	489.46	7	51	Feedback	Neutral	True
491.869	2.734	Control	0.6731	n/a	No	2.734	n/a	n/a	NoResponse	0	0.0	n/a	7	51	ISIslide	Neutral	True
494.627	0.25	Control	0.6604000000000001	0.0	No	2.623	0.027	n/a	NoResponse	0	n/a	n/a	7	52	Cue	Neutral	True
494.878	4.05	Control	0.6604000000000001	0.0	No	2.623	0.001	n/a	NoResponse	0	n/a	n/a	7	52	Fixation	Neutral	True
498.923	0.18	Control	0.6604000000000001	0.004	No	2.623	-0.004	1.0	NoResponse	0	0.206	498.129	7	52	Target	Neutral	True
499.107	0.52	Control	0.6604000000000001	n/a	No	2.623	n/a	n/a	NoResponse	0	n/a	n/a	7	52	Blank	Neutral	True
499.129	0.3	Control	0.6604000000000001	0.004	No	2.623	-0.004	1.0	NoResponse	0	0.206	n/a	7	52	ButtonPress	Neutral	True
499.625	1.45	Control	0.6604000000000001	n/a	No	2.623	n/a	5.0	NoResponse	0	0.006	498.631	7	52	Feedback	Neutral	True
501.08	2.623	Control	0.6604000000000001	n/a	No	2.623	n/a	n/a	NoResponse	0	0.0	n/a	7	52	ISIslide	Neutral	True
503.721	0.25	Win2	0.6481	0.0	No	2.929	0.021	n/a	LatePress	0	n/a	n/a	7	53	Cue	MissedWin	True
503.972	4.05	Win2	0.6481	0.0	No	2.929	0.001	n/a	LatePress	0	n/a	n/a	7	53	Fixation	MissedWin	True
508.017	0.18	Win2	0.6481	0.004	No	2.929	-0.004	1.0	LatePress	0	0.18	507.197	7	53	Target	MissedWin	True
508.197	0.3	Win2	0.6481	0.004	No	2.929	-0.004	1.0	LatePress	0	0.18	n/a	7	53	ButtonPress	MissedWin	True
508.201	0.52	Win2	0.6481	n/a	No	2.929	n/a	n/a	LatePress	0	n/a	n/a	7	53	Blank	MissedWin	True
508.719	1.45	Win2	0.6481	n/a	No	2.929	n/a	5.0	LatePress	0	0.034	507.753	7	53	Feedback	MissedWin	True
510.174	2.929	Win2	0.6481	n/a	No	2.929	n/a	n/a	LatePress	0	0.0	n/a	7	53	ISIslide	MissedWin	True
513.116	0.25	Win2	0.6545000000000001	0.0	Yes	2.734	0.016	n/a	GoodResponse	1	n/a	n/a	8	54	Cue	Win	True
513.367	3.95	Win2	0.6545000000000001	0.0	Yes	2.734	0.001	n/a	GoodResponse	1	n/a	n/a	8	54	Fixation	Win	True
517.312	0.19	Win2	0.6545000000000001	0.004	Yes	2.734	-0.004	1.0	GoodResponse	1	0.169	516.481	8	54	Target	Win	True
517.481	0.3	Win2	0.6545000000000001	0.004	Yes	2.734	-0.004	1.0	GoodResponse	1	0.169	n/a	8	54	ButtonPress	Win	True
517.512	0.51	Win2	0.6545000000000001	n/a	Yes	2.734	n/a	n/a	GoodResponse	1	n/a	n/a	8	54	Blank	Win	True
518.014	1.45	Win2	0.6545000000000001	n/a	Yes	2.734	n/a	5.0	GoodResponse	1	0.007	517.021	8	54	Feedback	Win	True
519.468	2.734	Win2	0.6545000000000001	n/a	Yes	2.734	n/a	n/a	GoodResponse	1	0.0	n/a	8	54	ISIslide	Win	True
522.226	0.25	Control	0.6607	0.0	Yes	3.024	0.026	n/a	GoodResponse	0	n/a	n/a	8	55	Cue	Neutral	True
522.477	3.95	Control	0.6607	0.0	Yes	3.024	0.001	n/a	GoodResponse	0	n/a	n/a	8	55	Fixation	Neutral	True
526.422	0.2	Control	0.6607	0.004	Yes	3.024	-0.004	1.0	GoodResponse	0	0.179	525.601	8	55	Target	Neutral	True
526.601	0.3	Control	0.6607	0.004	Yes	3.024	-0.004	1.0	GoodResponse	0	0.179	n/a	8	55	ButtonPress	Neutral	True
526.623	0.5	Control	0.6607	n/a	Yes	3.024	n/a	n/a	GoodResponse	0	n/a	n/a	8	55	Blank	Neutral	True
527.124	1.45	Control	0.6607	n/a	Yes	3.024	n/a	5.0	GoodResponse	0	0.019	526.143	8	55	Feedback	Neutral	True
528.579	3.024	Control	0.6607	n/a	Yes	3.024	n/a	n/a	GoodResponse	0	0.0	n/a	8	55	ISIslide	Neutral	True
531.621	0.25	Control	0.6491	0.0	No	2.829	0.021	n/a	NoResponse	0	n/a	n/a	8	56	Cue	Neutral	True
531.872	3.95	Control	0.6491	0.0	No	2.829	0.001	n/a	NoResponse	0	n/a	n/a	8	56	Fixation	Neutral	True
535.817	0.2	Control	0.6491	0.004	No	2.829	-0.004	1.0	NoResponse	0	0.281	535.098	8	56	Target	Neutral	True
536.018	0.5	Control	0.6491	n/a	No	2.829	n/a	n/a	NoResponse	0	n/a	n/a	8	56	Blank	Neutral	True
536.098	0.3	Control	0.6491	0.004	No	2.829	-0.004	1.0	NoResponse	0	0.281	n/a	8	56	ButtonPress	Neutral	True
536.519	1.45	Control	0.6491	n/a	No	2.829	n/a	5.0	NoResponse	0	0.039	535.558	8	56	Feedback	Neutral	True
537.974	2.829	Control	0.6491	n/a	No	2.829	n/a	n/a	NoResponse	0	0.0	n/a	8	56	ISIslide	Neutral	True
540.815	0.25	Control	0.6379	0.001	No	3.485	0.015	n/a	NoResponse	0	n/a	n/a	8	57	Cue	Neutral	True
541.066	4.0	Control	0.6379	0.0	No	3.485	0.001	1.0	NoResponse	0	3.925	543.991	8	57	Fixation	Neutral	True
544.991	0.3	Control	0.6379	0.0	No	3.485	0.001	1.0	NoResponse	0	3.925	n/a	8	57	ButtonPress	Neutral	True
545.061	0.21	Control	0.6379	0.004	No	3.485	-0.004	n/a	NoResponse	0	n/a	n/a	8	57	Target	Neutral	True
545.279	0.49	Control	0.6379	n/a	No	3.485	n/a	n/a	NoResponse	0	n/a	n/a	8	57	Blank	Neutral	True
545.764	1.45	Control	0.6379	n/a	No	3.485	n/a	5.0	NoResponse	0	0.013	544.777	8	57	Feedback	Neutral	True
547.218	3.485	Control	0.6379	n/a	No	3.485	n/a	n/a	NoResponse	0	0.0	n/a	8	57	ISIslide	Neutral	True
550.728	0.25	Win2	0.6441	0.001	Yes	2.722	0.028	n/a	GoodResponse	1	n/a	n/a	9	58	Cue	Win	True
550.979	4.05	Win2	0.6441	0.0	Yes	2.722	0.001	n/a	GoodResponse	1	n/a	n/a	9	58	Fixation	Win	True
555.025	0.22	Win2	0.6441	0.003	Yes	2.722	-0.003	1.0	GoodResponse	1	0.216	554.241	9	58	Target	Win	True
555.241	0.3	Win2	0.6441	0.003	Yes	2.722	-0.003	1.0	GoodResponse	1	0.216	n/a	9	58	ButtonPress	Win	True
555.259	0.48	Win2	0.6441	n/a	Yes	2.722	n/a	n/a	GoodResponse	1	n/a	n/a	9	58	Blank	Win	True
555.727	1.45	Win2	0.6441	n/a	Yes	2.722	n/a	5.0	GoodResponse	1	0.004	554.731	9	58	Feedback	Win	True
557.181	2.722	Win2	0.6441	n/a	Yes	2.722	n/a	n/a	GoodResponse	1	0.0	n/a	9	58	ISIslide	Win	True
559.923	0.25	Lose2	0.6333	0.0	No	2.677	0.023	n/a	NoResponse	-1	n/a	n/a	8	59	Cue	Loss	True
560.173	4.0	Lose2	0.6333	0.001	No	2.677	0.0	n/a	NoResponse	-1	n/a	n/a	8	59	Fixation	Loss	True
564.169	0.23	Lose2	0.6333	0.004	No	2.677	-0.004	1.0	NoResponse	-1	0.28	563.449	8	59	Target	Loss	True
564.403	0.47	Lose2	0.6333	n/a	No	2.677	n/a	n/a	NoResponse	-1	n/a	n/a	8	59	Blank	Loss	True
564.449	0.3	Lose2	0.6333	0.004	No	2.677	-0.004	1.0	NoResponse	-1	0.28	n/a	8	59	ButtonPress	Loss	True
564.871	1.45	Lose2	0.6333	n/a	No	2.677	n/a	5.0	NoResponse	-1	0.028	563.899	8	59	Feedback	Loss	True
566.325	2.677	Lose2	0.6333	n/a	No	2.677	n/a	n/a	NoResponse	-1	0.0	n/a	8	59	ISIslide	Loss	True
569.017	0.25	Control	0.623	0.0	No	2.683	0.017	n/a	NoResponse	0	n/a	n/a	8	60	Cue	Neutral	True
569.267	4.0	Control	0.623	0.0	No	2.683	0.0	n/a	NoResponse	0	n/a	n/a	8	60	Fixation	Neutral	True
573.263	0.24	Control	0.623	0.004	No	2.683	-0.004	1.0	NoResponse	0	0.322	572.585	8	60	Target	Neutral	True
573.513	0.46	Control	0.623	n/a	No	2.683	n/a	n/a	NoResponse	0	n/a	n/a	8	60	Blank	Neutral	True
573.585	0.3	Control	0.623	0.004	No	2.683	-0.004	1.0	NoResponse	0	0.322	n/a	8	60	ButtonPress	Neutral	True
573.965	1.45	Control	0.623	n/a	No	2.683	n/a	5.0	NoResponse	0	0.007	572.972	8	60	Feedback	Neutral	True
575.419	2.683	Control	0.623	n/a	No	2.683	n/a	n/a	NoResponse	0	0.0	n/a	8	60	ISIslide	Neutral	True
578.127	0.25	Lose2	0.629	0.0	Yes	2.973	0.027	n/a	GoodResponse	0	n/a	n/a	8	61	Cue	AvoidedLoss	True
578.378	4.0	Lose2	0.629	0.0	Yes	2.973	0.001	n/a	GoodResponse	0	n/a	n/a	8	61	Fixation	AvoidedLoss	True
582.373	0.25	Lose2	0.629	0.004	Yes	2.973	-0.004	1.0	GoodResponse	0	0.192	581.565	8	61	Target	AvoidedLoss	True
582.565	0.3	Lose2	0.629	0.004	Yes	2.973	-0.004	1.0	GoodResponse	0	0.192	n/a	8	61	ButtonPress	AvoidedLoss	True
582.624	0.45	Lose2	0.629	n/a	Yes	2.973	n/a	n/a	GoodResponse	0	n/a	n/a	8	61	Blank	AvoidedLoss	True
583.075	1.45	Lose2	0.629	n/a	Yes	2.973	n/a	5.0	GoodResponse	0	0.019	582.094	8	61	Feedback	AvoidedLoss	True
584.53	2.973	Lose2	0.629	n/a	Yes	2.973	n/a	n/a	GoodResponse	0	0.0	n/a	8	61	ISIslide	AvoidedLoss	True
587.522	0.25	Lose2	0.6349	0.0	Yes	2.878	0.022	n/a	GoodResponse	0	n/a	n/a	8	62	Cue	AvoidedLoss	True
587.773	3.9	Lose2	0.6349	0.0	Yes	2.878	0.001	n/a	GoodResponse	0	n/a	n/a	8	62	Fixation	AvoidedLoss	True
591.668	0.26	Lose2	0.6349	0.004	Yes	2.878	-0.004	1.0	GoodResponse	0	0.254	590.922	8	62	Target	AvoidedLoss	True
591.922	0.3	Lose2	0.6349	0.004	Yes	2.878	-0.004	1.0	GoodResponse	0	0.254	n/a	8	62	ButtonPress	AvoidedLoss	True
591.935	0.44	Lose2	0.6349	n/a	Yes	2.878	n/a	n/a	GoodResponse	0	n/a	n/a	8	62	Blank	AvoidedLoss	True
592.37	1.45	Lose2	0.6349	n/a	Yes	2.878	n/a	5.0	GoodResponse	0	0.041	591.411	8	62	Feedback	AvoidedLoss	True
593.824	2.878	Lose2	0.6349	n/a	Yes	2.878	n/a	n/a	GoodResponse	0	0.0	n/a	8	62	ISIslide	AvoidedLoss	True
596.716	0.25	Lose2	0.6406000000000001	0.0	Yes	2.634	0.016	n/a	GoodResponse	0	n/a	n/a	8	63	Cue	AvoidedLoss	True
596.967	4.05	Lose2	0.6406000000000001	0.0	Yes	2.634	0.001	n/a	GoodResponse	0	n/a	n/a	8	63	Fixation	AvoidedLoss	True
601.012	0.27	Lose2	0.6406000000000001	0.004	Yes	2.634	-0.004	1.0	GoodResponse	0	0.197	600.209	8	63	Target	AvoidedLoss	True
601.209	0.3	Lose2	0.6406000000000001	0.004	Yes	2.634	-0.004	1.0	GoodResponse	0	0.197	n/a	8	63	ButtonPress	AvoidedLoss	True
601.297	0.43	Lose2	0.6406000000000001	n/a	Yes	2.634	n/a	n/a	GoodResponse	0	n/a	n/a	8	63	Blank	AvoidedLoss	True
601.715	1.45	Lose2	0.6406000000000001	n/a	Yes	2.634	n/a	5.0	GoodResponse	0	0.012	600.727	8	63	Feedback	AvoidedLoss	True
603.169	2.634	Lose2	0.6406000000000001	n/a	Yes	2.634	n/a	n/a	GoodResponse	0	0.0	n/a	8	63	ISIslide	AvoidedLoss	True
605.827	0.25	Win2	0.6462	0.0	Yes	3.123	0.027	n/a	GoodResponse	1	n/a	n/a	9	64	Cue	Win	True
606.078	4.15	Win2	0.6462	0.0	Yes	3.123	0.001	n/a	GoodResponse	1	n/a	n/a	9	64	Fixation	Win	True
610.223	0.28	Win2	0.6462	0.004	Yes	3.123	-0.004	1.0	GoodResponse	1	0.188	609.411	9	64	Target	Win	True
610.411	0.3	Win2	0.6462	0.004	Yes	3.123	-0.004	1.0	GoodResponse	1	0.188	n/a	9	64	ButtonPress	Win	True
610.508	0.42	Win2	0.6462	n/a	Yes	3.123	n/a	n/a	GoodResponse	1	n/a	n/a	9	64	Blank	Win	True
610.925	1.45	Win2	0.6462	n/a	Yes	3.123	n/a	5.0	GoodResponse	1	0.022	609.947	9	64	Feedback	Win	True
612.38	3.123	Win2	0.6462	n/a	Yes	3.123	n/a	n/a	GoodResponse	1	0.0	n/a	9	64	ISIslide	Win	True
615.523	0.25	Control	0.6515000000000001	0.0	Yes	2.777	0.023	n/a	GoodResponse	0	n/a	n/a	9	65	Cue	Neutral	True
615.773	4.0	Control	0.6515000000000001	0.0	Yes	2.777	0.0	n/a	GoodResponse	0	n/a	n/a	9	65	Fixation	Neutral	True
619.769	0.29	Control	0.6515000000000001	0.004	Yes	2.777	-0.004	1.0	GoodResponse	0	0.183	618.952	9	65	Target	Neutral	True
619.952	0.3	Control	0.6515000000000001	0.004	Yes	2.777	-0.004	1.0	GoodResponse	0	0.183	n/a	9	65	ButtonPress	Neutral	True
620.07	0.41	Control	0.6515000000000001	n/a	Yes	2.777	n/a	n/a	GoodResponse	0	n/a	n/a	9	65	Blank	Neutral	True
620.471	1.45	Control	0.6515000000000001	n/a	Yes	2.777	n/a	5.0	GoodResponse	0	0.037	619.508	9	65	Feedback	Neutral	True
621.925	2.777	Control	0.6515000000000001	n/a	Yes	2.777	n/a	n/a	GoodResponse	0	0.0	n/a	9	65	ISIslide	Neutral	True
624.717	0.25	Win2	0.6567000000000001	0.0	Yes	2.783	0.017	n/a	GoodResponse	1	n/a	n/a	10	66	Cue	Win	True
624.968	3.9	Win2	0.6567000000000001	0.0	Yes	2.783	0.001	n/a	GoodResponse	1	n/a	n/a	10	66	Fixation	Win	True
628.863	0.3	Win2	0.6567000000000001	0.004	Yes	2.783	-0.004	1.0	GoodResponse	1	0.216	628.079	10	66	Target	Win	True
629.079	0.3	Win2	0.6567000000000001	0.004	Yes	2.783	-0.004	1.0	GoodResponse	1	0.216	n/a	10	66	ButtonPress	Win	True
629.163	0.4	Win2	0.6567000000000001	n/a	Yes	2.783	n/a	n/a	GoodResponse	1	n/a	n/a	10	66	Blank	Win	True
629.565	1.45	Win2	0.6567000000000001	n/a	Yes	2.783	n/a	5.0	GoodResponse	1	0.016	628.581	10	66	Feedback	Win	True
631.019	2.783	Win2	0.6567000000000001	n/a	Yes	2.783	n/a	n/a	GoodResponse	1	0.0	n/a	10	66	ISIslide	Win	True
633.827	0.25	Control	0.6618	0.001	Yes	2.723	0.027	n/a	GoodResponse	0	n/a	n/a	10	67	Cue	Neutral	True
634.078	3.95	Control	0.6618	0.0	Yes	2.723	0.001	n/a	GoodResponse	0	n/a	n/a	10	67	Fixation	Neutral	True
638.023	0.3	Control	0.6618	0.004	Yes	2.723	-0.004	1.0	GoodResponse	0	0.246	637.269	10	67	Target	Neutral	True
638.269	0.3	Control	0.6618	0.004	Yes	2.723	-0.004	1.0	GoodResponse	0	0.246	n/a	10	67	ButtonPress	Neutral	True
638.324	0.4	Control	0.6618	n/a	Yes	2.723	n/a	n/a	GoodResponse	0	n/a	n/a	10	67	Blank	Neutral	True
638.725	1.45	Control	0.6618	n/a	Yes	2.723	n/a	5.0	GoodResponse	0	0.027	637.752	10	67	Feedback	Neutral	True
640.18	2.723	Control	0.6618	n/a	Yes	2.723	n/a	n/a	GoodResponse	0	0.0	n/a	10	67	ISIslide	Neutral	True
642.921	0.25	Win2	0.6667000000000001	0.0	Yes	3.079	0.021	n/a	GoodResponse	1	n/a	n/a	11	68	Cue	Win	True
643.172	4.0	Win2	0.6667000000000001	0.0	Yes	3.079	0.001	n/a	GoodResponse	1	n/a	n/a	11	68	Fixation	Win	True
647.167	0.3	Win2	0.6667000000000001	0.004	Yes	3.079	-0.004	1.0	GoodResponse	1	0.195	646.362	11	68	Target	Win	True
647.362	0.3	Win2	0.6667000000000001	0.004	Yes	3.079	-0.004	1.0	GoodResponse	1	0.195	n/a	11	68	ButtonPress	Win	True
647.468	0.4	Win2	0.6667000000000001	n/a	Yes	3.079	n/a	n/a	GoodResponse	1	n/a	n/a	11	68	Blank	Win	True
647.87	1.45	Win2	0.6667000000000001	n/a	Yes	3.079	n/a	5.0	GoodResponse	1	0.004	646.874	11	68	Feedback	Win	True
649.324	3.079	Win2	0.6667000000000001	n/a	Yes	3.079	n/a	n/a	GoodResponse	1	0.0	n/a	11	68	ISIslide	Win	True
652.417	0.25	Win2	0.6714	0.0	Yes	3.233	0.017	n/a	GoodResponse	1	n/a	n/a	12	69	Cue	Win	True
652.667	3.95	Win2	0.6714	0.0	Yes	3.233	0.0	n/a	GoodResponse	1	n/a	n/a	12	69	Fixation	Win	True
656.629	0.29	Win2	0.6714	0.0	Yes	3.233	0.012	1.0	GoodResponse	1	0.231	655.86	12	69	Target	Win	True
656.86	0.3	Win2	0.6714	0.0	Yes	3.233	0.012	1.0	GoodResponse	1	0.231	n/a	12	69	ButtonPress	Win	True
656.913	0.41	Win2	0.6714	n/a	Yes	3.233	n/a	n/a	GoodResponse	1	n/a	n/a	12	69	Blank	Win	True
657.315	1.45	Win2	0.6714	n/a	Yes	3.233	n/a	5.0	GoodResponse	1	0.022	656.337	12	69	Feedback	Win	True
658.769	3.233	Win2	0.6714	n/a	Yes	3.233	n/a	n/a	GoodResponse	1	0.0	n/a	12	69	ISIslide	Win	True
662.029	0.25	Lose2	0.6761	0.0	Yes	3.021	0.029	n/a	GoodResponse	0	n/a	n/a	12	70	Cue	AvoidedLoss	True
662.279	4.05	Lose2	0.6761	0.0	Yes	3.021	0.0	n/a	GoodResponse	0	n/a	n/a	12	70	Fixation	AvoidedLoss	True
666.325	0.28	Lose2	0.6761	0.004	Yes	3.021	-0.004	1.0	GoodResponse	0	0.264	665.589	12	70	Target	AvoidedLoss	True
666.589	0.3	Lose2	0.6761	0.004	Yes	3.021	-0.004	1.0	GoodResponse	0	0.264	n/a	12	70	ButtonPress	AvoidedLoss	True
666.609	0.42	Lose2	0.6761	n/a	Yes	3.021	n/a	n/a	GoodResponse	0	n/a	n/a	12	70	Blank	AvoidedLoss	True
667.027	1.45	Lose2	0.6761	n/a	Yes	3.021	n/a	5.0	GoodResponse	0	0.017	666.044	12	70	Feedback	AvoidedLoss	True
668.481	3.021	Lose2	0.6761	n/a	Yes	3.021	n/a	n/a	GoodResponse	0	0.0	n/a	12	70	ISIslide	AvoidedLoss	True
671.524	0.25	Win2	0.6806	0.0	Yes	2.726	0.024	n/a	GoodResponse	1	n/a	n/a	13	71	Cue	Win	True
671.775	4.05	Win2	0.6806	0.0	Yes	2.726	0.001	n/a	GoodResponse	1	n/a	n/a	13	71	Fixation	Win	True
675.82	0.27	Win2	0.6806	0.004	Yes	2.726	-0.004	1.0	GoodResponse	1	0.19	675.01	13	71	Target	Win	True
676.01	0.3	Win2	0.6806	0.004	Yes	2.726	-0.004	1.0	GoodResponse	1	0.19	n/a	13	71	ButtonPress	Win	True
676.104	0.43	Win2	0.6806	n/a	Yes	2.726	n/a	n/a	GoodResponse	1	n/a	n/a	13	71	Blank	Win	True
676.522	1.45	Win2	0.6806	n/a	Yes	2.726	n/a	5.0	GoodResponse	1	0.034	675.556	13	71	Feedback	Win	True
677.976	2.726	Win2	0.6806	n/a	Yes	2.726	n/a	n/a	GoodResponse	1	0.0	n/a	13	71	ISIslide	Win	True
680.718	0.25	Win2	0.6849	0.0	Yes	2.782	0.018	n/a	GoodResponse	1	n/a	n/a	14	72	Cue	Win	True
680.969	4.1	Win2	0.6849	0.0	Yes	2.782	0.001	n/a	GoodResponse	1	n/a	n/a	14	72	Fixation	Win	True
685.064	0.26	Win2	0.6849	0.004	Yes	2.782	-0.004	1.0	GoodResponse	1	0.194	684.258	14	72	Target	Win	True
685.258	0.3	Win2	0.6849	0.004	Yes	2.782	-0.004	1.0	GoodResponse	1	0.194	n/a	14	72	ButtonPress	Win	True
685.332	0.44	Win2	0.6849	n/a	Yes	2.782	n/a	n/a	GoodResponse	1	n/a	n/a	14	72	Blank	Win	True
685.766	1.45	Win2	0.6849	n/a	Yes	2.782	n/a	5.0	GoodResponse	1	0.01	684.776	14	72	Feedback	Win	True
687.221	2.782	Win2	0.6849	n/a	Yes	2.782	n/a	n/a	GoodResponse	1	0.0	n/a	14	72	ISIslide	Win	True
690.029	0.25	Win2	0.6757	0.0	No	2.671	0.029	n/a	NoResponse	0	n/a	n/a	14	73	Cue	MissedWin	True
690.28	4.0	Win2	0.6757	0.0	No	2.671	0.001	n/a	NoResponse	0	n/a	n/a	14	73	Fixation	MissedWin	True
694.275	0.25	Win2	0.6757	0.004	No	2.671	-0.004	1.0	NoResponse	0	0.274	693.549	14	73	Target	MissedWin	True
694.526	0.45	Win2	0.6757	n/a	No	2.671	n/a	n/a	NoResponse	0	n/a	n/a	14	73	Blank	MissedWin	True
694.549	0.3	Win2	0.6757	0.004	No	2.671	-0.004	1.0	NoResponse	0	0.274	n/a	14	73	ButtonPress	MissedWin	True
694.977	1.45	Win2	0.6757	n/a	No	2.671	n/a	5.0	NoResponse	0	0.019	693.996	14	73	Feedback	MissedWin	True
696.432	2.671	Win2	0.6757	n/a	No	2.671	n/a	n/a	NoResponse	0	0.0	n/a	14	73	ISIslide	MissedWin	True
699.123	0.25	Lose2	0.68	0.0	Yes	2.627	0.023	n/a	GoodResponse	0	n/a	n/a	14	74	Cue	AvoidedLoss	True
699.374	4.05	Lose2	0.68	0.0	Yes	2.627	0.001	n/a	GoodResponse	0	n/a	n/a	14	74	Fixation	AvoidedLoss	True
703.419	0.24	Lose2	0.68	0.004	Yes	2.627	-0.004	1.0	GoodResponse	0	0.232	702.651	14	74	Target	AvoidedLoss	True
703.651	0.3	Lose2	0.68	0.004	Yes	2.627	-0.004	1.0	GoodResponse	0	0.232	n/a	14	74	ButtonPress	AvoidedLoss	True
703.67	0.46	Lose2	0.68	n/a	Yes	2.627	n/a	n/a	GoodResponse	0	n/a	n/a	14	74	Blank	AvoidedLoss	True
704.121	1.45	Lose2	0.68	n/a	Yes	2.627	n/a	5.0	GoodResponse	0	0.046	703.167	14	74	Feedback	AvoidedLoss	True
705.576	2.627	Lose2	0.68	n/a	Yes	2.627	n/a	n/a	GoodResponse	0	0.0	n/a	14	74	ISIslide	AvoidedLoss	True
708.217	0.25	Lose2	0.6842	0.0	Yes	2.933	0.017	n/a	GoodResponse	0	n/a	n/a	14	75	Cue	AvoidedLoss	True
708.468	3.95	Lose2	0.6842	0.0	Yes	2.933	0.001	n/a	GoodResponse	0	n/a	n/a	14	75	Fixation	AvoidedLoss	True
712.413	0.23	Lose2	0.6842	0.004	Yes	2.933	-0.004	1.0	GoodResponse	0	0.199	711.612	14	75	Target	AvoidedLoss	True
712.612	0.3	Lose2	0.6842	0.004	Yes	2.933	-0.004	1.0	GoodResponse	0	0.199	n/a	14	75	ButtonPress	AvoidedLoss	True
712.647	0.47	Lose2	0.6842	n/a	Yes	2.933	n/a	n/a	GoodResponse	0	n/a	n/a	14	75	Blank	AvoidedLoss	True
713.115	1.45	Lose2	0.6842	n/a	Yes	2.933	n/a	5.0	GoodResponse	0	0.027	712.142	14	75	Feedback	AvoidedLoss	True
714.569	2.933	Lose2	0.6842	n/a	Yes	2.933	n/a	n/a	GoodResponse	0	0.0	n/a	14	75	ISIslide	AvoidedLoss	True
717.528	0.25	Control	0.6883	0.0	Yes	3.222	0.028	n/a	GoodResponse	0	n/a	n/a	14	76	Cue	Neutral	True
717.779	4.05	Control	0.6883	0.0	Yes	3.222	0.001	n/a	GoodResponse	0	n/a	n/a	14	76	Fixation	Neutral	True
721.824	0.22	Control	0.6883	0.004	Yes	3.222	-0.004	1.0	GoodResponse	0	0.196	721.02	14	76	Target	Neutral	True
722.02	0.3	Control	0.6883	0.004	Yes	3.222	-0.004	1.0	GoodResponse	0	0.196	n/a	14	76	ButtonPress	Neutral	True
722.059	0.48	Control	0.6883	n/a	Yes	3.222	n/a	n/a	GoodResponse	0	n/a	n/a	14	76	Blank	Neutral	True
722.527	1.45	Control	0.6883	n/a	Yes	3.222	n/a	5.0	GoodResponse	0	0.029	721.556	14	76	Feedback	Neutral	True
723.981	3.222	Control	0.6883	n/a	Yes	3.222	n/a	n/a	GoodResponse	0	0.0	n/a	14	76	ISIslide	Neutral	True
727.224	0.25	Lose2	0.6923	0.0	Yes	2.576	0.024	n/a	GoodResponse	0	n/a	n/a	14	77	Cue	AvoidedLoss	True
727.475	3.95	Lose2	0.6923	0.0	Yes	2.576	0.001	n/a	GoodResponse	0	n/a	n/a	14	77	Fixation	AvoidedLoss	True
731.42	0.21	Lose2	0.6923	0.004	Yes	2.576	-0.004	1.0	GoodResponse	0	0.191	730.611	14	77	Target	AvoidedLoss	True
731.611	0.3	Lose2	0.6923	0.004	Yes	2.576	-0.004	1.0	GoodResponse	0	0.191	n/a	14	77	ButtonPress	AvoidedLoss	True
731.637	0.49	Lose2	0.6923	n/a	Yes	2.576	n/a	n/a	GoodResponse	0	n/a	n/a	14	77	Blank	AvoidedLoss	True
732.122	1.45	Lose2	0.6923	n/a	Yes	2.576	n/a	5.0	GoodResponse	0	0.044	731.166	14	77	Feedback	AvoidedLoss	True
733.576	2.576	Lose2	0.6923	n/a	Yes	2.576	n/a	n/a	GoodResponse	0	0.0	n/a	14	77	ISIslide	AvoidedLoss	True
