onset	duration	cue_type	current_mean_accuracy	duration_error	is_hit	isi_adjusted	onset_delay	response	response_type	reward	rt	rt_time	total_reward	trial_number	trial_phase	trial_type	one_press
11.108	0.25	Control	1.0	0.0	Yes	2.942	0.008	n/a	GoodResponse	0	n/a	n/a	0	0	Cue	Neutral	False
11.358	3.85	Control	1.0	0.0	Yes	2.942	0.0	2.0	GoodResponse	0	0.553	10.911	0	0	Fixation	Neutral	False
11.911	0.3	Control	1.0	0.0	Yes	2.942	0.0	2.0	GoodResponse	0	0.553	n/a	0	0	ButtonPress	Neutral	False
15.207	0.4	Control	1.0	0.001	Yes	2.942	-0.001	2.0	GoodResponse	0	0.272	14.479	0	0	Target	Neutral	False
15.479	0.3	Control	1.0	0.001	Yes	2.942	-0.001	2.0	GoodResponse	0	0.272	n/a	0	0	ButtonPress	Neutral	False
15.607	0.3	Control	1.0	n/a	Yes	2.942	n/a	n/a	GoodResponse	0	n/a	n/a	0	0	Blank	Neutral	False
15.907	1.45	Control	1.0	n/a	Yes	2.942	n/a	5.0	GoodResponse	0	0.021	14.928	0	0	Feedback	Neutral	False
17.356	2.942	Control	1.0	n/a	Yes	2.942	n/a	n/a	GoodResponse	0	0.0	n/a	0	0	ISIslide	Neutral	False
20.388	0.25	Lose2	1.0	0.0	Yes	2.712	0.088	n/a	GoodResponse	0	n/a	n/a	0	1	Cue	AvoidedLoss	True
20.638	4.0	Lose2	1.0	0.0	Yes	2.712	0.0	n/a	GoodResponse	0	n/a	n/a	0	1	Fixation	AvoidedLoss	True
24.637	0.39	Lose2	1.0	0.001	Yes	2.712	-0.001	2.0	GoodResponse	0	0.25	23.887	0	1	Target	AvoidedLoss	True
24.887	0.3	Lose2	1.0	0.001	Yes	2.712	-0.001	2.0	GoodResponse	0	0.25	n/a	0	1	ButtonPress	AvoidedLoss	True
25.037	0.31	Lose2	1.0	n/a	Yes	2.712	n/a	n/a	GoodResponse	0	n/a	n/a	0	1	Blank	AvoidedLoss	True
25.336	1.45	Lose2	1.0	n/a	Yes	2.712	n/a	5.0	GoodResponse	0	0.008	24.344	0	1	Feedback	AvoidedLoss	True
26.786	2.712	Lose2	1.0	n/a	Yes	2.712	n/a	n/a	GoodResponse	0	0.0	n/a	0	1	ISIslide	AvoidedLoss	True
29.518	0.25	Control	1.0	0.0	Yes	2.582	0.018	n/a	GoodResponse	0	n/a	n/a	0	2	Cue	Neutral	True
29.768	4.1	Control	1.0	0.0	Yes	2.582	0.0	n/a	GoodResponse	0	n/a	n/a	0	2	Fixation	Neutral	True
33.867	0.38	Control	1.0	0.001	Yes	2.582	-0.001	2.0	GoodResponse	0	0.218	33.085	0	2	Target	Neutral	True
34.085	0.3	Control	1.0	0.001	Yes	2.582	-0.001	2.0	GoodResponse	0	0.218	n/a	0	2	ButtonPress	Neutral	True
34.25	0.32	Control	1.0	n/a	Yes	2.582	n/a	n/a	GoodResponse	0	n/a	n/a	0	2	Blank	Neutral	True
34.567	1.45	Control	1.0	n/a	Yes	2.582	n/a	5.0	GoodResponse	0	0.045	33.612	0	2	Feedback	Neutral	True
36.016	2.582	Control	1.0	n/a	Yes	2.582	n/a	n/a	GoodResponse	0	0.0	n/a	0	2	ISIslide	Neutral	True
38.682	0.25	Win2	1.0	0.0	Yes	2.768	0.082	n/a	GoodResponse	1	n/a	n/a	1	3	Cue	Win	True
38.932	3.95	Win2	1.0	0.0	Yes	2.768	0.0	n/a	GoodResponse	1	n/a	n/a	1	3	Fixation	Win	True
42.88	0.37	Win2	1.0	0.002	Yes	2.768	-0.002	2.0	GoodResponse	1	0.23	42.11	1	3	Target	Win	True
43.11	0.3	Win2	1.0	0.002	Yes	2.768	-0.002	2.0	GoodResponse	1	0.23	n/a	1	3	ButtonPress	Win	True
43.263	0.33	Win2	1.0	n/a	Yes	2.768	n/a	n/a	GoodResponse	1	n/a	n/a	1	3	Blank	Win	True
43.58	1.45	Win2	1.0	n/a	Yes	2.768	n/a	5.0	GoodResponse	1	0.008	42.588	1	3	Feedback	Win	True
45.029	2.768	Win2	1.0	n/a	Yes	2.768	n/a	n/a	GoodResponse	1	0.0	n/a	1	3	ISIslide	Win	True
47.829	0.25	Win2	1.0	0.0	Yes	3.271	0.029	n/a	GoodResponse	1	n/a	n/a	2	4	Cue	Win	True
48.078	4.0	Win2	1.0	0.001	Yes	3.271	-0.001	n/a	GoodResponse	1	n/a	n/a	2	4	Fixation	Win	True
52.077	0.36	Win2	1.0	0.002	Yes	3.271	-0.002	2.0	GoodResponse	1	0.223	51.3	2	4	Target	Win	True
52.3	0.3	Win2	1.0	0.002	Yes	3.271	-0.002	2.0	GoodResponse	1	0.223	n/a	2	4	ButtonPress	Win	True
52.444	0.34	Win2	1.0	n/a	Yes	3.271	n/a	n/a	GoodResponse	1	n/a	n/a	2	4	Blank	Win	True
52.777	1.45	Win2	1.0	n/a	Yes	3.271	n/a	5.0	GoodResponse	1	0.029	51.806	2	4	Feedback	Win	True
54.226	3.271	Win2	1.0	n/a	Yes	3.271	n/a	n/a	GoodResponse	1	0.0	n/a	2	4	ISIslide	Win	True
57.525	0.25	Win2	1.0	0.0	Yes	2.775	0.025	n/a	GoodResponse	1	n/a	n/a	3	5	Cue	Win	True
57.775	4.0	Win2	1.0	0.0	Yes	2.775	0.0	n/a	GoodResponse	1	n/a	n/a	3	5	Fixation	Win	True
61.774	0.35	Win2	1.0	0.001	Yes	2.775	-0.001	2.0	GoodResponse	1	0.243	61.017	3	5	Target	Win	True
62.017	0.3	Win2	1.0	0.001	Yes	2.775	-0.001	2.0	GoodResponse	1	0.243	n/a	3	5	ButtonPress	Win	True
62.123	0.35	Win2	1.0	n/a	Yes	2.775	n/a	n/a	GoodResponse	1	n/a	n/a	3	5	Blank	Win	True
62.473	1.45	Win2	1.0	n/a	Yes	2.775	n/a	5.0	GoodResponse	1	0.04	61.513	3	5	Feedback	Win	True
63.923	2.775	Win2	1.0	n/a	Yes	2.775	n/a	n/a	GoodResponse	1	0.0	n/a	3	5	ISIslide	Win	True
66.722	0.25	Lose2	1.0	0.0	Yes	2.728	0.022	n/a	GoodResponse	0	n/a	n/a	3	6	Cue	AvoidedLoss	True
66.972	3.95	Lose2	1.0	0.0	Yes	2.728	0.0	n/a	GoodResponse	0	n/a	n/a	3	6	Fixation	AvoidedLoss	True
70.92	0.34	Lose2	1.0	0.002	Yes	2.728	-0.002	2.0	GoodResponse	0	0.225	70.145	3	6	Target	AvoidedLoss	True
71.145	0.3	Lose2	1.0	0.002	Yes	2.728	-0.002	2.0	GoodResponse	0	0.225	n/a	3	6	ButtonPress	AvoidedLoss	True
71.27	0.36	Lose2	1.0	n/a	Yes	2.728	n/a	n/a	GoodResponse	0	n/a	n/a	3	6	Blank	AvoidedLoss	True
71.62	1.45	Lose2	1.0	n/a	Yes	2.728	n/a	5.0	GoodResponse	0	0.015	70.635	3	6	Feedback	AvoidedLoss	True
73.07	2.728	Lose2	1.0	n/a	Yes	2.728	n/a	n/a	GoodResponse	0	0.0	n/a	3	6	ISIslide	AvoidedLoss	True
75.819	0.25	Lose2	1.0	0.0	Yes	4.031	0.019	n/a	GoodResponse	0	n/a	n/a	3	7	Cue	AvoidedLoss	True
76.068	4.05	Lose2	1.0	0.001	Yes	4.031	-0.001	n/a	GoodResponse	0	n/a	n/a	3	7	Fixation	AvoidedLoss	True
80.117	0.33	Lose2	1.0	0.002	Yes	4.031	-0.002	2.0	GoodResponse	0	0.214	79.331	3	7	Target	AvoidedLoss	True
80.331	0.3	Lose2	1.0	0.002	Yes	4.031	-0.002	2.0	GoodResponse	0	0.214	n/a	3	7	ButtonPress	AvoidedLoss	True
80.45	0.37	Lose2	1.0	n/a	Yes	4.031	n/a	n/a	GoodResponse	0	n/a	n/a	3	7	Blank	AvoidedLoss	True
80.817	1.45	Lose2	1.0	n/a	Yes	4.031	n/a	5.0	GoodResponse	0	0.037	79.854	3	7	Feedback	AvoidedLoss	True
82.266	4.031	Lose2	1.0	n/a	Yes	4.031	n/a	n/a	GoodResponse	0	0.0	n/a	3	7	ISIslide	AvoidedLoss	True
86.315	0.25	Lose2	1.0	0.0	Yes	3.035	0.015	n/a	GoodResponse	0	n/a	n/a	3	8	Cue	AvoidedLoss	True
86.565	3.95	Lose2	1.0	0.0	Yes	3.035	0.0	n/a	GoodResponse	0	n/a	n/a	3	8	Fixation	AvoidedLoss	True
90.513	0.32	Lose2	1.0	0.002	Yes	3.035	-0.002	2.0	GoodResponse	0	0.203	89.716	3	8	Target	AvoidedLoss	True
90.716	0.3	Lose2	1.0	0.002	Yes	3.035	-0.002	2.0	GoodResponse	0	0.203	n/a	3	8	ButtonPress	AvoidedLoss	True
90.847	0.38	Lose2	1.0	n/a	Yes	3.035	n/a	n/a	GoodResponse	0	n/a	n/a	3	8	Blank	AvoidedLoss	True
91.213	1.45	Lose2	1.0	n/a	Yes	3.035	n/a	5.0	GoodResponse	0	0.031	90.244	3	8	Feedback	AvoidedLoss	True
92.663	3.035	Lose2	1.0	n/a	Yes	3.035	n/a	n/a	GoodResponse	0	0.0	n/a	3	8	ISIslide	AvoidedLoss	True
95.728	0.25	Lose2	1.0	0.0	Yes	3.122	0.028	n/a	GoodResponse	0	n/a	n/a	3	9	Cue	AvoidedLoss	True
95.978	3.95	Lose2	1.0	0.0	Yes	3.122	0.0	n/a	GoodResponse	0	n/a	n/a	3	9	Fixation	AvoidedLoss	True
99.927	0.31	Lose2	1.0	0.001	Yes	3.122	-0.001	2.0	GoodResponse	0	0.221	99.148	3	9	Target	AvoidedLoss	True
100.148	0.3	Lose2	1.0	0.001	Yes	3.122	-0.001	2.0	GoodResponse	0	0.221	n/a	3	9	ButtonPress	AvoidedLoss	True
100.243	0.39	Lose2	1.0	n/a	Yes	3.122	n/a	n/a	GoodResponse	0	n/a	n/a	3	9	Blank	AvoidedLoss	True
100.626	1.45	Lose2	1.0	n/a	Yes	3.122	n/a	5.0	GoodResponse	0	0.033	99.659	3	9	Feedback	AvoidedLoss	True
102.076	3.122	Lose2	1.0	n/a	Yes	3.122	n/a	n/a	GoodResponse	0	0.0	n/a	3	9	ISIslide	AvoidedLoss	True
105.225	0.25	Control	1.0	0.0	Yes	3.275	0.025	n/a	GoodResponse	0	n/a	n/a	3	10	Cue	Neutral	True
105.475	4.0	Control	1.0	0.0	Yes	3.275	0.0	n/a	GoodResponse	0	n/a	n/a	3	10	Fixation	Neutral	True
109.473	0.3	Control	1.0	0.002	Yes	3.275	-0.002	2.0	GoodResponse	0	0.243	108.716	3	10	Target	Neutral	True
109.716	0.3	Control	1.0	0.002	Yes	3.275	-0.002	2.0	GoodResponse	0	0.243	n/a	3	10	ButtonPress	Neutral	True
109.773	0.4	Control	1.0	n/a	Yes	3.275	n/a	n/a	GoodResponse	0	n/a	n/a	3	10	Blank	Neutral	True
110.173	1.45	Control	1.0	n/a	Yes	3.275	n/a	5.0	GoodResponse	0	0.047	109.22	3	10	Feedback	Neutral	True
111.622	3.275	Control	1.0	n/a	Yes	3.275	n/a	n/a	GoodResponse	0	0.0	n/a	3	10	ISIslide	Neutral	True
114.921	0.25	Lose2	1.0	0.0	Yes	2.729	0.021	n/a	GoodResponse	0	n/a	n/a	3	11	Cue	AvoidedLoss	True
115.171	4.05	Lose2	1.0	0.0	Yes	2.729	0.0	n/a	GoodResponse	0	n/a	n/a	3	11	Fixation	AvoidedLoss	True
119.22	0.29	Lose2	1.0	0.001	Yes	2.729	-0.001	2.0	GoodResponse	0	0.24	118.46	3	11	Target	AvoidedLoss	True
119.46	0.3	Lose2	1.0	0.001	Yes	2.729	-0.001	2.0	GoodResponse	0	0.24	n/a	3	11	ButtonPress	AvoidedLoss	True
119.52	0.41	Lose2	1.0	n/a	Yes	2.729	n/a	n/a	GoodResponse	0	n/a	n/a	3	11	Blank	AvoidedLoss	True
119.92	1.45	Lose2	1.0	n/a	Yes	2.729	n/a	5.0	GoodResponse	0	0.007	118.927	3	11	Feedback	AvoidedLoss	True
121.369	2.729	Lose2	1.0	n/a	Yes	2.729	n/a	n/a	GoodResponse	0	0.0	n/a	3	11	ISIslide	AvoidedLoss	True
124.118	0.25	Control	1.0	0.0	Yes	2.982	0.018	n/a	GoodResponse	0	n/a	n/a	3	12	Cue	Neutral	True
124.368	3.9	Control	1.0	0.0	Yes	2.982	0.0	n/a	GoodResponse	0	n/a	n/a	3	12	Fixation	Neutral	True
128.267	0.28	Control	1.0	0.001	Yes	2.982	-0.001	2.0	GoodResponse	0	0.254	127.521	3	12	Target	Neutral	True
128.521	0.3	Control	1.0	0.001	Yes	2.982	-0.001	2.0	GoodResponse	0	0.254	n/a	3	12	ButtonPress	Neutral	True
128.55	0.42	Control	1.0	n/a	Yes	2.982	n/a	n/a	GoodResponse	0	n/a	n/a	3	12	Blank	Neutral	True
128.966	1.45	Control	1.0	n/a	Yes	2.982	n/a	5.0	GoodResponse	0	0.034	128.0	3	12	Feedback	Neutral	True
130.416	2.982	Control	1.0	n/a	Yes	2.982	n/a	n/a	GoodResponse	0	0.0	n/a	3	12	ISIslide	Neutral	True
133.415	0.25	Control	1.0	0.0	Yes	2.785	0.015	n/a	GoodResponse	0	n/a	n/a	3	13	Cue	Neutral	True
133.665	4.0	Control	1.0	0.0	Yes	2.785	0.0	n/a	GoodResponse	0	n/a	n/a	3	13	Fixation	Neutral	True
137.663	0.27	Control	1.0	0.002	Yes	2.785	-0.002	2.0	GoodResponse	0	0.23	136.893	3	13	Target	Neutral	True
137.893	0.3	Control	1.0	0.002	Yes	2.785	-0.002	2.0	GoodResponse	0	0.23	n/a	3	13	ButtonPress	Neutral	True
137.946	0.43	Control	1.0	n/a	Yes	2.785	n/a	n/a	GoodResponse	0	n/a	n/a	3	13	Blank	Neutral	True
138.363	1.45	Control	1.0	n/a	Yes	2.785	n/a	5.0	GoodResponse	0	0.008	137.371	3	13	Feedback	Neutral	True
139.812	2.785	Control	1.0	n/a	Yes	2.785	n/a	n/a	GoodResponse	0	0.0	n/a	3	13	ISIslide	Neutral	True
142.628	0.25	Win2	1.0	0.0	Yes	2.672	0.028	n/a	GoodResponse	1	n/a	n/a	4	14	Cue	Win	True
142.878	4.1	Win2	1.0	0.0	Yes	2.672	0.0	n/a	GoodResponse	1	n/a	n/a	4	14	Fixation	Win	True
146.977	0.26	Win2	1.0	0.001	Yes	2.672	-0.001	2.0	GoodResponse	1	0.224	146.201	4	14	Target	Win	True
147.201	0.3	Win2	1.0	0.001	Yes	2.672	-0.001	2.0	GoodResponse	1	0.224	n/a	4	14	ButtonPress	Win	True
147.243	0.44	Win2	1.0	n/a	Yes	2.672	n/a	n/a	GoodResponse	1	n/a	n/a	4	14	Blank	Win	True
147.676	1.45	Win2	1.0	n/a	Yes	2.672	n/a	5.0	GoodResponse	1	0.008	146.684	4	14	Feedback	Win	True
149.126	2.672	Win2	1.0	n/a	Yes	2.672	n/a	n/a	GoodResponse	1	0.0	n/a	4	14	ISIslide	Win	True
151.825	0.25	Control	0.9375	0.0	No	2.975	0.025	n/a	NoResponse	0	n/a	n/a	4	15	Cue	Neutral	True
152.075	4.0	Control	0.9375	0.0	No	2.975	0.0	n/a	NoResponse	0	n/a	n/a	4	15	Fixation	Neutral	True
156.073	0.25	Control	0.9375	0.002	No	2.975	-0.002	2.0	NoResponse	0	0.281	155.354	4	15	Target	Neutral	True
156.323	0.45	Control	0.9375	n/a	No	2.975	n/a	n/a	NoResponse	0	n/a	n/a	4	15	Blank	Neutral	True
156.354	0.3	Control	0.9375	0.002	No	2.975	-0.002	2.0	NoResponse	0	0.281	n/a	4	15	ButtonPress	Neutral	True
156.773	1.45	Control	0.9375	n/a	No	2.975	n/a	5.0	NoResponse	0	0.031	155.804	4	15	Feedback	Neutral	True
158.223	2.975	Control	0.9375	n/a	No	2.975	n/a	n/a	NoResponse	0	0.0	n/a	4	15	ISIslide	Neutral	True
161.222	0.25	Win2	0.9412	0.0	Yes	2.878	0.022	n/a	GoodResponse	1	n/a	n/a	5	16	Cue	Win	True
161.471	4.0	Win2	0.9412	0.001	Yes	2.878	-0.001	n/a	GoodResponse	1	n/a	n/a	5	16	Fixation	Win	True
165.47	0.24	Win2	0.9412	0.002	Yes	2.878	-0.002	2.0	GoodResponse	1	0.203	164.673	5	16	Target	Win	True
165.673	0.3	Win2	0.9412	0.002	Yes	2.878	-0.002	2.0	GoodResponse	1	0.203	n/a	5	16	ButtonPress	Win	True
165.72	0.46	Win2	0.9412	n/a	Yes	2.878	n/a	n/a	GoodResponse	1	n/a	n/a	5	16	Blank	Win	True
166.17	1.45	Win2	0.9412	n/a	Yes	2.878	n/a	5.0	GoodResponse	1	0.0	165.17	5	16	Feedback	Win	True
167.619	2.878	Win2	0.9412	n/a	Yes	2.878	n/a	n/a	GoodResponse	1	0.0	n/a	5	16	ISIslide	Win	True
170.518	0.25	Lose2	0.9444	0.0	Yes	2.732	0.018	n/a	GoodResponse	0	n/a	n/a	5	17	Cue	AvoidedLoss	True
170.768	3.95	Lose2	0.9444	0.0	Yes	2.732	0.0	n/a	GoodResponse	0	n/a	n/a	5	17	Fixation	AvoidedLoss	True
174.717	0.23	Lose2	0.9444	0.001	Yes	2.732	-0.001	2.0	GoodResponse	0	0.221	173.938	5	17	Target	AvoidedLoss	True
174.938	0.3	Lose2	0.9444	0.001	Yes	2.732	-0.001	2.0	GoodResponse	0	0.221	n/a	5	17	ButtonPress	AvoidedLoss	True
174.95	0.47	Lose2	0.9444	n/a	Yes	2.732	n/a	n/a	GoodResponse	0	n/a	n/a	5	17	Blank	AvoidedLoss	True
175.416	1.45	Lose2	0.9444	n/a	Yes	2.732	n/a	5.0	GoodResponse	0	0.023	174.439	5	17	Feedback	AvoidedLoss	True
176.866	2.732	Lose2	0.9444	n/a	Yes	2.732	n/a	n/a	GoodResponse	0	0.0	n/a	5	17	ISIslide	AvoidedLoss	True
179.615	0.25	Lose2	0.8946999999999999	0.0	No	2.735	0.015	n/a	LatePress	-1	n/a	n/a	4	18	Cue	Loss	True
179.865	4.05	Lose2	0.8946999999999999	0.0	No	2.735	0.0	n/a	LatePress	-1	n/a	n/a	4	18	Fixation	Loss	True
183.913	0.22	Lose2	0.8946999999999999	0.002	No	2.735	-0.002	2.0	LatePress	-1	0.223	183.136	4	18	Target	Loss	True
184.136	0.3	Lose2	0.8946999999999999	0.002	No	2.735	-0.002	2.0	LatePress	-1	0.223	n/a	4	18	ButtonPress	Loss	True
184.147	0.48	Lose2	0.8946999999999999	n/a	No	2.735	n/a	n/a	LatePress	-1	n/a	n/a	4	18	Blank	Loss	True
184.613	1.45	Lose2	0.8946999999999999	n/a	No	2.735	n/a	5.0	LatePress	-1	0.045	183.658	4	18	Feedback	Loss	True
186.063	2.735	Lose2	0.8946999999999999	n/a	No	2.735	n/a	n/a	LatePress	-1	0.0	n/a	4	18	ISIslide	Loss	True
188.828	0.25	Control	0.85	0.0	No	2.922	0.028	n/a	NoResponse	0	n/a	n/a	4	19	Cue	Neutral	True
189.078	3.95	Control	0.85	0.0	No	2.922	0.0	n/a	NoResponse	0	n/a	n/a	4	19	Fixation	Neutral	True
193.027	0.21	Control	0.85	0.001	No	2.922	-0.001	2.0	NoResponse	0	0.252	192.279	4	19	Target	Neutral	True
193.243	0.49	Control	0.85	n/a	No	2.922	n/a	n/a	NoResponse	0	n/a	n/a	4	19	Blank	Neutral	True
193.279	0.3	Control	0.85	0.001	No	2.922	-0.001	2.0	NoResponse	0	0.252	n/a	4	19	ButtonPress	Neutral	True
193.727	1.45	Control	0.85	n/a	No	2.922	n/a	5.0	NoResponse	0	0.006	192.733	4	19	Feedback	Neutral	True
195.176	2.922	Control	0.85	n/a	No	2.922	n/a	n/a	NoResponse	0	0.0	n/a	4	19	ISIslide	Neutral	True
198.125	0.25	Control	0.8095	0.0	No	2.625	0.025	n/a	NoResponse	0	n/a	n/a	4	20	Cue	Neutral	True
198.375	4.05	Control	0.8095	0.0	No	2.625	0.0	n/a	NoResponse	0	n/a	n/a	4	20	Fixation	Neutral	True
202.424	0.2	Control	0.8095	0.001	No	2.625	-0.001	2.0	NoResponse	0	0.266	201.69	4	20	Target	Neutral	True
202.623	0.5	Control	0.8095	n/a	No	2.625	n/a	n/a	NoResponse	0	n/a	n/a	4	20	Blank	Neutral	True
202.69	0.3	Control	0.8095	0.001	No	2.625	-0.001	2.0	NoResponse	0	0.266	n/a	4	20	ButtonPress	Neutral	True
203.123	1.45	Control	0.8095	n/a	No	2.625	n/a	5.0	NoResponse	0	0.022	202.145	4	20	Feedback	Neutral	True
204.573	2.625	Control	0.8095	n/a	No	2.625	n/a	n/a	NoResponse	0	0.0	n/a	4	20	ISIslide	Neutral	True
207.222	0.25	Control	0.7726999999999999	0.0	No	2.778	0.022	n/a	NoResponse	0	n/a	n/a	4	21	Cue	Neutral	True
207.472	4.1	Control	0.7726999999999999	0.0	No	2.778	0.0	n/a	NoResponse	0	n/a	n/a	4	21	Fixation	Neutral	True
211.57	0.19	Control	0.7726999999999999	0.002	No	2.778	-0.002	2.0	NoResponse	0	0.244	210.814	4	21	Target	Neutral	True
211.77	0.51	Control	0.7726999999999999	n/a	No	2.778	n/a	n/a	NoResponse	0	n/a	n/a	4	21	Blank	Neutral	True
211.814	0.3	Control	0.7726999999999999	0.002	No	2.778	-0.002	2.0	NoResponse	0	0.244	n/a	4	21	ButtonPress	Neutral	True
212.27	1.45	Control	0.7726999999999999	n/a	No	2.778	n/a	5.0	NoResponse	0	0.046	211.316	4	21	Feedback	Neutral	True
213.719	2.778	Control	0.7726999999999999	n/a	No	2.778	n/a	n/a	NoResponse	0	0.0	n/a	4	21	ISIslide	Neutral	True
216.519	0.25	Control	0.7391	0.0	No	2.781	0.019	n/a	NoResponse	0	n/a	n/a	4	22	Cue	Neutral	True
216.768	4.0	Control	0.7391	0.001	No	2.781	-0.001	n/a	NoResponse	0	n/a	n/a	4	22	Fixation	Neutral	True
220.767	0.18	Control	0.7391	0.002	No	2.781	-0.002	2.0	NoResponse	0	0.273	220.04	4	22	Target	Neutral	True
220.95	0.52	Control	0.7391	n/a	No	2.781	n/a	n/a	NoResponse	0	n/a	n/a	4	22	Blank	Neutral	True
221.04	0.3	Control	0.7391	0.002	No	2.781	-0.002	2.0	NoResponse	0	0.273	n/a	4	22	ButtonPress	Neutral	True
221.467	1.45	Control	0.7391	n/a	No	2.781	n/a	5.0	NoResponse	0	0.02	220.487	4	22	Feedback	Neutral	True
222.916	2.781	Control	0.7391	n/a	No	2.781	n/a	n/a	NoResponse	0	0.0	n/a	4	22	ISIslide	Neutral	True
225.715	0.25	Control	0.7082999999999999	0.0	No	2.785	0.015	n/a	NoResponse	0	n/a	n/a	4	23	Cue	Neutral	True
225.965	3.9	Control	0.7082999999999999	0.0	No	2.785	0.0	2.0	NoResponse	0	3.584	228.549	4	23	Fixation	Neutral	True
229.549	0.3	Control	0.7082999999999999	0.0	No	2.785	0.0	2.0	NoResponse	0	3.584	n/a	4	23	ButtonPress	Neutral	True
229.864	0.17	Control	0.7082999999999999	0.001	No	2.785	-0.001	n/a	NoResponse	0	n/a	n/a	4	23	Target	Neutral	True
230.03	0.53	Control	0.7082999999999999	n/a	No	2.785	n/a	n/a	NoResponse	0	n/a	n/a	4	23	Blank	Neutral	True
230.564	1.45	Control	0.7082999999999999	n/a	No	2.785	n/a	5.0	NoResponse	0	0.044	229.608	4	23	Feedback	Neutral	True
232.013	2.785	Control	0.7082999999999999	n/a	No	2.785	n/a	n/a	NoResponse	0	0.0	n/a	4	23	ISIslide	Neutral	True
234.829	0.25	Win2	0.68	0.0	No	3.121	0.029	n/a	NoResponse	0	n/a	n/a	4	24	Cue	MissedWin	True
235.079	3.95	Win2	0.68	0.0	No	3.121	0.0	n/a	NoResponse	0	n/a	n/a	4	24	Fixation	MissedWin	True
239.027	0.16	Win2	0.68	0.002	No	3.121	-0.002	2.0	NoResponse	0	0.213	238.24	4	24	Target	MissedWin	True
239.194	0.54	Win2	0.68	n/a	No	3.121	n/a	n/a	NoResponse	0	n/a	n/a	4	24	Blank	MissedWin	True
239.24	0.3	Win2	0.68	0.002	No	3.121	-0.002	2.0	NoResponse	0	0.213	n/a	4	24	ButtonPress	MissedWin	True
239.727	1.45	Win2	0.68	n/a	No	3.121	n/a	5.0	NoResponse	0	0.007	238.734	4	24	Feedback	MissedWin	True
241.176	3.121	Win2	0.68	n/a	No	3.121	n/a	n/a	NoResponse	0	0.0	n/a	4	24	ISIslide	MissedWin	True
244.325	0.25	Win2	0.6537999999999999	0.0	No	3.075	0.025	n/a	NoResponse	0	n/a	n/a	4	25	Cue	MissedWin	True
244.575	4.0	Win2	0.6537999999999999	0.0	No	3.075	0.0	n/a	NoResponse	0	n/a	n/a	4	25	Fixation	MissedWin	True
248.574	0.15	Win2	0.6537999999999999	0.001	No	3.075	-0.001	2.0	NoResponse	0	0.262	247.836	4	25	Target	MissedWin	True
248.724	0.55	Win2	0.6537999999999999	n/a	No	3.075	n/a	n/a	NoResponse	0	n/a	n/a	4	25	Blank	MissedWin	True
248.836	0.3	Win2	0.6537999999999999	0.001	No	3.075	-0.001	2.0	NoResponse	0	0.262	n/a	4	25	ButtonPress	MissedWin	True
249.274	1.45	Win2	0.6537999999999999	n/a	No	3.075	n/a	5.0	NoResponse	0	0.017	248.291	4	25	Feedback	MissedWin	True
250.723	3.075	Win2	0.6537999999999999	n/a	No	3.075	n/a	n/a	NoResponse	0	0.0	n/a	4	25	ISIslide	MissedWin	True
253.822	0.25	Win2	0.6296	0.0	No	2.928	0.022	n/a	NoResponse	0	n/a	n/a	4	26	Cue	MissedWin	True
254.072	3.95	Win2	0.6296	0.0	No	2.928	0.0	n/a	NoResponse	0	n/a	n/a	4	26	Fixation	MissedWin	True
258.02	0.16	Win2	0.6296	0.002	No	2.928	-0.002	2.0	NoResponse	0	0.192	257.212	4	26	Target	MissedWin	True
258.187	0.54	Win2	0.6296	n/a	No	2.928	n/a	n/a	NoResponse	0	n/a	n/a	4	26	Blank	MissedWin	True
258.212	0.3	Win2	0.6296	0.002	No	2.928	-0.002	2.0	NoResponse	0	0.192	n/a	4	26	ButtonPress	MissedWin	True
258.72	1.45	Win2	0.6296	n/a	No	2.928	n/a	5.0	NoResponse	0	0.035	257.755	4	26	Feedback	MissedWin	True
260.17	2.928	Win2	0.6296	n/a	No	2.928	n/a	n/a	NoResponse	0	0.0	n/a	4	26	ISIslide	MissedWin	True
263.119	0.25	Lose2	0.6071	0.0	No	2.831	0.019	n/a	NoResponse	-1	n/a	n/a	3	27	Cue	Loss	True
263.369	4.05	Lose2	0.6071	0.0	No	2.831	0.0	n/a	NoResponse	-1	n/a	n/a	3	27	Fixation	Loss	True
267.417	0.17	Lose2	0.6071	0.002	No	2.831	-0.002	2.0	NoResponse	-1	0.196	266.613	3	27	Target	Loss	True
267.6	0.53	Lose2	0.6071	n/a	No	2.831	n/a	n/a	NoResponse	-1	n/a	n/a	3	27	Blank	Loss	True
267.613	0.3	Lose2	0.6071	0.002	No	2.831	-0.002	2.0	NoResponse	-1	0.196	n/a	3	27	ButtonPress	Loss	True
268.117	1.45	Lose2	0.6071	n/a	No	2.831	n/a	5.0	NoResponse	-1	0.008	267.125	3	27	Feedback	Loss	True
269.566	2.831	Lose2	0.6071	n/a	No	2.831	n/a	n/a	NoResponse	-1	0.0	n/a	3	27	ISIslide	Loss	True
272.415	0.25	Control	0.5861999999999999	0.0	No	2.835	0.015	n/a	NoResponse	0	n/a	n/a	3	28	Cue	Neutral	True
272.665	4.05	Control	0.5861999999999999	0.0	No	2.835	0.0	n/a	NoResponse	0	n/a	n/a	3	28	Fixation	Neutral	True
276.714	0.18	Control	0.5861999999999999	0.001	No	2.835	-0.001	2.0	NoResponse	0	0.261	275.975	3	28	Target	Neutral	True
276.897	0.52	Control	0.5861999999999999	n/a	No	2.835	n/a	n/a	NoResponse	0	n/a	n/a	3	28	Blank	Neutral	True
276.975	0.3	Control	0.5861999999999999	0.001	No	2.835	-0.001	2.0	NoResponse	0	0.261	n/a	3	28	ButtonPress	Neutral	True
277.414	1.45	Control	0.5861999999999999	n/a	No	2.835	n/a	5.0	NoResponse	0	0.023	276.437	3	28	Feedback	Neutral	True
278.863	2.835	Control	0.5861999999999999	n/a	No	2.835	n/a	n/a	NoResponse	0	0.0	n/a	3	28	ISIslide	Neutral	True
281.729	0.25	Lose2	0.5667	0.0	No	2.821	0.029	n/a	NoResponse	-1	n/a	n/a	2	29	Cue	Loss	True
281.979	3.95	Lose2	0.5667	0.0	No	2.821	0.0	n/a	NoResponse	-1	n/a	n/a	2	29	Fixation	Loss	True
285.927	0.19	Lose2	0.5667	0.002	No	2.821	-0.002	2.0	NoResponse	-1	0.239	285.166	2	29	Target	Loss	True
286.127	0.51	Lose2	0.5667	n/a	No	2.821	n/a	n/a	NoResponse	-1	n/a	n/a	2	29	Blank	Loss	True
286.166	0.3	Lose2	0.5667	0.002	No	2.821	-0.002	2.0	NoResponse	-1	0.239	n/a	2	29	ButtonPress	Loss	True
286.627	1.45	Lose2	0.5667	n/a	No	2.821	n/a	5.0	NoResponse	-1	0.03	285.657	2	29	Feedback	Loss	True
288.076	2.821	Lose2	0.5667	n/a	No	2.821	n/a	n/a	NoResponse	-1	0.0	n/a	2	29	ISIslide	Loss	True
290.925	0.25	Win2	0.5484	0.001	No	2.775	0.025	n/a	NoResponse	0	n/a	n/a	2	30	Cue	MissedWin	True
291.175	3.9	Win2	0.5484	0.0	No	2.775	0.0	2.0	NoResponse	0	3.869	294.044	2	30	Fixation	MissedWin	True
295.044	0.3	Win2	0.5484	0.0	No	2.775	0.0	2.0	NoResponse	0	3.869	n/a	2	30	ButtonPress	MissedWin	True
295.074	0.2	Win2	0.5484	0.001	No	2.775	-0.001	n/a	NoResponse	0	n/a	n/a	2	30	Target	MissedWin	True
295.274	0.5	Win2	0.5484	n/a	No	2.775	n/a	n/a	NoResponse	0	n/a	n/a	2	30	Blank	MissedWin	True
295.774	1.45	Win2	0.5484	n/a	No	2.775	n/a	5.0	NoResponse	0	0.007	294.781	2	30	Feedback	MissedWin	True
297.223	2.775	Win2	0.5484	n/a	No	2.775	n/a	n/a	NoResponse	0	0.0	n/a	2	30	ISIslide	MissedWin	True
300.022	0.25	Lose2	0.5312	0.0	No	2.828	0.022	n/a	NoResponse	-1	n/a	n/a	1	31	Cue	Loss	True
300.272	4.05	Lose2	0.5312	0.0	No	2.828	0.0	n/a	NoResponse	-1	n/a	n/a	1	31	Fixation	Loss	True
304.321	0.21	Lose2	0.5312	0.001	No	2.828	-0.001	2.0	NoResponse	-1	0.234	303.555	1	31	Target	Loss	True
304.537	0.49	Lose2	0.5312	n/a	No	2.828	n/a	n/a	NoResponse	-1	n/a	n/a	1	31	Blank	Loss	True
304.555	0.3	Lose2	0.5312	0.001	No	2.828	-0.001	2.0	NoResponse	-1	0.234	n/a	1	31	ButtonPress	Loss	True
305.02	1.45	Lose2	0.5312	n/a	No	2.828	n/a	5.0	NoResponse	-1	0.026	304.046	1	31	Feedback	Loss	True
306.47	2.828	Lose2	0.5312	n/a	No	2.828	n/a	n/a	NoResponse	-1	0.0	n/a	1	31	ISIslide	Loss	True
309.319	0.25	Lose2	0.5455	0.0	Yes	2.631	0.019	n/a	GoodResponse	0	n/a	n/a	1	32	Cue	AvoidedLoss	True
309.569	4.15	Lose2	0.5455	0.0	Yes	2.631	0.0	n/a	GoodResponse	0	n/a	n/a	1	32	Fixation	AvoidedLoss	True
313.717	0.22	Lose2	0.5455	0.002	Yes	2.631	-0.002	2.0	GoodResponse	0	0.218	312.935	1	32	Target	AvoidedLoss	True
313.935	0.3	Lose2	0.5455	0.002	Yes	2.631	-0.002	2.0	GoodResponse	0	0.218	n/a	1	32	ButtonPress	AvoidedLoss	True
313.951	0.48	Lose2	0.5455	n/a	Yes	2.631	n/a	n/a	GoodResponse	0	n/a	n/a	1	32	Blank	AvoidedLoss	True
314.417	1.45	Lose2	0.5455	n/a	Yes	2.631	n/a	5.0	GoodResponse	0	0.044	313.461	1	32	Feedback	AvoidedLoss	True
315.867	2.631	Lose2	0.5455	n/a	Yes	2.631	n/a	n/a	GoodResponse	0	0.0	n/a	1	32	ISIslide	AvoidedLoss	True
318.516	0.25	Win2	0.5588000000000001	0.0	Yes	2.684	0.016	n/a	GoodResponse	1	n/a	n/a	2	33	Cue	Win	True
318.765	4.0	Win2	0.5588000000000001	0.001	Yes	2.684	-0.001	n/a	GoodResponse	1	n/a	n/a	2	33	Fixation	Win	True
322.764	0.23	Win2	0.5588000000000001	0.002	Yes	2.684	-0.002	2.0	GoodResponse	1	0.212	321.976	2	33	Target	Win	True
322.976	0.3	Win2	0.5588000000000001	0.002	Yes	2.684	-0.002	2.0	GoodResponse	1	0.212	n/a	2	33	ButtonPress	Win	True
322.997	0.47	Win2	0.5588000000000001	n/a	Yes	2.684	n/a	n/a	GoodResponse	1	n/a	n/a	2	33	Blank	Win	True
323.464	1.45	Win2	0.5588000000000001	n/a	Yes	2.684	n/a	5.0	GoodResponse	1	0.021	322.485	2	33	Feedback	Win	True
324.913	2.684	Win2	0.5588000000000001	n/a	Yes	2.684	n/a	n/a	GoodResponse	1	0.0	n/a	2	33	ISIslide	Win	True
327.629	0.25	Lose2	0.5428999999999999	0.0	No	2.621	0.029	n/a	NoResponse	-1	n/a	n/a	1	34	Cue	Loss	True
327.879	4.05	Lose2	0.5428999999999999	0.0	No	2.621	0.0	n/a	NoResponse	-1	n/a	n/a	1	34	Fixation	Loss	True
331.927	0.24	Lose2	0.5428999999999999	0.002	No	2.621	-0.002	2.0	NoResponse	-1	0.251	331.178	1	34	Target	Loss	True
332.177	0.46	Lose2	0.5428999999999999	n/a	No	2.621	n/a	n/a	NoResponse	-1	n/a	n/a	1	34	Blank	Loss	True
332.178	0.3	Lose2	0.5428999999999999	0.002	No	2.621	-0.002	2.0	NoResponse	-1	0.251	n/a	1	34	ButtonPress	Loss	True
332.627	1.45	Lose2	0.5428999999999999	n/a	No	2.621	n/a	5.0	NoResponse	-1	0.029	331.656	1	34	Feedback	Loss	True
334.077	2.621	Lose2	0.5428999999999999	n/a	No	2.621	n/a	n/a	NoResponse	-1	0.0	n/a	1	34	ISIslide	Loss	True
336.726	0.25	Lose2	0.5278	0.0	No	2.674	0.026	n/a	NoResponse	-1	n/a	n/a	0	35	Cue	Loss	True
336.976	4.0	Lose2	0.5278	0.0	No	2.674	0.0	n/a	NoResponse	-1	n/a	n/a	0	35	Fixation	Loss	True
340.974	0.25	Lose2	0.5278	0.002	No	2.674	-0.002	2.0	NoResponse	-1	0.269	340.243	0	35	Target	Loss	True
341.224	0.45	Lose2	0.5278	n/a	No	2.674	n/a	n/a	NoResponse	-1	n/a	n/a	0	35	Blank	Loss	True
341.243	0.3	Lose2	0.5278	0.002	No	2.674	-0.002	2.0	NoResponse	-1	0.269	n/a	0	35	ButtonPress	Loss	True
341.674	1.45	Lose2	0.5278	n/a	No	2.674	n/a	5.0	NoResponse	-1	0.008	340.682	0	35	Feedback	Loss	True
343.123	2.674	Lose2	0.5278	n/a	No	2.674	n/a	n/a	NoResponse	-1	0.0	n/a	0	35	ISIslide	Loss	True
345.823	0.25	Control	0.5405	0.0	Yes	2.677	0.023	n/a	GoodResponse	0	n/a	n/a	0	36	Cue	Neutral	True
346.072	4.0	Control	0.5405	0.001	Yes	2.677	-0.001	n/a	GoodResponse	0	n/a	n/a	0	36	Fixation	Neutral	True
350.071	0.26	Control	0.5405	0.002	Yes	2.677	-0.002	2.0	GoodResponse	0	0.221	349.292	0	36	Target	Neutral	True
350.292	0.3	Control	0.5405	0.002	Yes	2.677	-0.002	2.0	GoodResponse	0	0.221	n/a	0	36	ButtonPress	Neutral	True
350.338	0.44	Control	0.5405	n/a	Yes	2.677	n/a	n/a	GoodResponse	0	n/a	n/a	0	36	Blank	Neutral	True
350.771	1.45	Control	0.5405	n/a	Yes	2.677	n/a	5.0	GoodResponse	0	0.031	349.802	0	36	Feedback	Neutral	True
352.22	2.677	Control	0.5405	n/a	Yes	2.677	n/a	n/a	GoodResponse	0	0.0	n/a	0	36	ISIslide	Neutral	True
354.919	0.25	Win2	0.5526	0.0	Yes	2.881	0.019	n/a	GoodResponse	1	n/a	n/a	1	37	Cue	Win	True
355.169	4.0	Win2	0.5526	0.0	Yes	2.881	0.0	n/a	GoodResponse	1	n/a	n/a	1	37	Fixation	Win	True
359.168	0.27	Win2	0.5526	0.001	Yes	2.881	-0.001	2.0	GoodResponse	1	0.233	358.401	1	37	Target	Win	True
359.401	0.3	Win2	0.5526	0.001	Yes	2.881	-0.001	2.0	GoodResponse	1	0.233	n/a	1	37	ButtonPress	Win	True
359.451	0.43	Win2	0.5526	n/a	Yes	2.881	n/a	n/a	GoodResponse	1	n/a	n/a	1	37	Blank	Win	True
359.868	1.45	Win2	0.5526	n/a	Yes	2.881	n/a	5.0	GoodResponse	1	0.007	358.875	1	37	Feedback	Win	True
361.317	2.881	Win2	0.5526	n/a	Yes	2.881	n/a	n/a	GoodResponse	1	0.0	n/a	1	37	ISIslide	Win	True
364.216	0.25	Lose2	0.5640999999999999	0.0	Yes	2.834	0.016	n/a	GoodResponse	0	n/a	n/a	1	38	Cue	AvoidedLoss	True
364.466	3.95	Lose2	0.5640999999999999	0.0	Yes	2.834	0.0	n/a	GoodResponse	0	n/a	n/a	1	38	Fixation	AvoidedLoss	True
368.414	0.28	Lose2	0.5640999999999999	0.002	Yes	2.834	-0.002	2.0	GoodResponse	0	0.216	367.63	1	38	Target	AvoidedLoss	True
368.63	0.3	Lose2	0.5640999999999999	0.002	Yes	2.834	-0.002	2.0	GoodResponse	0	0.216	n/a	1	38	ButtonPress	AvoidedLoss	True
368.698	0.42	Lose2	0.5640999999999999	n/a	Yes	2.834	n/a	n/a	GoodResponse	0	n/a	n/a	1	38	Blank	AvoidedLoss	True
369.114	1.45	Lose2	0.5640999999999999	n/a	Yes	2.834	n/a	5.0	GoodResponse	0	0.029	368.143	1	38	Feedback	AvoidedLoss	True
370.564	2.834	Lose2	0.5640999999999999	n/a	Yes	2.834	n/a	n/a	GoodResponse	0	0.0	n/a	1	38	ISIslide	AvoidedLoss	True
373.429	0.25	Win2	0.55	0.0	No	2.971	0.029	n/a	NoResponse	0	n/a	n/a	1	39	Cue	MissedWin	True
373.679	4.1	Win2	0.55	0.0	No	2.971	0.0	n/a	NoResponse	0	n/a	n/a	1	39	Fixation	MissedWin	True
377.778	0.29	Win2	0.55	0.001	No	2.971	-0.001	2.0	NoResponse	0	0.309	377.087	1	39	Target	MissedWin	True
378.078	0.41	Win2	0.55	n/a	No	2.971	n/a	n/a	NoResponse	0	n/a	n/a	1	39	Blank	MissedWin	True
378.087	0.3	Win2	0.55	0.001	No	2.971	-0.001	2.0	NoResponse	0	0.309	n/a	1	39	ButtonPress	MissedWin	True
378.478	1.45	Win2	0.55	n/a	No	2.971	n/a	5.0	NoResponse	0	0.031	377.509	1	39	Feedback	MissedWin	True
379.927	2.971	Win2	0.55	n/a	No	2.971	n/a	n/a	NoResponse	0	0.0	n/a	1	39	ISIslide	MissedWin	True
382.926	0.25	Win2	0.561	0.0	Yes	2.724	0.026	n/a	GoodResponse	1	n/a	n/a	2	40	Cue	Win	True
383.176	3.95	Win2	0.561	0.0	Yes	2.724	0.0	n/a	GoodResponse	1	n/a	n/a	2	40	Fixation	Win	True
387.124	0.3	Win2	0.561	0.002	Yes	2.724	-0.002	2.0	GoodResponse	1	0.235	386.359	2	40	Target	Win	True
387.359	0.3	Win2	0.561	0.002	Yes	2.724	-0.002	2.0	GoodResponse	1	0.235	n/a	2	40	ButtonPress	Win	True
387.424	0.4	Win2	0.561	n/a	Yes	2.724	n/a	n/a	GoodResponse	1	n/a	n/a	2	40	Blank	Win	True
387.824	1.45	Win2	0.561	n/a	Yes	2.724	n/a	5.0	GoodResponse	1	0.007	386.831	2	40	Feedback	Win	True
389.274	2.724	Win2	0.561	n/a	Yes	2.724	n/a	n/a	GoodResponse	1	0.0	n/a	2	40	ISIslide	Win	True
392.023	0.25	Win2	0.5714	0.0	Yes	2.777	0.023	n/a	GoodResponse	1	n/a	n/a	3	41	Cue	Win	True
392.273	3.9	Win2	0.5714	0.0	Yes	2.777	0.0	n/a	GoodResponse	1	n/a	n/a	3	41	Fixation	Win	True
396.171	0.31	Win2	0.5714	0.002	Yes	2.777	-0.002	2.0	GoodResponse	1	0.233	395.404	3	41	Target	Win	True
396.404	0.3	Win2	0.5714	0.002	Yes	2.777	-0.002	2.0	GoodResponse	1	0.233	n/a	3	41	ButtonPress	Win	True
396.488	0.39	Win2	0.5714	n/a	Yes	2.777	n/a	n/a	GoodResponse	1	n/a	n/a	3	41	Blank	Win	True
396.871	1.45	Win2	0.5714	n/a	Yes	2.777	n/a	5.0	GoodResponse	1	0.028	395.899	3	41	Feedback	Win	True
398.32	2.777	Win2	0.5714	n/a	Yes	2.777	n/a	n/a	GoodResponse	1	0.0	n/a	3	41	ISIslide	Win	True
401.12	0.25	Control	0.5814	0.0	Yes	2.93	0.02	n/a	GoodResponse	0	n/a	n/a	3	42	Cue	Neutral	True
401.369	3.85	Control	0.5814	0.001	Yes	2.93	-0.001	n/a	GoodResponse	0	n/a	n/a	3	42	Fixation	Neutral	True
405.218	0.32	Control	0.5814	0.002	Yes	2.93	-0.002	2.0	GoodResponse	0	0.282	404.5	3	42	Target	Neutral	True
405.5	0.3	Control	0.5814	0.002	Yes	2.93	-0.002	2.0	GoodResponse	0	0.282	n/a	3	42	ButtonPress	Neutral	True
405.551	0.38	Control	0.5814	n/a	Yes	2.93	n/a	n/a	GoodResponse	0	n/a	n/a	3	42	Blank	Neutral	True
405.918	1.45	Control	0.5814	n/a	Yes	2.93	n/a	5.0	GoodResponse	0	0.008	404.926	3	42	Feedback	Neutral	True
407.367	2.93	Control	0.5814	n/a	Yes	2.93	n/a	n/a	GoodResponse	0	0.0	n/a	3	42	ISIslide	Neutral	True
410.316	0.25	Win2	0.5909	0.0	Yes	3.184	0.016	n/a	GoodResponse	1	n/a	n/a	4	43	Cue	Win	True
410.566	4.0	Win2	0.5909	0.0	Yes	3.184	0.0	n/a	GoodResponse	1	n/a	n/a	4	43	Fixation	Win	True
414.565	0.33	Win2	0.5909	0.001	Yes	3.184	-0.001	2.0	GoodResponse	1	0.258	413.823	4	43	Target	Win	True
414.823	0.3	Win2	0.5909	0.001	Yes	3.184	-0.001	2.0	GoodResponse	1	0.258	n/a	4	43	ButtonPress	Win	True
414.898	0.37	Win2	0.5909	n/a	Yes	3.184	n/a	n/a	GoodResponse	1	n/a	n/a	4	43	Blank	Win	True
415.264	1.45	Win2	0.5909	n/a	Yes	3.184	n/a	5.0	GoodResponse	1	0.025	414.289	4	43	Feedback	Win	True
416.714	3.184	Win2	0.5909	n/a	Yes	3.184	n/a	n/a	GoodResponse	1	0.0	n/a	4	43	ISIslide	Win	True
419.929	0.25	Win2	0.6	0.001	Yes	2.971	0.029	n/a	GoodResponse	1	n/a	n/a	5	44	Cue	Win	True
420.179	4.0	Win2	0.6	0.0	Yes	2.971	0.0	n/a	GoodResponse	1	n/a	n/a	5	44	Fixation	Win	True
424.178	0.34	Win2	0.6	0.001	Yes	2.971	-0.001	2.0	GoodResponse	1	0.261	423.439	5	44	Target	Win	True
424.439	0.3	Win2	0.6	0.001	Yes	2.971	-0.001	2.0	GoodResponse	1	0.261	n/a	5	44	ButtonPress	Win	True
424.528	0.36	Win2	0.6	n/a	Yes	2.971	n/a	n/a	GoodResponse	1	n/a	n/a	5	44	Blank	Win	True
424.878	1.45	Win2	0.6	n/a	Yes	2.971	n/a	5.0	GoodResponse	1	0.02	423.898	5	44	Feedback	Win	True
426.327	2.971	Win2	0.6	n/a	Yes	2.971	n/a	n/a	GoodResponse	1	0.0	n/a	5	44	ISIslide	Win	True
429.326	0.25	Control	0.5870000000000001	0.0	No	2.874	0.026	n/a	NoResponse	0	n/a	n/a	5	45	Cue	Neutral	True
429.576	4.1	Control	0.5870000000000001	0.0	No	2.874	0.0	n/a	NoResponse	0	n/a	n/a	5	45	Fixation	Neutral	True
433.675	0.35	Control	0.5870000000000001	0.001	No	2.874	-0.001	2.0	NoResponse	0	0.39	433.065	5	45	Target	Neutral	True
434.024	0.35	Control	0.5870000000000001	n/a	No	2.874	n/a	n/a	NoResponse	0	n/a	n/a	5	45	Blank	Neutral	True
434.065	0.3	Control	0.5870000000000001	0.001	No	2.874	-0.001	2.0	NoResponse	0	0.39	n/a	5	45	ButtonPress	Neutral	True
434.374	1.45	Control	0.5870000000000001	n/a	No	2.874	n/a	5.0	NoResponse	0	0.037	433.411	5	45	Feedback	Neutral	True
435.824	2.874	Control	0.5870000000000001	n/a	No	2.874	n/a	n/a	NoResponse	0	0.0	n/a	5	45	ISIslide	Neutral	True
438.723	0.25	Lose2	0.5957	0.0	Yes	3.377	0.023	n/a	GoodResponse	0	n/a	n/a	5	46	Cue	AvoidedLoss	True
438.973	4.0	Lose2	0.5957	0.0	Yes	3.377	0.0	n/a	GoodResponse	0	n/a	n/a	5	46	Fixation	AvoidedLoss	True
442.971	0.36	Lose2	0.5957	0.002	Yes	3.377	-0.002	2.0	GoodResponse	0	0.255	442.226	5	46	Target	AvoidedLoss	True
443.226	0.3	Lose2	0.5957	0.002	Yes	3.377	-0.002	2.0	GoodResponse	0	0.255	n/a	5	46	ButtonPress	AvoidedLoss	True
443.338	0.34	Lose2	0.5957	n/a	Yes	3.377	n/a	n/a	GoodResponse	0	n/a	n/a	5	46	Blank	AvoidedLoss	True
443.671	1.45	Lose2	0.5957	n/a	Yes	3.377	n/a	5.0	GoodResponse	0	0.008	442.679	5	46	Feedback	AvoidedLoss	True
445.121	3.377	Lose2	0.5957	n/a	Yes	3.377	n/a	n/a	GoodResponse	0	0.0	n/a	5	46	ISIslide	AvoidedLoss	True
448.519	0.25	Lose2	0.6042000000000001	0.0	Yes	2.681	0.019	n/a	GoodResponse	0	n/a	n/a	5	47	Cue	AvoidedLoss	True
448.769	4.0	Lose2	0.6042000000000001	0.0	Yes	2.681	0.0	n/a	GoodResponse	0	n/a	n/a	5	47	Fixation	AvoidedLoss	True
452.768	0.37	Lose2	0.6042000000000001	0.001	Yes	2.681	-0.001	2.0	GoodResponse	0	0.282	452.05	5	47	Target	AvoidedLoss	True
453.05	0.3	Lose2	0.6042000000000001	0.001	Yes	2.681	-0.001	2.0	GoodResponse	0	0.282	n/a	5	47	ButtonPress	AvoidedLoss	True
453.134	0.33	Lose2	0.6042000000000001	n/a	Yes	2.681	n/a	n/a	GoodResponse	0	n/a	n/a	5	47	Blank	AvoidedLoss	True
453.468	1.45	Lose2	0.6042000000000001	n/a	Yes	2.681	n/a	5.0	GoodResponse	0	0.016	452.484	5	47	Feedback	AvoidedLoss	True
454.917	2.681	Lose2	0.6042000000000001	n/a	Yes	2.681	n/a	n/a	GoodResponse	0	0.0	n/a	5	47	ISIslide	AvoidedLoss	True
457.616	0.25	Lose2	0.6122	0.0	Yes	3.034	0.016	n/a	GoodResponse	0	n/a	n/a	5	48	Cue	AvoidedLoss	True
457.866	3.95	Lose2	0.6122	0.0	Yes	3.034	0.0	n/a	GoodResponse	0	n/a	n/a	5	48	Fixation	AvoidedLoss	True
461.815	0.38	Lose2	0.6122	0.001	Yes	3.034	-0.001	2.0	GoodResponse	0	0.264	461.079	5	48	Target	AvoidedLoss	True
462.079	0.3	Lose2	0.6122	0.001	Yes	3.034	-0.001	2.0	GoodResponse	0	0.264	n/a	5	48	ButtonPress	AvoidedLoss	True
462.198	0.32	Lose2	0.6122	n/a	Yes	3.034	n/a	n/a	GoodResponse	0	n/a	n/a	5	48	Blank	AvoidedLoss	True
462.514	1.45	Lose2	0.6122	n/a	Yes	3.034	n/a	5.0	GoodResponse	0	0.042	461.556	5	48	Feedback	AvoidedLoss	True
463.964	3.034	Lose2	0.6122	n/a	Yes	3.034	n/a	n/a	GoodResponse	0	0.0	n/a	5	48	ISIslide	AvoidedLoss	True
467.013	0.25	Control	0.62	0.0	Yes	2.887	0.013	n/a	GoodResponse	0	n/a	n/a	5	49	Cue	Neutral	True
467.263	4.0	Control	0.62	0.0	Yes	2.887	0.0	n/a	GoodResponse	0	n/a	n/a	5	49	Fixation	Neutral	True
471.261	0.39	Control	0.62	0.002	Yes	2.887	-0.002	2.0	GoodResponse	0	0.311	470.572	5	49	Target	Neutral	True
471.572	0.3	Control	0.62	0.002	Yes	2.887	-0.002	2.0	GoodResponse	0	0.311	n/a	5	49	ButtonPress	Neutral	True
471.661	0.31	Control	0.62	n/a	Yes	2.887	n/a	n/a	GoodResponse	0	n/a	n/a	5	49	Blank	Neutral	True
471.961	1.45	Control	0.62	n/a	Yes	2.887	n/a	5.0	GoodResponse	0	0.01	470.971	5	49	Feedback	Neutral	True
473.41	2.887	Control	0.62	n/a	Yes	2.887	n/a	n/a	GoodResponse	0	0.0	n/a	5	49	ISIslide	Neutral	True
476.326	0.25	Control	0.6275	0.0	Yes	2.774	0.026	n/a	GoodResponse	0	n/a	n/a	5	50	Cue	Neutral	True
476.576	4.0	Control	0.6275	0.0	Yes	2.774	0.0	n/a	GoodResponse	0	n/a	n/a	5	50	Fixation	Neutral	True
480.575	0.4	Control	0.6275	0.001	Yes	2.774	-0.001	2.0	GoodResponse	0	0.34	479.915	5	50	Target	Neutral	True
480.915	0.3	Control	0.6275	0.001	Yes	2.774	-0.001	2.0	GoodResponse	0	0.34	n/a	5	50	ButtonPress	Neutral	True
480.974	0.3	Control	0.6275	n/a	Yes	2.774	n/a	n/a	GoodResponse	0	n/a	n/a	5	50	Blank	Neutral	True
481.274	1.45	Control	0.6275	n/a	Yes	2.774	n/a	5.0	GoodResponse	0	0.014	480.288	5	50	Feedback	Neutral	True
482.724	2.774	Control	0.6275	n/a	Yes	2.774	n/a	n/a	GoodResponse	0	0.0	n/a	5	50	ISIslide	Neutral	True
485.523	0.25	Control	0.6346	0.0	Yes	2.727	0.023	n/a	GoodResponse	0	n/a	n/a	5	51	Cue	Neutral	True
485.773	3.95	Control	0.6346	0.0	Yes	2.727	0.0	n/a	GoodResponse	0	n/a	n/a	5	51	Fixation	Neutral	True
489.721	0.41	Control	0.6346	0.002	Yes	2.727	-0.002	2.0	GoodResponse	0	0.278	488.999	5	51	Target	Neutral	True
489.999	0.3	Control	0.6346	0.002	Yes	2.727	-0.002	2.0	GoodResponse	0	0.278	n/a	5	51	ButtonPress	Neutral	True
490.138	0.29	Control	0.6346	n/a	Yes	2.727	n/a	n/a	GoodResponse	0	n/a	n/a	5	51	Blank	Neutral	True
490.421	1.45	Control	0.6346	n/a	Yes	2.727	n/a	5.0	GoodResponse	0	0.038	489.459	5	51	Feedback	Neutral	True
491.871	2.727	Control	0.6346	n/a	Yes	2.727	n/a	n/a	GoodResponse	0	0.0	n/a	5	51	ISIslide	Neutral	True
494.62	0.25	Control	0.6415000000000001	0.0	Yes	2.63	0.02	n/a	GoodResponse	0	n/a	n/a	5	52	Cue	Neutral	True
494.87	4.05	Control	0.6415000000000001	0.0	Yes	2.63	0.0	n/a	GoodResponse	0	n/a	n/a	5	52	Fixation	Neutral	True
498.918	0.42	Control	0.6415000000000001	0.002	Yes	2.63	-0.002	2.0	GoodResponse	0	0.37	498.288	5	52	Target	Neutral	True
499.288	0.3	Control	0.6415000000000001	0.002	Yes	2.63	-0.002	2.0	GoodResponse	0	0.37	n/a	5	52	ButtonPress	Neutral	True
499.351	0.28	Control	0.6415000000000001	n/a	Yes	2.63	n/a	n/a	GoodResponse	0	n/a	n/a	5	52	Blank	Neutral	True
499.618	1.45	Control	0.6415000000000001	n/a	Yes	2.63	n/a	5.0	GoodResponse	0	0.011	498.629	5	52	Feedback	Neutral	True
501.067	2.63	Control	0.6415000000000001	n/a	Yes	2.63	n/a	n/a	GoodResponse	0	0.0	n/a	5	52	ISIslide	Neutral	True
503.716	0.25	Win2	0.6481	0.0	Yes	2.934	0.016	n/a	GoodResponse	1	n/a	n/a	6	53	Cue	Win	True
503.966	4.05	Win2	0.6481	0.0	Yes	2.934	0.0	n/a	GoodResponse	1	n/a	n/a	6	53	Fixation	Win	True
508.015	0.43	Win2	0.6481	0.001	Yes	2.934	-0.001	2.0	GoodResponse	1	0.271	507.286	6	53	Target	Win	True
508.286	0.3	Win2	0.6481	0.001	Yes	2.934	-0.001	2.0	GoodResponse	1	0.271	n/a	6	53	ButtonPress	Win	True
508.448	0.27	Win2	0.6481	n/a	Yes	2.934	n/a	n/a	GoodResponse	1	n/a	n/a	6	53	Blank	Win	True
508.715	1.45	Win2	0.6481	n/a	Yes	2.934	n/a	5.0	GoodResponse	1	0.036	507.751	6	53	Feedback	Win	True
510.164	2.934	Win2	0.6481	n/a	Yes	2.934	n/a	n/a	GoodResponse	1	0.0	n/a	6	53	ISIslide	Win	True
513.13	0.25	Win2	0.6364	0.0	No	2.72	0.03	n/a	NoResponse	0	n/a	n/a	6	54	Cue	MissedWin	True
513.38	3.95	Win2	0.6364	0.0	No	2.72	0.0	n/a	NoResponse	0	n/a	n/a	6	54	Fixation	MissedWin	True
517.328	0.44	Win2	0.6364	0.002	No	2.72	-0.002	2.0	NoResponse	0	0.692	517.02	6	54	Target	MissedWin	True
517.778	0.26	Win2	0.6364	n/a	No	2.72	n/a	n/a	NoResponse	0	n/a	n/a	6	54	Blank	MissedWin	True
518.02	0.3	Win2	0.6364	0.002	No	2.72	-0.002	2.0	NoResponse	0	0.692	n/a	6	54	ButtonPress	MissedWin	True
518.028	1.45	Win2	0.6364	n/a	No	2.72	n/a	5.0	NoResponse	0	0.04	517.068	6	54	Feedback	MissedWin	True
519.477	2.72	Win2	0.6364	n/a	No	2.72	n/a	n/a	NoResponse	0	0.0	n/a	6	54	ISIslide	MissedWin	True
522.226	0.25	Control	0.625	0.001	No	3.024	0.026	n/a	NoResponse	0	n/a	n/a	6	55	Cue	Neutral	False
522.476	3.95	Control	0.625	0.0	No	3.024	0.0	n/a	NoResponse	0	n/a	n/a	6	55	Fixation	Neutral	False
526.425	0.45	Control	0.625	0.001	No	3.024	-0.001	n/a	NoResponse	0	n/a	n/a	6	55	Target	Neutral	False
526.875	0.25	Control	0.625	n/a	No	3.024	n/a	n/a	NoResponse	0	n/a	n/a	6	55	Blank	Neutral	False
527.125	1.45	Control	0.625	n/a	No	3.024	n/a	5.0	NoResponse	0	0.016	526.141	6	55	Feedback	Neutral	False
528.574	3.024	Control	0.625	n/a	No	3.024	n/a	n/a	NoResponse	0	0.0	n/a	6	55	ISIslide	Neutral	False
531.623	0.25	Control	0.6315999999999999	0.0	Yes	2.827	0.023	n/a	GoodResponse	0	n/a	n/a	6	56	Cue	Neutral	True
531.873	3.95	Control	0.6315999999999999	0.0	Yes	2.827	0.0	n/a	GoodResponse	0	n/a	n/a	6	56	Fixation	Neutral	True
535.822	0.46	Control	0.6315999999999999	0.001	Yes	2.827	-0.001	2.0	GoodResponse	0	0.227	535.049	6	56	Target	Neutral	True
536.049	0.3	Control	0.6315999999999999	0.001	Yes	2.827	-0.001	2.0	GoodResponse	0	0.227	n/a	6	56	ButtonPress	Neutral	True
536.288	0.24	Control	0.6315999999999999	n/a	Yes	2.827	n/a	n/a	GoodResponse	0	n/a	n/a	6	56	Blank	Neutral	True
536.521	1.45	Control	0.6315999999999999	n/a	Yes	2.827	n/a	5.0	GoodResponse	0	0.034	535.555	6	56	Feedback	Neutral	True
537.971	2.827	Control	0.6315999999999999	n/a	Yes	2.827	n/a	n/a	GoodResponse	0	0.0	n/a	6	56	ISIslide	Neutral	True
540.82	0.25	Control	0.6379	0.0	Yes	3.48	0.02	n/a	GoodResponse	0	n/a	n/a	6	57	Cue	Neutral	True
541.07	4.0	Control	0.6379	0.0	Yes	3.48	0.0	n/a	GoodResponse	0	n/a	n/a	6	57	Fixation	Neutral	True
545.068	0.47	Control	0.6379	0.002	Yes	3.48	-0.002	2.0	GoodResponse	0	0.22	544.288	6	57	Target	Neutral	True
545.288	0.3	Control	0.6379	0.002	Yes	3.48	-0.002	2.0	GoodResponse	0	0.22	n/a	6	57	ButtonPress	Neutral	True
545.551	0.23	Control	0.6379	n/a	Yes	3.48	n/a	n/a	GoodResponse	0	n/a	n/a	6	57	Blank	Neutral	True
545.768	1.45	Control	0.6379	n/a	Yes	3.48	n/a	5.0	GoodResponse	0	0.008	544.776	6	57	Feedback	Neutral	True
547.218	3.48	Control	0.6379	n/a	Yes	3.48	n/a	n/a	GoodResponse	0	0.0	n/a	6	57	ISIslide	Neutral	True
550.716	0.25	Win2	0.6441	0.0	Yes	2.734	0.016	n/a	GoodResponse	1	n/a	n/a	7	58	Cue	Win	True
550.966	4.05	Win2	0.6441	0.0	Yes	2.734	0.0	n/a	GoodResponse	1	n/a	n/a	7	58	Fixation	Win	True
555.015	0.48	Win2	0.6441	0.001	Yes	2.734	-0.001	2.0	GoodResponse	1	0.441	554.456	7	58	Target	Win	True
555.456	0.3	Win2	0.6441	0.001	Yes	2.734	-0.001	2.0	GoodResponse	1	0.441	n/a	7	58	ButtonPress	Win	True
555.498	0.22	Win2	0.6441	n/a	Yes	2.734	n/a	n/a	GoodResponse	1	n/a	n/a	7	58	Blank	Win	True
555.715	1.45	Win2	0.6441	n/a	Yes	2.734	n/a	5.0	GoodResponse	1	0.011	554.726	7	58	Feedback	Win	True
557.164	2.734	Win2	0.6441	n/a	Yes	2.734	n/a	n/a	GoodResponse	1	0.0	n/a	7	58	ISIslide	Win	True
559.93	0.25	Lose2	0.65	0.0	Yes	2.67	0.03	n/a	GoodResponse	0	n/a	n/a	7	59	Cue	AvoidedLoss	True
560.18	4.0	Lose2	0.65	0.0	Yes	2.67	0.0	n/a	GoodResponse	0	n/a	n/a	7	59	Fixation	AvoidedLoss	True
564.178	0.49	Lose2	0.65	0.002	Yes	2.67	-0.002	2.0	GoodResponse	0	0.279	563.457	7	59	Target	AvoidedLoss	True
564.457	0.3	Lose2	0.65	0.002	Yes	2.67	-0.002	2.0	GoodResponse	0	0.279	n/a	7	59	ButtonPress	AvoidedLoss	True
564.678	0.21	Lose2	0.65	n/a	Yes	2.67	n/a	n/a	GoodResponse	0	n/a	n/a	7	59	Blank	AvoidedLoss	True
564.878	1.45	Lose2	0.65	n/a	Yes	2.67	n/a	5.0	GoodResponse	0	0.019	563.897	7	59	Feedback	AvoidedLoss	True
566.327	2.67	Lose2	0.65	n/a	Yes	2.67	n/a	n/a	GoodResponse	0	0.0	n/a	7	59	ISIslide	AvoidedLoss	True
569.026	0.25	Control	0.6557	0.001	Yes	2.674	0.026	n/a	GoodResponse	0	n/a	n/a	7	60	Cue	Neutral	True
569.276	4.0	Control	0.6557	0.0	Yes	2.674	0.0	n/a	GoodResponse	0	n/a	n/a	7	60	Fixation	Neutral	True
573.275	0.5	Control	0.6557	0.001	Yes	2.674	-0.001	2.0	GoodResponse	0	0.405	572.68	7	60	Target	Neutral	True
573.68	0.3	Control	0.6557	0.001	Yes	2.674	-0.001	2.0	GoodResponse	0	0.405	n/a	7	60	ButtonPress	Neutral	True
573.775	0.2	Control	0.6557	n/a	Yes	2.674	n/a	n/a	GoodResponse	0	n/a	n/a	7	60	Blank	Neutral	True
573.975	1.45	Control	0.6557	n/a	Yes	2.674	n/a	5.0	GoodResponse	0	0.043	573.018	7	60	Feedback	Neutral	True
575.424	2.674	Control	0.6557	n/a	Yes	2.674	n/a	n/a	GoodResponse	0	0.0	n/a	7	60	ISIslide	Neutral	True
578.123	0.25	Lose2	0.6613	0.0	Yes	2.977	0.023	n/a	GoodResponse	0	n/a	n/a	7	61	Cue	AvoidedLoss	True
578.373	4.0	Lose2	0.6613	0.0	Yes	2.977	0.0	n/a	GoodResponse	0	n/a	n/a	7	61	Fixation	AvoidedLoss	True
582.372	0.5	Lose2	0.6613	0.001	Yes	2.977	-0.001	2.0	GoodResponse	0	0.302	581.674	7	61	Target	AvoidedLoss	True
582.674	0.3	Lose2	0.6613	0.001	Yes	2.977	-0.001	2.0	GoodResponse	0	0.302	n/a	7	61	ButtonPress	AvoidedLoss	True
582.872	0.2	Lose2	0.6613	n/a	Yes	2.977	n/a	n/a	GoodResponse	0	n/a	n/a	7	61	Blank	AvoidedLoss	True
583.071	1.45	Lose2	0.6613	n/a	Yes	2.977	n/a	5.0	GoodResponse	0	0.02	582.091	7	61	Feedback	AvoidedLoss	True
584.521	2.977	Lose2	0.6613	n/a	Yes	2.977	n/a	n/a	GoodResponse	0	0.0	n/a	7	61	ISIslide	AvoidedLoss	True
587.52	0.25	Lose2	0.6507999999999999	0.0	No	2.88	0.02	n/a	NoResponse	-1	n/a	n/a	6	62	Cue	Loss	True
587.77	3.9	Lose2	0.6507999999999999	0.0	No	2.88	0.0	n/a	NoResponse	-1	n/a	n/a	6	62	Fixation	Loss	True
591.668	0.5	Lose2	0.6507999999999999	0.002	No	2.88	-0.002	2.0	NoResponse	-1	0.517	591.185	6	62	Target	Loss	True
592.168	0.2	Lose2	0.6507999999999999	n/a	No	2.88	n/a	n/a	NoResponse	-1	n/a	n/a	6	62	Blank	Loss	True
592.185	0.3	Lose2	0.6507999999999999	0.002	No	2.88	-0.002	2.0	NoResponse	-1	0.517	n/a	6	62	ButtonPress	Loss	True
592.368	1.45	Lose2	0.6507999999999999	n/a	No	2.88	n/a	5.0	NoResponse	-1	0.041	591.409	6	62	Feedback	Loss	True
593.818	2.88	Lose2	0.6507999999999999	n/a	No	2.88	n/a	n/a	NoResponse	-1	0.0	n/a	6	62	ISIslide	Loss	True
596.717	0.25	Lose2	0.6562	0.0	Yes	2.633	0.017	n/a	GoodResponse	0	n/a	n/a	6	63	Cue	AvoidedLoss	True
596.967	4.05	Lose2	0.6562	0.0	Yes	2.633	0.0	n/a	GoodResponse	0	n/a	n/a	6	63	Fixation	AvoidedLoss	True
601.015	0.5	Lose2	0.6562	0.002	Yes	2.633	-0.002	2.0	GoodResponse	0	0.226	600.241	6	63	Target	AvoidedLoss	True
601.241	0.3	Lose2	0.6562	0.002	Yes	2.633	-0.002	2.0	GoodResponse	0	0.226	n/a	6	63	ButtonPress	AvoidedLoss	True
601.515	0.2	Lose2	0.6562	n/a	Yes	2.633	n/a	n/a	GoodResponse	0	n/a	n/a	6	63	Blank	AvoidedLoss	True
601.715	1.45	Lose2	0.6562	n/a	Yes	2.633	n/a	5.0	GoodResponse	0	0.011	600.726	6	63	Feedback	AvoidedLoss	True
603.164	2.633	Lose2	0.6562	n/a	Yes	2.633	n/a	n/a	GoodResponse	0	0.0	n/a	6	63	ISIslide	AvoidedLoss	True
605.83	0.25	Win2	0.6615000000000001	0.0	Yes	3.12	0.03	n/a	GoodResponse	1	n/a	n/a	7	64	Cue	Win	True
606.08	4.15	Win2	0.6615000000000001	0.0	Yes	3.12	0.0	n/a	GoodResponse	1	n/a	n/a	7	64	Fixation	Win	True
610.228	0.5	Win2	0.6615000000000001	0.002	Yes	3.12	-0.002	2.0	GoodResponse	1	0.227	609.455	7	64	Target	Win	True
610.455	0.3	Win2	0.6615000000000001	0.002	Yes	3.12	-0.002	2.0	GoodResponse	1	0.227	n/a	7	64	ButtonPress	Win	True
610.728	0.2	Win2	0.6615000000000001	n/a	Yes	3.12	n/a	n/a	GoodResponse	1	n/a	n/a	7	64	Blank	Win	True
610.928	1.45	Win2	0.6615000000000001	n/a	Yes	3.12	n/a	5.0	GoodResponse	1	0.016	609.944	7	64	Feedback	Win	True
612.378	3.12	Win2	0.6615000000000001	n/a	Yes	3.12	n/a	n/a	GoodResponse	1	0.0	n/a	7	64	ISIslide	Win	True
615.527	0.25	Control	0.6667000000000001	0.0	Yes	2.773	0.027	n/a	GoodResponse	0	n/a	n/a	7	65	Cue	Neutral	True
615.776	4.0	Control	0.6667000000000001	0.001	Yes	2.773	-0.001	n/a	GoodResponse	0	n/a	n/a	7	65	Fixation	Neutral	True
619.775	0.5	Control	0.6667000000000001	0.002	Yes	2.773	-0.002	2.0	GoodResponse	0	0.277	619.052	7	65	Target	Neutral	True
620.052	0.3	Control	0.6667000000000001	0.002	Yes	2.773	-0.002	2.0	GoodResponse	0	0.277	n/a	7	65	ButtonPress	Neutral	True
620.275	0.2	Control	0.6667000000000001	n/a	Yes	2.773	n/a	n/a	GoodResponse	0	n/a	n/a	7	65	Blank	Neutral	True
620.475	1.45	Control	0.6667000000000001	n/a	Yes	2.773	n/a	5.0	GoodResponse	0	0.031	619.506	7	65	Feedback	Neutral	True
621.924	2.773	Control	0.6667000000000001	n/a	Yes	2.773	n/a	n/a	GoodResponse	0	0.0	n/a	7	65	ISIslide	Neutral	True
624.723	0.25	Win2	0.6716	0.0	Yes	2.777	0.023	n/a	GoodResponse	1	n/a	n/a	8	66	Cue	Win	True
624.973	3.9	Win2	0.6716	0.0	Yes	2.777	0.0	n/a	GoodResponse	1	n/a	n/a	8	66	Fixation	Win	True
628.872	0.49	Win2	0.6716	0.001	Yes	2.777	-0.001	2.0	GoodResponse	1	0.349	628.221	8	66	Target	Win	True
629.221	0.3	Win2	0.6716	0.001	Yes	2.777	-0.001	2.0	GoodResponse	1	0.349	n/a	8	66	ButtonPress	Win	True
629.372	0.21	Win2	0.6716	n/a	Yes	2.777	n/a	n/a	GoodResponse	1	n/a	n/a	8	66	Blank	Win	True
629.572	1.45	Win2	0.6716	n/a	Yes	2.777	n/a	5.0	GoodResponse	1	0.007	628.579	8	66	Feedback	Win	True
631.021	2.777	Win2	0.6716	n/a	Yes	2.777	n/a	n/a	GoodResponse	1	0.0	n/a	8	66	ISIslide	Win	True
633.82	0.25	Control	0.6765000000000001	0.0	Yes	2.73	0.02	n/a	GoodResponse	0	n/a	n/a	8	67	Cue	Neutral	True
634.07	3.95	Control	0.6765000000000001	0.0	Yes	2.73	0.0	n/a	GoodResponse	0	n/a	n/a	8	67	Fixation	Neutral	True
638.019	0.48	Control	0.6765000000000001	0.001	Yes	2.73	-0.001	2.0	GoodResponse	0	0.285	637.304	8	67	Target	Neutral	True
638.304	0.3	Control	0.6765000000000001	0.001	Yes	2.73	-0.001	2.0	GoodResponse	0	0.285	n/a	8	67	ButtonPress	Neutral	True
638.502	0.22	Control	0.6765000000000001	n/a	Yes	2.73	n/a	n/a	GoodResponse	0	n/a	n/a	8	67	Blank	Neutral	True
638.718	1.45	Control	0.6765000000000001	n/a	Yes	2.73	n/a	5.0	GoodResponse	0	0.032	637.75	8	67	Feedback	Neutral	True
640.168	2.73	Control	0.6765000000000001	n/a	Yes	2.73	n/a	n/a	GoodResponse	0	0.0	n/a	8	67	ISIslide	Neutral	True
642.917	0.25	Win2	0.6812	0.0	Yes	3.083	0.017	n/a	GoodResponse	1	n/a	n/a	9	68	Cue	Win	True
643.167	4.0	Win2	0.6812	0.0	Yes	3.083	0.0	n/a	GoodResponse	1	n/a	n/a	9	68	Fixation	Win	True
647.165	0.47	Win2	0.6812	0.002	Yes	3.083	-0.002	2.0	GoodResponse	1	0.228	646.393	9	68	Target	Win	True
647.393	0.3	Win2	0.6812	0.002	Yes	3.083	-0.002	2.0	GoodResponse	1	0.228	n/a	9	68	ButtonPress	Win	True
647.648	0.23	Win2	0.6812	n/a	Yes	3.083	n/a	n/a	GoodResponse	1	n/a	n/a	9	68	Blank	Win	True
647.865	1.45	Win2	0.6812	n/a	Yes	3.083	n/a	5.0	GoodResponse	1	0.008	646.873	9	68	Feedback	Win	True
649.315	3.083	Win2	0.6812	n/a	Yes	3.083	n/a	n/a	GoodResponse	1	0.0	n/a	9	68	ISIslide	Win	True
652.413	0.25	Win2	0.6714	0.001	No	3.237	0.013	n/a	NoResponse	0	n/a	n/a	9	69	Cue	MissedWin	True
652.663	3.95	Win2	0.6714	0.0	No	3.237	0.0	n/a	NoResponse	0	n/a	n/a	9	69	Fixation	MissedWin	True
656.612	0.46	Win2	0.6714	0.001	No	3.237	-0.001	2.0	NoResponse	0	0.636	656.248	9	69	Target	MissedWin	True
657.078	0.24	Win2	0.6714	n/a	No	3.237	n/a	n/a	NoResponse	0	n/a	n/a	9	69	Blank	MissedWin	True
657.248	0.3	Win2	0.6714	0.001	No	3.237	-0.001	2.0	NoResponse	0	0.636	n/a	9	69	ButtonPress	MissedWin	True
657.312	1.45	Win2	0.6714	n/a	No	3.237	n/a	5.0	NoResponse	0	0.022	656.334	9	69	Feedback	MissedWin	True
658.761	3.237	Win2	0.6714	n/a	No	3.237	n/a	n/a	NoResponse	0	0.0	n/a	9	69	ISIslide	MissedWin	True
662.027	0.25	Lose2	0.6761	0.0	Yes	3.023	0.027	n/a	GoodResponse	0	n/a	n/a	9	70	Cue	AvoidedLoss	True
662.277	4.05	Lose2	0.6761	0.0	Yes	3.023	0.0	n/a	GoodResponse	0	n/a	n/a	9	70	Fixation	AvoidedLoss	True
666.325	0.45	Lose2	0.6761	0.002	Yes	3.023	-0.002	2.0	GoodResponse	0	0.218	665.543	9	70	Target	AvoidedLoss	True
666.543	0.3	Lose2	0.6761	0.002	Yes	3.023	-0.002	2.0	GoodResponse	0	0.218	n/a	9	70	ButtonPress	AvoidedLoss	True
666.775	0.25	Lose2	0.6761	n/a	Yes	3.023	n/a	n/a	GoodResponse	0	n/a	n/a	9	70	Blank	AvoidedLoss	True
667.025	1.45	Lose2	0.6761	n/a	Yes	3.023	n/a	5.0	GoodResponse	0	0.017	666.042	9	70	Feedback	AvoidedLoss	True
668.474	3.023	Lose2	0.6761	n/a	Yes	3.023	n/a	n/a	GoodResponse	0	0.0	n/a	9	70	ISIslide	AvoidedLoss	True
671.523	0.25	Win2	0.6806	0.0	Yes	2.727	0.023	n/a	GoodResponse	1	n/a	n/a	10	71	Cue	Win	True
671.773	4.05	Win2	0.6806	0.0	Yes	2.727	0.0	n/a	GoodResponse	1	n/a	n/a	10	71	Fixation	Win	True
675.822	0.44	Win2	0.6806	0.001	Yes	2.727	-0.001	2.0	GoodResponse	1	0.238	675.06	10	71	Target	Win	True
676.06	0.3	Win2	0.6806	0.001	Yes	2.727	-0.001	2.0	GoodResponse	1	0.238	n/a	10	71	ButtonPress	Win	True
676.272	0.26	Win2	0.6806	n/a	Yes	2.727	n/a	n/a	GoodResponse	1	n/a	n/a	10	71	Blank	Win	True
676.522	1.45	Win2	0.6806	n/a	Yes	2.727	n/a	5.0	GoodResponse	1	0.032	675.554	10	71	Feedback	Win	True
677.971	2.727	Win2	0.6806	n/a	Yes	2.727	n/a	n/a	GoodResponse	1	0.0	n/a	10	71	ISIslide	Win	True
680.72	0.25	Win2	0.6712	0.0	No	2.78	0.02	n/a	NoResponse	0	n/a	n/a	10	72	Cue	MissedWin	True
680.97	4.1	Win2	0.6712	0.0	No	2.78	0.0	n/a	NoResponse	0	n/a	n/a	10	72	Fixation	MissedWin	True
685.068	0.43	Win2	0.6712	0.002	No	2.78	-0.002	2.0	NoResponse	0	0.482	684.55	10	72	Target	MissedWin	True
685.502	0.27	Win2	0.6712	n/a	No	2.78	n/a	n/a	NoResponse	0	n/a	n/a	10	72	Blank	MissedWin	True
685.55	0.3	Win2	0.6712	0.002	No	2.78	-0.002	2.0	NoResponse	0	0.482	n/a	10	72	ButtonPress	MissedWin	True
685.768	1.45	Win2	0.6712	n/a	No	2.78	n/a	5.0	NoResponse	0	0.008	684.776	10	72	Feedback	MissedWin	True
687.218	2.78	Win2	0.6712	n/a	No	2.78	n/a	n/a	NoResponse	0	0.0	n/a	10	72	ISIslide	MissedWin	True
690.017	0.25	Win2	0.6757	0.0	Yes	2.683	0.017	n/a	GoodResponse	1	n/a	n/a	11	73	Cue	Win	True
690.267	4.0	Win2	0.6757	0.0	Yes	2.683	0.0	n/a	GoodResponse	1	n/a	n/a	11	73	Fixation	Win	True
694.265	0.42	Win2	0.6757	0.002	Yes	2.683	-0.002	2.0	GoodResponse	1	0.277	693.542	11	73	Target	Win	True
694.542	0.3	Win2	0.6757	0.002	Yes	2.683	-0.002	2.0	GoodResponse	1	0.277	n/a	11	73	ButtonPress	Win	True
694.698	0.28	Win2	0.6757	n/a	Yes	2.683	n/a	n/a	GoodResponse	1	n/a	n/a	11	73	Blank	Win	True
694.965	1.45	Win2	0.6757	n/a	Yes	2.683	n/a	5.0	GoodResponse	1	0.027	693.992	11	73	Feedback	Win	True
696.414	2.683	Win2	0.6757	n/a	Yes	2.683	n/a	n/a	GoodResponse	1	0.0	n/a	11	73	ISIslide	Win	True
699.13	0.25	Lose2	0.68	0.0	Yes	2.62	0.03	n/a	GoodResponse	0	n/a	n/a	11	74	Cue	AvoidedLoss	True
699.38	4.05	Lose2	0.68	0.0	Yes	2.62	0.0	n/a	GoodResponse	0	n/a	n/a	11	74	Fixation	AvoidedLoss	True
703.429	0.41	Lose2	0.68	0.001	Yes	2.62	-0.001	2.0	GoodResponse	0	0.233	702.662	11	74	Target	AvoidedLoss	True
703.662	0.3	Lose2	0.68	0.001	Yes	2.62	-0.001	2.0	GoodResponse	0	0.233	n/a	11	74	ButtonPress	AvoidedLoss	True
703.845	0.29	Lose2	0.68	n/a	Yes	2.62	n/a	n/a	GoodResponse	0	n/a	n/a	11	74	Blank	AvoidedLoss	True
704.128	1.45	Lose2	0.68	n/a	Yes	2.62	n/a	5.0	GoodResponse	0	0.035	703.163	11	74	Feedback	AvoidedLoss	True
705.578	2.62	Lose2	0.68	n/a	Yes	2.62	n/a	n/a	GoodResponse	0	0.0	n/a	11	74	ISIslide	AvoidedLoss	True
708.227	0.25	Lose2	0.6842	0.0	Yes	2.923	0.027	n/a	GoodResponse	0	n/a	n/a	11	75	Cue	AvoidedLoss	True
708.477	3.95	Lose2	0.6842	0.0	Yes	2.923	0.0	n/a	GoodResponse	0	n/a	n/a	11	75	Fixation	AvoidedLoss	True
712.425	0.4	Lose2	0.6842	0.002	Yes	2.923	-0.002	2.0	GoodResponse	0	0.227	711.652	11	75	Target	AvoidedLoss	True
712.652	0.3	Lose2	0.6842	0.002	Yes	2.923	-0.002	2.0	GoodResponse	0	0.227	n/a	11	75	ButtonPress	AvoidedLoss	True
712.825	0.3	Lose2	0.6842	n/a	Yes	2.923	n/a	n/a	GoodResponse	0	n/a	n/a	11	75	Blank	AvoidedLoss	True
713.125	1.45	Lose2	0.6842	n/a	Yes	2.923	n/a	5.0	GoodResponse	0	0.014	712.139	11	75	Feedback	AvoidedLoss	True
714.575	2.923	Lose2	0.6842	n/a	Yes	2.923	n/a	n/a	GoodResponse	0	0.0	n/a	11	75	ISIslide	AvoidedLoss	True
717.524	0.25	Control	0.6883	0.0	Yes	3.226	0.024	n/a	GoodResponse	0	n/a	n/a	11	76	Cue	Neutral	True
717.774	4.05	Control	0.6883	0.0	Yes	3.226	0.0	n/a	GoodResponse	0	n/a	n/a	11	76	Fixation	Neutral	True
721.822	0.39	Control	0.6883	0.002	Yes	3.226	-0.002	2.0	GoodResponse	0	0.249	721.071	11	76	Target	Neutral	True
722.071	0.3	Control	0.6883	0.002	Yes	3.226	-0.002	2.0	GoodResponse	0	0.249	n/a	11	76	ButtonPress	Neutral	True
722.222	0.31	Control	0.6883	n/a	Yes	3.226	n/a	n/a	GoodResponse	0	n/a	n/a	11	76	Blank	Neutral	True
722.522	1.45	Control	0.6883	n/a	Yes	3.226	n/a	5.0	GoodResponse	0	0.031	721.553	11	76	Feedback	Neutral	True
723.971	3.226	Control	0.6883	n/a	Yes	3.226	n/a	n/a	GoodResponse	0	0.0	n/a	11	76	ISIslide	Neutral	True
727.22	0.25	Lose2	0.6923	0.0	Yes	2.58	0.02	n/a	GoodResponse	0	n/a	n/a	11	77	Cue	AvoidedLoss	True
727.47	3.95	Lose2	0.6923	0.0	Yes	2.58	0.0	n/a	GoodResponse	0	n/a	n/a	11	77	Fixation	AvoidedLoss	True
731.419	0.38	Lose2	0.6923	0.001	Yes	2.58	-0.001	2.0	GoodResponse	0	0.269	730.688	11	77	Target	AvoidedLoss	True
731.688	0.3	Lose2	0.6923	0.001	Yes	2.58	-0.001	2.0	GoodResponse	0	0.269	n/a	11	77	ButtonPress	AvoidedLoss	True
731.802	0.32	Lose2	0.6923	n/a	Yes	2.58	n/a	n/a	GoodResponse	0	n/a	n/a	11	77	Blank	AvoidedLoss	True
732.118	1.45	Lose2	0.6923	n/a	Yes	2.58	n/a	5.0	GoodResponse	0	0.044	731.162	11	77	Feedback	AvoidedLoss	True
733.568	2.58	Lose2	0.6923	n/a	Yes	2.58	n/a	n/a	GoodResponse	0	0.0	n/a	11	77	ISIslide	AvoidedLoss	True
