onset	duration	cue_type	current_mean_accuracy	duration_error	is_hit	isi_adjusted	onset_delay	response	response_type	reward	rt	rt_time	total_reward	trial_number	trial_phase	trial_type	one_press
11.106	0.25	Control	1.0	0.0	Yes	2.944	0.006	n/a	GoodResponse	0	n/a	n/a	0	0	Cue	Neutral	True
11.357	3.85	Control	1.0	0.0	Yes	2.944	0.001	n/a	GoodResponse	0	n/a	n/a	0	0	Fixation	Neutral	True
15.202	0.4	Control	1.0	0.004	Yes	2.944	-0.004	2.0	GoodResponse	0	0.22	14.422	0	0	Target	Neutral	True
15.422	0.3	Control	1.0	0.004	Yes	2.944	-0.004	2.0	GoodResponse	0	0.22	n/a	0	0	ButtonPress	Neutral	True
15.603	0.3	Control	1.0	n/a	Yes	2.944	n/a	n/a	GoodResponse	0	n/a	n/a	0	0	Blank	Neutral	True
15.904	1.45	Control	1.0	n/a	Yes	2.944	n/a	5.0	GoodResponse	0	0.023	14.927	0	0	Feedback	Neutral	True
17.358	2.944	Control	1.0	n/a	Yes	2.944	n/a	n/a	GoodResponse	0	0.0	n/a	0	0	ISIslide	Neutral	True
20.384	0.25	Lose2	1.0	0.0	Yes	2.716	0.084	n/a	GoodResponse	0	n/a	n/a	0	1	Cue	AvoidedLoss	True
20.634	4.0	Lose2	1.0	0.001	Yes	2.716	0.0	n/a	GoodResponse	0	n/a	n/a	0	1	Fixation	AvoidedLoss	True
24.63	0.39	Lose2	1.0	0.004	Yes	2.716	-0.004	2.0	GoodResponse	0	0.203	23.833	0	1	Target	AvoidedLoss	True
24.833	0.3	Lose2	1.0	0.004	Yes	2.716	-0.004	2.0	GoodResponse	0	0.203	n/a	0	1	ButtonPress	AvoidedLoss	True
25.031	0.31	Lose2	1.0	n/a	Yes	2.716	n/a	n/a	GoodResponse	0	n/a	n/a	0	1	Blank	AvoidedLoss	True
25.332	1.45	Lose2	1.0	n/a	Yes	2.716	n/a	5.0	GoodResponse	0	0.009	24.341	0	1	Feedback	AvoidedLoss	True
26.786	2.716	Lose2	1.0	n/a	Yes	2.716	n/a	n/a	GoodResponse	0	0.0	n/a	0	1	ISIslide	AvoidedLoss	True
29.528	0.25	Control	1.0	0.0	Yes	2.572	0.028	n/a	GoodResponse	0	n/a	n/a	0	2	Cue	Neutral	True
29.779	4.1	Control	1.0	0.0	Yes	2.572	0.001	n/a	GoodResponse	0	n/a	n/a	0	2	Fixation	Neutral	True
33.874	0.38	Control	1.0	0.004	Yes	2.572	-0.004	2.0	GoodResponse	0	0.223	33.097	0	2	Target	Neutral	True
34.097	0.3	Control	1.0	0.004	Yes	2.572	-0.004	2.0	GoodResponse	0	0.223	n/a	0	2	ButtonPress	Neutral	True
34.259	0.32	Control	1.0	n/a	Yes	2.572	n/a	n/a	GoodResponse	0	n/a	n/a	0	2	Blank	Neutral	True
34.576	1.45	Control	1.0	n/a	Yes	2.572	n/a	5.0	GoodResponse	0	0.033	33.609	0	2	Feedback	Neutral	True
36.031	2.572	Control	1.0	n/a	Yes	2.572	n/a	n/a	GoodResponse	0	0.0	n/a	0	2	ISIslide	Neutral	True
38.622	0.25	Win2	1.0	0.0	Yes	2.828	0.022	n/a	GoodResponse	1	n/a	n/a	1	3	Cue	Win	True
38.872	3.95	Win2	1.0	0.001	Yes	2.828	0.0	n/a	GoodResponse	1	n/a	n/a	1	3	Fixation	Win	True
42.818	0.37	Win2	1.0	0.004	Yes	2.828	-0.004	2.0	GoodResponse	1	0.213	42.031	1	3	Target	Win	True
43.031	0.3	Win2	1.0	0.004	Yes	2.828	-0.004	2.0	GoodResponse	1	0.213	n/a	1	3	ButtonPress	Win	True
43.202	0.33	Win2	1.0	n/a	Yes	2.828	n/a	n/a	GoodResponse	1	n/a	n/a	1	3	Blank	Win	True
43.52	1.45	Win2	1.0	n/a	Yes	2.828	n/a	5.0	GoodResponse	1	0.016	42.536	1	3	Feedback	Win	True
44.974	2.828	Win2	1.0	n/a	Yes	2.828	n/a	n/a	GoodResponse	1	0.0	n/a	1	3	ISIslide	Win	True
47.816	0.25	Win2	1.0	0.0	Yes	3.284	0.016	n/a	GoodResponse	1	n/a	n/a	2	4	Cue	Win	True
48.067	4.0	Win2	1.0	0.0	Yes	3.284	0.001	n/a	GoodResponse	1	n/a	n/a	2	4	Fixation	Win	True
52.062	0.36	Win2	1.0	0.004	Yes	3.284	-0.004	2.0	GoodResponse	1	0.239	51.301	2	4	Target	Win	True
52.301	0.3	Win2	1.0	0.004	Yes	3.284	-0.004	2.0	GoodResponse	1	0.239	n/a	2	4	ButtonPress	Win	True
52.43	0.34	Win2	1.0	n/a	Yes	3.284	n/a	n/a	GoodResponse	1	n/a	n/a	2	4	Blank	Win	True
52.764	1.45	Win2	1.0	n/a	Yes	3.284	n/a	5.0	GoodResponse	1	0.04	51.804	2	4	Feedback	Win	True
54.218	3.284	Win2	1.0	n/a	Yes	3.284	n/a	n/a	GoodResponse	1	0.0	n/a	2	4	ISIslide	Win	True
57.528	0.25	Win2	1.0	0.0	Yes	2.772	0.028	n/a	GoodResponse	1	n/a	n/a	3	5	Cue	Win	True
57.779	4.0	Win2	1.0	0.0	Yes	2.772	0.001	n/a	GoodResponse	1	n/a	n/a	3	5	Fixation	Win	True
61.774	0.35	Win2	1.0	0.004	Yes	2.772	-0.004	2.0	GoodResponse	1	0.258	61.032	3	5	Target	Win	True
62.032	0.3	Win2	1.0	0.004	Yes	2.772	-0.004	2.0	GoodResponse	1	0.258	n/a	3	5	ButtonPress	Win	True
62.125	0.35	Win2	1.0	n/a	Yes	2.772	n/a	n/a	GoodResponse	1	n/a	n/a	3	5	Blank	Win	True
62.476	1.45	Win2	1.0	n/a	Yes	2.772	n/a	5.0	GoodResponse	1	0.036	61.512	3	5	Feedback	Win	True
63.931	2.772	Win2	1.0	n/a	Yes	2.772	n/a	n/a	GoodResponse	1	0.0	n/a	3	5	ISIslide	Win	True
66.723	0.25	Lose2	1.0	0.0	Yes	2.727	0.023	n/a	GoodResponse	0	n/a	n/a	3	6	Cue	AvoidedLoss	True
66.973	3.95	Lose2	1.0	0.0	Yes	2.727	0.0	n/a	GoodResponse	0	n/a	n/a	3	6	Fixation	AvoidedLoss	True
70.935	0.34	Lose2	1.0	0.0	Yes	2.727	0.012	2.0	GoodResponse	0	0.201	70.136	3	6	Target	AvoidedLoss	True
71.136	0.3	Lose2	1.0	0.0	Yes	2.727	0.012	2.0	GoodResponse	0	0.201	n/a	3	6	ButtonPress	AvoidedLoss	True
71.27	0.36	Lose2	1.0	n/a	Yes	2.727	n/a	n/a	GoodResponse	0	n/a	n/a	3	6	Blank	AvoidedLoss	True
71.621	1.45	Lose2	1.0	n/a	Yes	2.727	n/a	5.0	GoodResponse	0	0.013	70.634	3	6	Feedback	AvoidedLoss	True
73.075	2.727	Lose2	1.0	n/a	Yes	2.727	n/a	n/a	GoodResponse	0	0.0	n/a	3	6	ISIslide	AvoidedLoss	True
75.816	0.25	Lose2	1.0	0.001	Yes	4.034	0.016	n/a	GoodResponse	0	n/a	n/a	3	7	Cue	AvoidedLoss	True
76.067	4.05	Lose2	1.0	0.0	Yes	4.034	0.001	n/a	GoodResponse	0	n/a	n/a	3	7	Fixation	AvoidedLoss	True
80.113	0.33	Lose2	1.0	0.003	Yes	4.034	-0.003	2.0	GoodResponse	0	0.193	79.306	3	7	Target	AvoidedLoss	True
80.306	0.3	Lose2	1.0	0.003	Yes	4.034	-0.003	2.0	GoodResponse	0	0.193	n/a	3	7	ButtonPress	AvoidedLoss	True
80.447	0.37	Lose2	1.0	n/a	Yes	4.034	n/a	n/a	GoodResponse	0	n/a	n/a	3	7	Blank	AvoidedLoss	True
80.815	1.45	Lose2	1.0	n/a	Yes	4.034	n/a	5.0	GoodResponse	0	0.037	79.852	3	7	Feedback	AvoidedLoss	True
82.269	4.034	Lose2	1.0	n/a	Yes	4.034	n/a	n/a	GoodResponse	0	0.0	n/a	3	7	ISIslide	AvoidedLoss	True
86.315	0.25	Lose2	1.0	0.0	Yes	3.035	0.015	n/a	GoodResponse	0	n/a	n/a	3	8	Cue	AvoidedLoss	True
86.565	3.95	Lose2	1.0	0.0	Yes	3.035	0.0	n/a	GoodResponse	0	n/a	n/a	3	8	Fixation	AvoidedLoss	True
90.527	0.32	Lose2	1.0	0.0	Yes	3.035	0.012	2.0	GoodResponse	0	0.203	89.73	3	8	Target	AvoidedLoss	True
90.73	0.3	Lose2	1.0	0.0	Yes	3.035	0.012	2.0	GoodResponse	0	0.203	n/a	3	8	ButtonPress	AvoidedLoss	True
90.845	0.38	Lose2	1.0	n/a	Yes	3.035	n/a	n/a	GoodResponse	0	n/a	n/a	3	8	Blank	AvoidedLoss	True
91.213	1.45	Lose2	1.0	n/a	Yes	3.035	n/a	5.0	GoodResponse	0	0.03	90.243	3	8	Feedback	AvoidedLoss	True
92.667	3.035	Lose2	1.0	n/a	Yes	3.035	n/a	n/a	GoodResponse	0	0.0	n/a	3	8	ISIslide	AvoidedLoss	True
95.726	0.25	Lose2	1.0	0.0	Yes	3.124	0.026	n/a	GoodResponse	0	n/a	n/a	3	9	Cue	AvoidedLoss	True
95.977	3.95	Lose2	1.0	0.0	Yes	3.124	0.001	n/a	GoodResponse	0	n/a	n/a	3	9	Fixation	AvoidedLoss	True
99.922	0.31	Lose2	1.0	0.004	Yes	3.124	-0.004	2.0	GoodResponse	0	0.127	99.049	3	9	Target	AvoidedLoss	True
100.049	0.3	Lose2	1.0	0.004	Yes	3.124	-0.004	2.0	GoodResponse	0	0.127	n/a	3	9	ButtonPress	AvoidedLoss	True
100.24	0.39	Lose2	1.0	n/a	Yes	3.124	n/a	n/a	GoodResponse	0	n/a	n/a	3	9	Blank	AvoidedLoss	True
100.624	1.45	Lose2	1.0	n/a	Yes	3.124	n/a	5.0	GoodResponse	0	0.034	99.658	3	9	Feedback	AvoidedLoss	True
102.078	3.124	Lose2	1.0	n/a	Yes	3.124	n/a	n/a	GoodResponse	0	0.0	n/a	3	9	ISIslide	AvoidedLoss	True
105.221	0.25	Control	1.0	0.0	Yes	3.279	0.021	n/a	GoodResponse	0	n/a	n/a	3	10	Cue	Neutral	True
105.472	4.0	Control	1.0	0.0	Yes	3.279	0.001	n/a	GoodResponse	0	n/a	n/a	3	10	Fixation	Neutral	True
109.467	0.3	Control	1.0	0.004	Yes	3.279	-0.004	2.0	GoodResponse	0	0.248	108.715	3	10	Target	Neutral	True
109.715	0.3	Control	1.0	0.004	Yes	3.279	-0.004	2.0	GoodResponse	0	0.248	n/a	3	10	ButtonPress	Neutral	True
109.768	0.4	Control	1.0	n/a	Yes	3.279	n/a	n/a	GoodResponse	0	n/a	n/a	3	10	Blank	Neutral	True
110.169	1.45	Control	1.0	n/a	Yes	3.279	n/a	5.0	GoodResponse	0	0.001	109.17	3	10	Feedback	Neutral	True
111.624	3.279	Control	1.0	n/a	Yes	3.279	n/a	n/a	GoodResponse	0	0.0	n/a	3	10	ISIslide	Neutral	True
114.917	0.25	Lose2	1.0	0.0	Yes	2.733	0.017	n/a	GoodResponse	0	n/a	n/a	3	11	Cue	AvoidedLoss	True
115.168	4.05	Lose2	1.0	0.0	Yes	2.733	0.001	n/a	GoodResponse	0	n/a	n/a	3	11	Fixation	AvoidedLoss	True
119.213	0.29	Lose2	1.0	0.004	Yes	2.733	-0.004	2.0	GoodResponse	0	0.188	118.401	3	11	Target	AvoidedLoss	True
119.401	0.3	Lose2	1.0	0.004	Yes	2.733	-0.004	2.0	GoodResponse	0	0.188	n/a	3	11	ButtonPress	AvoidedLoss	True
119.514	0.41	Lose2	1.0	n/a	Yes	2.733	n/a	n/a	GoodResponse	0	n/a	n/a	3	11	Blank	AvoidedLoss	True
119.915	1.45	Lose2	1.0	n/a	Yes	2.733	n/a	5.0	GoodResponse	0	0.011	118.926	3	11	Feedback	AvoidedLoss	True
121.37	2.733	Lose2	1.0	n/a	Yes	2.733	n/a	n/a	GoodResponse	0	0.0	n/a	3	11	ISIslide	AvoidedLoss	True
124.128	0.25	Control	1.0	0.0	Yes	2.972	0.028	n/a	GoodResponse	0	n/a	n/a	3	12	Cue	Neutral	True
124.379	3.9	Control	1.0	0.0	Yes	2.972	0.001	n/a	GoodResponse	0	n/a	n/a	3	12	Fixation	Neutral	True
128.274	0.28	Control	1.0	0.004	Yes	2.972	-0.004	2.0	GoodResponse	0	0.232	127.506	3	12	Target	Neutral	True
128.506	0.3	Control	1.0	0.004	Yes	2.972	-0.004	2.0	GoodResponse	0	0.232	n/a	3	12	ButtonPress	Neutral	True
128.558	0.42	Control	1.0	n/a	Yes	2.972	n/a	n/a	GoodResponse	0	n/a	n/a	3	12	Blank	Neutral	True
128.976	1.45	Control	1.0	n/a	Yes	2.972	n/a	5.0	GoodResponse	0	0.023	127.999	3	12	Feedback	Neutral	True
130.43	2.972	Control	1.0	n/a	Yes	2.972	n/a	n/a	GoodResponse	0	0.0	n/a	3	12	ISIslide	Neutral	True
133.422	0.25	Control	1.0	0.0	Yes	2.778	0.022	n/a	GoodResponse	0	n/a	n/a	3	13	Cue	Neutral	True
133.673	4.0	Control	1.0	0.0	Yes	2.778	0.001	n/a	GoodResponse	0	n/a	n/a	3	13	Fixation	Neutral	True
137.668	0.27	Control	1.0	0.004	Yes	2.778	-0.004	2.0	GoodResponse	0	0.207	136.875	3	13	Target	Neutral	True
137.875	0.3	Control	1.0	0.004	Yes	2.778	-0.004	2.0	GoodResponse	0	0.207	n/a	3	13	ButtonPress	Neutral	True
137.953	0.43	Control	1.0	n/a	Yes	2.778	n/a	n/a	GoodResponse	0	n/a	n/a	3	13	Blank	Neutral	True
138.371	1.45	Control	1.0	n/a	Yes	2.778	n/a	5.0	GoodResponse	0	0.043	137.414	3	13	Feedback	Neutral	True
139.825	2.778	Control	1.0	n/a	Yes	2.778	n/a	n/a	GoodResponse	0	0.0	n/a	3	13	ISIslide	Neutral	True
142.617	0.25	Win2	1.0	0.0	Yes	2.683	0.017	n/a	GoodResponse	1	n/a	n/a	4	14	Cue	Win	True
142.867	4.1	Win2	1.0	0.0	Yes	2.683	0.0	n/a	GoodResponse	1	n/a	n/a	4	14	Fixation	Win	True
146.963	0.26	Win2	1.0	0.004	Yes	2.683	-0.004	2.0	GoodResponse	1	0.197	146.16	4	14	Target	Win	True
147.16	0.3	Win2	1.0	0.004	Yes	2.683	-0.004	2.0	GoodResponse	1	0.197	n/a	4	14	ButtonPress	Win	True
147.23	0.44	Win2	1.0	n/a	Yes	2.683	n/a	n/a	GoodResponse	1	n/a	n/a	4	14	Blank	Win	True
147.665	1.45	Win2	1.0	n/a	Yes	2.683	n/a	5.0	GoodResponse	1	0.016	146.681	4	14	Feedback	Win	True
149.119	2.683	Win2	1.0	n/a	Yes	2.683	n/a	n/a	GoodResponse	1	0.0	n/a	4	14	ISIslide	Win	True
151.828	0.25	Control	1.0	0.0	Yes	2.972	0.028	n/a	GoodResponse	0	n/a	n/a	4	15	Cue	Neutral	True
152.078	4.0	Control	1.0	0.0	Yes	2.972	0.0	n/a	GoodResponse	0	n/a	n/a	4	15	Fixation	Neutral	True
156.074	0.25	Control	1.0	0.004	Yes	2.972	-0.004	2.0	GoodResponse	0	0.219	155.293	4	15	Target	Neutral	True
156.293	0.3	Control	1.0	0.004	Yes	2.972	-0.004	2.0	GoodResponse	0	0.219	n/a	4	15	ButtonPress	Neutral	True
156.324	0.45	Control	1.0	n/a	Yes	2.972	n/a	n/a	GoodResponse	0	n/a	n/a	4	15	Blank	Neutral	True
156.776	1.45	Control	1.0	n/a	Yes	2.972	n/a	5.0	GoodResponse	0	0.027	155.803	4	15	Feedback	Neutral	True
158.23	2.972	Control	1.0	n/a	Yes	2.972	n/a	n/a	GoodResponse	0	0.0	n/a	4	15	ISIslide	Neutral	True
161.222	0.25	Win2	0.9412	0.0	No	2.878	0.022	n/a	LatePress	0	n/a	n/a	4	16	Cue	MissedWin	True
161.473	4.0	Win2	0.9412	0.0	No	2.878	0.001	n/a	LatePress	0	n/a	n/a	4	16	Fixation	MissedWin	True
165.468	0.24	Win2	0.9412	0.004	No	2.878	-0.004	2.0	LatePress	0	0.241	164.709	4	16	Target	MissedWin	True
165.709	0.3	Win2	0.9412	0.004	No	2.878	-0.004	2.0	LatePress	0	0.241	n/a	4	16	ButtonPress	MissedWin	True
165.719	0.46	Win2	0.9412	n/a	No	2.878	n/a	n/a	LatePress	0	n/a	n/a	4	16	Blank	MissedWin	True
166.171	1.45	Win2	0.9412	n/a	No	2.878	n/a	5.0	LatePress	0	0.047	165.218	4	16	Feedback	MissedWin	True
167.625	2.878	Win2	0.9412	n/a	No	2.878	n/a	n/a	LatePress	0	0.0	n/a	4	16	ISIslide	MissedWin	True
170.517	0.25	Lose2	0.9444	0.0	Yes	2.733	0.017	n/a	GoodResponse	0	n/a	n/a	4	17	Cue	AvoidedLoss	True
170.768	3.95	Lose2	0.9444	0.0	Yes	2.733	0.001	n/a	GoodResponse	0	n/a	n/a	4	17	Fixation	AvoidedLoss	True
174.713	0.23	Lose2	0.9444	0.004	Yes	2.733	-0.004	2.0	GoodResponse	0	0.215	173.928	4	17	Target	AvoidedLoss	True
174.928	0.3	Lose2	0.9444	0.004	Yes	2.733	-0.004	2.0	GoodResponse	0	0.215	n/a	4	17	ButtonPress	AvoidedLoss	True
174.947	0.47	Lose2	0.9444	n/a	Yes	2.733	n/a	n/a	GoodResponse	0	n/a	n/a	4	17	Blank	AvoidedLoss	True
175.415	1.45	Lose2	0.9444	n/a	Yes	2.733	n/a	5.0	GoodResponse	0	0.023	174.438	4	17	Feedback	AvoidedLoss	True
176.869	2.733	Lose2	0.9444	n/a	Yes	2.733	n/a	n/a	GoodResponse	0	0.0	n/a	4	17	ISIslide	AvoidedLoss	True
179.628	0.25	Lose2	0.9473999999999999	0.0	Yes	2.722	0.028	n/a	GoodResponse	0	n/a	n/a	4	18	Cue	AvoidedLoss	True
179.878	4.05	Lose2	0.9473999999999999	0.0	Yes	2.722	0.0	n/a	GoodResponse	0	n/a	n/a	4	18	Fixation	AvoidedLoss	True
183.924	0.22	Lose2	0.9473999999999999	0.004	Yes	2.722	-0.004	2.0	GoodResponse	0	0.214	183.138	4	18	Target	AvoidedLoss	True
184.138	0.3	Lose2	0.9473999999999999	0.004	Yes	2.722	-0.004	2.0	GoodResponse	0	0.214	n/a	4	18	ButtonPress	AvoidedLoss	True
184.158	0.48	Lose2	0.9473999999999999	n/a	Yes	2.722	n/a	n/a	GoodResponse	0	n/a	n/a	4	18	Blank	AvoidedLoss	True
184.626	1.45	Lose2	0.9473999999999999	n/a	Yes	2.722	n/a	5.0	GoodResponse	0	0.031	183.657	4	18	Feedback	AvoidedLoss	True
186.08	2.722	Lose2	0.9473999999999999	n/a	Yes	2.722	n/a	n/a	GoodResponse	0	0.0	n/a	4	18	ISIslide	AvoidedLoss	True
188.822	0.25	Control	0.9	0.0	No	2.928	0.022	n/a	NoResponse	0	n/a	n/a	4	19	Cue	Neutral	True
189.072	3.95	Control	0.9	0.001	No	2.928	0.0	n/a	NoResponse	0	n/a	n/a	4	19	Fixation	Neutral	True
193.018	0.21	Control	0.9	0.004	No	2.928	-0.004	2.0	NoResponse	0	0.222	192.24	4	19	Target	Neutral	True
193.235	0.49	Control	0.9	n/a	No	2.928	n/a	n/a	NoResponse	0	n/a	n/a	4	19	Blank	Neutral	True
193.24	0.3	Control	0.9	0.004	No	2.928	-0.004	2.0	NoResponse	0	0.222	n/a	4	19	ButtonPress	Neutral	True
193.72	1.45	Control	0.9	n/a	No	2.928	n/a	5.0	NoResponse	0	0.011	192.731	4	19	Feedback	Neutral	True
195.174	2.928	Control	0.9	n/a	No	2.928	n/a	n/a	NoResponse	0	0.0	n/a	4	19	ISIslide	Neutral	True
198.116	0.25	Control	0.8571	0.0	No	2.634	0.016	n/a	NoResponse	0	n/a	n/a	4	20	Cue	Neutral	True
198.367	4.05	Control	0.8571	0.0	No	2.634	0.001	n/a	NoResponse	0	n/a	n/a	4	20	Fixation	Neutral	True
202.412	0.2	Control	0.8571	0.004	No	2.634	-0.004	2.0	NoResponse	0	0.209	201.621	4	20	Target	Neutral	True
202.613	0.5	Control	0.8571	n/a	No	2.634	n/a	n/a	NoResponse	0	n/a	n/a	4	20	Blank	Neutral	True
202.621	0.3	Control	0.8571	0.004	No	2.634	-0.004	2.0	NoResponse	0	0.209	n/a	4	20	ButtonPress	Neutral	True
203.115	1.45	Control	0.8571	n/a	No	2.634	n/a	5.0	NoResponse	0	0.03	202.145	4	20	Feedback	Neutral	True
204.569	2.634	Control	0.8571	n/a	No	2.634	n/a	n/a	NoResponse	0	0.0	n/a	4	20	ISIslide	Neutral	True
207.227	0.25	Control	0.8636	0.0	Yes	2.773	0.027	n/a	GoodResponse	0	n/a	n/a	4	21	Cue	Neutral	True
207.478	4.1	Control	0.8636	0.0	Yes	2.773	0.001	n/a	GoodResponse	0	n/a	n/a	4	21	Fixation	Neutral	True
211.573	0.19	Control	0.8636	0.004	Yes	2.773	-0.004	2.0	GoodResponse	0	0.188	210.761	4	21	Target	Neutral	True
211.761	0.3	Control	0.8636	0.004	Yes	2.773	-0.004	2.0	GoodResponse	0	0.188	n/a	4	21	ButtonPress	Neutral	True
211.774	0.51	Control	0.8636	n/a	Yes	2.773	n/a	n/a	GoodResponse	0	n/a	n/a	4	21	Blank	Neutral	True
212.275	1.45	Control	0.8636	n/a	Yes	2.773	n/a	5.0	GoodResponse	0	0.04	211.315	4	21	Feedback	Neutral	True
213.73	2.773	Control	0.8636	n/a	Yes	2.773	n/a	n/a	GoodResponse	0	0.0	n/a	4	21	ISIslide	Neutral	True
216.521	0.25	Control	0.8261	0.0	No	2.779	0.021	n/a	NoResponse	0	n/a	n/a	4	22	Cue	Neutral	True
216.772	4.0	Control	0.8261	0.0	No	2.779	0.001	n/a	NoResponse	0	n/a	n/a	4	22	Fixation	Neutral	True
220.767	0.18	Control	0.8261	0.004	No	2.779	-0.004	2.0	NoResponse	0	0.209	219.976	4	22	Target	Neutral	True
220.951	0.52	Control	0.8261	n/a	No	2.779	n/a	n/a	NoResponse	0	n/a	n/a	4	22	Blank	Neutral	True
220.976	0.3	Control	0.8261	0.004	No	2.779	-0.004	2.0	NoResponse	0	0.209	n/a	4	22	ButtonPress	Neutral	True
221.47	1.45	Control	0.8261	n/a	No	2.779	n/a	5.0	NoResponse	0	0.016	220.486	4	22	Feedback	Neutral	True
222.924	2.779	Control	0.8261	n/a	No	2.779	n/a	n/a	NoResponse	0	0.0	n/a	4	22	ISIslide	Neutral	True
225.716	0.25	Control	0.7917000000000001	0.0	No	2.784	0.016	n/a	NoResponse	0	n/a	n/a	4	23	Cue	Neutral	True
225.966	3.9	Control	0.7917000000000001	0.0	No	2.784	0.0	n/a	NoResponse	0	n/a	n/a	4	23	Fixation	Neutral	True
229.878	0.17	Control	0.7917000000000001	0.0	No	2.784	0.012	2.0	NoResponse	0	0.213	229.091	4	23	Target	Neutral	True
230.045	0.53	Control	0.7917000000000001	n/a	No	2.784	n/a	n/a	NoResponse	0	n/a	n/a	4	23	Blank	Neutral	True
230.091	0.3	Control	0.7917000000000001	0.0	No	2.784	0.012	2.0	NoResponse	0	0.213	n/a	4	23	ButtonPress	Neutral	True
230.563	1.45	Control	0.7917000000000001	n/a	No	2.784	n/a	5.0	NoResponse	0	0.045	229.608	4	23	Feedback	Neutral	True
232.018	2.784	Control	0.7917000000000001	n/a	No	2.784	n/a	n/a	NoResponse	0	0.0	n/a	4	23	ISIslide	Neutral	True
234.826	0.25	Win2	0.76	0.0	No	3.124	0.026	n/a	NoResponse	0	n/a	n/a	4	24	Cue	MissedWin	True
235.077	3.95	Win2	0.76	0.0	No	3.124	0.001	n/a	NoResponse	0	n/a	n/a	4	24	Fixation	MissedWin	True
239.022	0.16	Win2	0.76	0.004	No	3.124	-0.004	2.0	NoResponse	0	0.205	238.227	4	24	Target	MissedWin	True
239.189	0.54	Win2	0.76	n/a	No	3.124	n/a	n/a	NoResponse	0	n/a	n/a	4	24	Blank	MissedWin	True
239.227	0.3	Win2	0.76	0.004	No	3.124	-0.004	2.0	NoResponse	0	0.205	n/a	4	24	ButtonPress	MissedWin	True
239.724	1.45	Win2	0.76	n/a	No	3.124	n/a	5.0	NoResponse	0	0.006	238.73	4	24	Feedback	MissedWin	True
241.179	3.124	Win2	0.76	n/a	No	3.124	n/a	n/a	NoResponse	0	0.0	n/a	4	24	ISIslide	MissedWin	True
244.321	0.25	Win2	0.7308	0.0	No	3.079	0.021	n/a	NoResponse	0	n/a	n/a	4	25	Cue	MissedWin	True
244.572	4.0	Win2	0.7308	0.0	No	3.079	0.001	n/a	NoResponse	0	n/a	n/a	4	25	Fixation	MissedWin	True
248.567	0.15	Win2	0.7308	0.004	No	3.079	-0.004	2.0	NoResponse	0	0.211	247.778	4	25	Target	MissedWin	True
248.718	0.55	Win2	0.7308	n/a	No	3.079	n/a	n/a	NoResponse	0	n/a	n/a	4	25	Blank	MissedWin	True
248.778	0.3	Win2	0.7308	0.004	No	3.079	-0.004	2.0	NoResponse	0	0.211	n/a	4	25	ButtonPress	MissedWin	True
249.27	1.45	Win2	0.7308	n/a	No	3.079	n/a	5.0	NoResponse	0	0.021	248.291	4	25	Feedback	MissedWin	True
250.724	3.079	Win2	0.7308	n/a	No	3.079	n/a	n/a	NoResponse	0	0.0	n/a	4	25	ISIslide	MissedWin	True
253.816	0.25	Win2	0.7037	0.001	No	2.934	0.016	n/a	NoResponse	0	n/a	n/a	4	26	Cue	MissedWin	True
254.067	3.95	Win2	0.7037	0.0	No	2.934	0.001	n/a	NoResponse	0	n/a	n/a	4	26	Fixation	MissedWin	True
258.012	0.15	Win2	0.7037	0.004	No	2.934	-0.004	2.0	NoResponse	0	0.279	257.291	4	26	Target	MissedWin	True
258.163	0.55	Win2	0.7037	n/a	No	2.934	n/a	n/a	NoResponse	0	n/a	n/a	4	26	Blank	MissedWin	True
258.291	0.3	Win2	0.7037	0.004	No	2.934	-0.004	2.0	NoResponse	0	0.279	n/a	4	26	ButtonPress	MissedWin	True
258.715	1.45	Win2	0.7037	n/a	No	2.934	n/a	5.0	NoResponse	0	0.04	257.755	4	26	Feedback	MissedWin	True
260.169	2.934	Win2	0.7037	n/a	No	2.934	n/a	n/a	NoResponse	0	0.0	n/a	4	26	ISIslide	MissedWin	True
263.128	0.25	Lose2	0.6786	0.0	No	2.822	0.028	n/a	NoResponse	-1	n/a	n/a	3	27	Cue	Loss	True
263.378	4.05	Lose2	0.6786	0.001	No	2.822	0.0	n/a	NoResponse	-1	n/a	n/a	3	27	Fixation	Loss	True
267.424	0.15	Lose2	0.6786	0.004	No	2.822	-0.004	2.0	NoResponse	-1	0.183	266.607	3	27	Target	Loss	True
267.574	0.55	Lose2	0.6786	n/a	No	2.822	n/a	n/a	NoResponse	-1	n/a	n/a	3	27	Blank	Loss	True
267.607	0.3	Lose2	0.6786	0.004	No	2.822	-0.004	2.0	NoResponse	-1	0.183	n/a	3	27	ButtonPress	Loss	True
268.126	1.45	Lose2	0.6786	n/a	No	2.822	n/a	5.0	NoResponse	-1	0.043	267.169	3	27	Feedback	Loss	True
269.58	2.822	Lose2	0.6786	n/a	No	2.822	n/a	n/a	NoResponse	-1	0.0	n/a	3	27	ISIslide	Loss	True
272.422	0.25	Control	0.6552	0.0	No	2.828	0.022	n/a	PrematurePress	0	n/a	n/a	3	28	Cue	Neutral	True
272.673	4.05	Control	0.6552	0.0	No	2.828	0.001	n/a	PrematurePress	0	n/a	n/a	3	28	Fixation	Neutral	True
276.718	0.15	Control	0.6552	0.004	No	2.828	-0.004	2.0	PrematurePress	0	0.08	275.798	3	28	Target	Neutral	True
276.798	0.3	Control	0.6552	0.004	No	2.828	-0.004	2.0	PrematurePress	0	0.08	n/a	3	28	ButtonPress	Neutral	True
276.869	0.55	Control	0.6552	n/a	No	2.828	n/a	n/a	PrematurePress	0	n/a	n/a	3	28	Blank	Neutral	True
277.421	1.45	Control	0.6552	n/a	No	2.828	n/a	5.0	PrematurePress	0	0.016	276.437	3	28	Feedback	Neutral	True
278.875	2.828	Control	0.6552	n/a	No	2.828	n/a	n/a	PrematurePress	0	0.0	n/a	3	28	ISIslide	Neutral	True
281.717	0.25	Lose2	0.6333	0.0	No	2.833	0.017	n/a	NoResponse	-1	n/a	n/a	2	29	Cue	Loss	True
281.968	3.95	Lose2	0.6333	0.0	No	2.833	0.001	2.0	NoResponse	-1	3.933	284.901	2	29	Fixation	Loss	True
285.901	0.3	Lose2	0.6333	0.0	No	2.833	0.001	2.0	NoResponse	-1	3.933	n/a	2	29	ButtonPress	Loss	True
285.913	0.15	Lose2	0.6333	0.004	No	2.833	-0.004	n/a	NoResponse	-1	n/a	n/a	2	29	Target	Loss	True
286.063	0.55	Lose2	0.6333	n/a	No	2.833	n/a	n/a	NoResponse	-1	n/a	n/a	2	29	Blank	Loss	True
286.615	1.45	Lose2	0.6333	n/a	No	2.833	n/a	5.0	NoResponse	-1	0.042	285.657	2	29	Feedback	Loss	True
288.069	2.833	Lose2	0.6333	n/a	No	2.833	n/a	n/a	NoResponse	-1	0.0	n/a	2	29	ISIslide	Loss	True
290.928	0.25	Win2	0.6129	0.0	No	2.772	0.028	n/a	NoResponse	0	n/a	n/a	2	30	Cue	MissedWin	True
291.178	3.9	Win2	0.6129	0.001	No	2.772	0.0	n/a	NoResponse	0	n/a	n/a	2	30	Fixation	MissedWin	True
295.09	0.16	Win2	0.6129	0.0	No	2.772	0.012	2.0	NoResponse	0	0.19	294.28	2	30	Target	MissedWin	True
295.241	0.54	Win2	0.6129	n/a	No	2.772	n/a	n/a	NoResponse	0	n/a	n/a	2	30	Blank	MissedWin	True
295.28	0.3	Win2	0.6129	0.0	No	2.772	0.012	2.0	NoResponse	0	0.19	n/a	2	30	ButtonPress	MissedWin	True
295.776	1.45	Win2	0.6129	n/a	No	2.772	n/a	5.0	NoResponse	0	0.004	294.78	2	30	Feedback	MissedWin	True
297.23	2.772	Win2	0.6129	n/a	No	2.772	n/a	n/a	NoResponse	0	0.0	n/a	2	30	ISIslide	MissedWin	True
300.022	0.25	Lose2	0.5938	0.0	No	2.828	0.022	n/a	LatePress	-1	n/a	n/a	1	31	Cue	Loss	True
300.272	4.05	Lose2	0.5938	0.0	No	2.828	0.0	n/a	LatePress	-1	n/a	n/a	1	31	Fixation	Loss	True
304.318	0.17	Lose2	0.5938	0.004	No	2.828	-0.004	2.0	LatePress	-1	0.179	303.497	1	31	Target	Loss	True
304.497	0.3	Lose2	0.5938	0.004	No	2.828	-0.004	2.0	LatePress	-1	0.179	n/a	1	31	ButtonPress	Loss	True
304.502	0.53	Lose2	0.5938	n/a	No	2.828	n/a	n/a	LatePress	-1	n/a	n/a	1	31	Blank	Loss	True
305.02	1.45	Lose2	0.5938	n/a	No	2.828	n/a	5.0	LatePress	-1	0.027	304.047	1	31	Feedback	Loss	True
306.474	2.828	Lose2	0.5938	n/a	No	2.828	n/a	n/a	LatePress	-1	0.0	n/a	1	31	ISIslide	Loss	True
309.316	0.25	Lose2	0.5758	0.0	No	2.634	0.016	n/a	NoResponse	-1	n/a	n/a	0	32	Cue	Loss	True
309.567	4.15	Lose2	0.5758	0.0	No	2.634	0.001	n/a	NoResponse	-1	n/a	n/a	0	32	Fixation	Loss	True
313.713	0.18	Lose2	0.5758	0.003	No	2.634	-0.003	2.0	NoResponse	-1	0.197	312.91	0	32	Target	Loss	True
313.897	0.52	Lose2	0.5758	n/a	No	2.634	n/a	n/a	NoResponse	-1	n/a	n/a	0	32	Blank	Loss	True
313.91	0.3	Lose2	0.5758	0.003	No	2.634	-0.003	2.0	NoResponse	-1	0.197	n/a	0	32	ButtonPress	Loss	True
314.415	1.45	Lose2	0.5758	n/a	No	2.634	n/a	5.0	NoResponse	-1	0.047	313.462	0	32	Feedback	Loss	True
315.869	2.634	Lose2	0.5758	n/a	No	2.634	n/a	n/a	NoResponse	-1	0.0	n/a	0	32	ISIslide	Loss	True
318.527	0.25	Win2	0.5882000000000001	0.0	Yes	2.673	0.027	n/a	GoodResponse	1	n/a	n/a	1	33	Cue	Win	True
318.778	4.0	Win2	0.5882000000000001	0.0	Yes	2.673	0.001	n/a	GoodResponse	1	n/a	n/a	1	33	Fixation	Win	True
322.773	0.19	Win2	0.5882000000000001	0.004	Yes	2.673	-0.004	2.0	GoodResponse	1	0.188	321.961	1	33	Target	Win	True
322.961	0.3	Win2	0.5882000000000001	0.004	Yes	2.673	-0.004	2.0	GoodResponse	1	0.188	n/a	1	33	ButtonPress	Win	True
322.974	0.51	Win2	0.5882000000000001	n/a	Yes	2.673	n/a	n/a	GoodResponse	1	n/a	n/a	1	33	Blank	Win	True
323.475	1.45	Win2	0.5882000000000001	n/a	Yes	2.673	n/a	5.0	GoodResponse	1	0.01	322.485	1	33	Feedback	Win	True
324.93	2.673	Win2	0.5882000000000001	n/a	Yes	2.673	n/a	n/a	GoodResponse	1	0.0	n/a	1	33	ISIslide	Win	True
327.621	0.25	Lose2	0.6	0.0	Yes	2.629	0.021	n/a	GoodResponse	0	n/a	n/a	1	34	Cue	AvoidedLoss	True
327.872	4.05	Lose2	0.6	0.0	Yes	2.629	0.001	n/a	GoodResponse	0	n/a	n/a	1	34	Fixation	AvoidedLoss	True
331.917	0.2	Lose2	0.6	0.004	Yes	2.629	-0.004	2.0	GoodResponse	0	0.178	331.095	1	34	Target	AvoidedLoss	True
332.095	0.3	Lose2	0.6	0.004	Yes	2.629	-0.004	2.0	GoodResponse	0	0.178	n/a	1	34	ButtonPress	AvoidedLoss	True
332.118	0.5	Lose2	0.6	n/a	Yes	2.629	n/a	n/a	GoodResponse	0	n/a	n/a	1	34	Blank	AvoidedLoss	True
332.619	1.45	Lose2	0.6	n/a	Yes	2.629	n/a	5.0	GoodResponse	0	0.037	331.656	1	34	Feedback	AvoidedLoss	True
334.074	2.629	Lose2	0.6	n/a	Yes	2.629	n/a	n/a	GoodResponse	0	0.0	n/a	1	34	ISIslide	AvoidedLoss	True
336.715	0.25	Lose2	0.6111	0.0	Yes	2.685	0.015	n/a	GoodResponse	0	n/a	n/a	1	35	Cue	AvoidedLoss	False
336.966	4.0	Lose2	0.6111	0.0	Yes	2.685	0.001	2.0	GoodResponse	0	0.234	336.2	1	35	Fixation	AvoidedLoss	False
337.2	0.3	Lose2	0.6111	0.0	Yes	2.685	0.001	2.0	GoodResponse	0	0.234	n/a	1	35	ButtonPress	AvoidedLoss	False
340.961	0.21	Lose2	0.6111	0.004	Yes	2.685	-0.004	2.0	GoodResponse	0	0.187	340.148	1	35	Target	AvoidedLoss	False
341.148	0.3	Lose2	0.6111	0.004	Yes	2.685	-0.004	2.0	GoodResponse	0	0.187	n/a	1	35	ButtonPress	AvoidedLoss	False
341.178	0.49	Lose2	0.6111	n/a	Yes	2.685	n/a	n/a	GoodResponse	0	n/a	n/a	1	35	Blank	AvoidedLoss	False
341.663	1.45	Lose2	0.6111	n/a	Yes	2.685	n/a	5.0	GoodResponse	0	0.018	340.681	1	35	Feedback	AvoidedLoss	False
343.117	2.685	Lose2	0.6111	n/a	Yes	2.685	n/a	n/a	GoodResponse	0	0.0	n/a	1	35	ISIslide	AvoidedLoss	False
345.826	0.25	Control	0.6215999999999999	0.0	Yes	2.674	0.026	n/a	GoodResponse	0	n/a	n/a	1	36	Cue	Neutral	True
346.076	4.0	Control	0.6215999999999999	0.0	Yes	2.674	0.0	n/a	GoodResponse	0	n/a	n/a	1	36	Fixation	Neutral	True
350.072	0.22	Control	0.6215999999999999	0.004	Yes	2.674	-0.004	2.0	GoodResponse	0	0.202	349.274	1	36	Target	Neutral	True
350.274	0.3	Control	0.6215999999999999	0.004	Yes	2.674	-0.004	2.0	GoodResponse	0	0.202	n/a	1	36	ButtonPress	Neutral	True
350.306	0.48	Control	0.6215999999999999	n/a	Yes	2.674	n/a	n/a	GoodResponse	0	n/a	n/a	1	36	Blank	Neutral	True
350.774	1.45	Control	0.6215999999999999	n/a	Yes	2.674	n/a	5.0	GoodResponse	0	0.029	349.803	1	36	Feedback	Neutral	True
352.228	2.674	Control	0.6215999999999999	n/a	Yes	2.674	n/a	n/a	GoodResponse	0	0.0	n/a	1	36	ISIslide	Neutral	True
354.919	0.25	Win2	0.6315999999999999	0.001	Yes	2.881	0.019	n/a	GoodResponse	1	n/a	n/a	2	37	Cue	Win	True
355.17	4.0	Win2	0.6315999999999999	0.0	Yes	2.881	0.001	n/a	GoodResponse	1	n/a	n/a	2	37	Fixation	Win	True
359.165	0.23	Win2	0.6315999999999999	0.004	Yes	2.881	-0.004	2.0	GoodResponse	1	0.197	358.362	2	37	Target	Win	True
359.362	0.3	Win2	0.6315999999999999	0.004	Yes	2.881	-0.004	2.0	GoodResponse	1	0.197	n/a	2	37	ButtonPress	Win	True
359.4	0.47	Win2	0.6315999999999999	n/a	Yes	2.881	n/a	n/a	GoodResponse	1	n/a	n/a	2	37	Blank	Win	True
359.868	1.45	Win2	0.6315999999999999	n/a	Yes	2.881	n/a	5.0	GoodResponse	1	0.008	358.876	2	37	Feedback	Win	True
361.322	2.881	Win2	0.6315999999999999	n/a	Yes	2.881	n/a	n/a	GoodResponse	1	0.0	n/a	2	37	ISIslide	Win	True
364.214	0.25	Lose2	0.6409999999999999	0.0	Yes	2.836	0.014	n/a	GoodResponse	0	n/a	n/a	2	38	Cue	AvoidedLoss	True
364.465	3.95	Lose2	0.6409999999999999	0.0	Yes	2.836	0.001	n/a	GoodResponse	0	n/a	n/a	2	38	Fixation	AvoidedLoss	True
368.41	0.24	Lose2	0.6409999999999999	0.004	Yes	2.836	-0.004	2.0	GoodResponse	0	0.219	367.629	2	38	Target	AvoidedLoss	True
368.629	0.3	Lose2	0.6409999999999999	0.004	Yes	2.836	-0.004	2.0	GoodResponse	0	0.219	n/a	2	38	ButtonPress	AvoidedLoss	True
368.661	0.46	Lose2	0.6409999999999999	n/a	Yes	2.836	n/a	n/a	GoodResponse	0	n/a	n/a	2	38	Blank	AvoidedLoss	True
369.112	1.45	Lose2	0.6409999999999999	n/a	Yes	2.836	n/a	5.0	GoodResponse	0	0.032	368.144	2	38	Feedback	AvoidedLoss	True
370.566	2.836	Lose2	0.6409999999999999	n/a	Yes	2.836	n/a	n/a	GoodResponse	0	0.0	n/a	2	38	ISIslide	AvoidedLoss	True
373.425	0.25	Win2	0.65	0.0	Yes	2.975	0.025	n/a	GoodResponse	1	n/a	n/a	3	39	Cue	Win	True
373.676	4.1	Win2	0.65	0.0	Yes	2.975	0.001	n/a	GoodResponse	1	n/a	n/a	3	39	Fixation	Win	True
377.771	0.25	Win2	0.65	0.004	Yes	2.975	-0.004	2.0	GoodResponse	1	0.211	376.982	3	39	Target	Win	True
377.982	0.3	Win2	0.65	0.004	Yes	2.975	-0.004	2.0	GoodResponse	1	0.211	n/a	3	39	ButtonPress	Win	True
378.022	0.45	Win2	0.65	n/a	Yes	2.975	n/a	n/a	GoodResponse	1	n/a	n/a	3	39	Blank	Win	True
378.473	1.45	Win2	0.65	n/a	Yes	2.975	n/a	5.0	GoodResponse	1	0.036	377.509	3	39	Feedback	Win	True
379.928	2.975	Win2	0.65	n/a	Yes	2.975	n/a	n/a	GoodResponse	1	0.0	n/a	3	39	ISIslide	Win	True
382.92	0.25	Win2	0.6585	0.0	Yes	2.73	0.02	n/a	GoodResponse	1	n/a	n/a	4	40	Cue	Win	True
383.171	3.95	Win2	0.6585	0.0	Yes	2.73	0.001	n/a	GoodResponse	1	n/a	n/a	4	40	Fixation	Win	True
387.116	0.26	Win2	0.6585	0.004	Yes	2.73	-0.004	2.0	GoodResponse	1	0.192	386.308	4	40	Target	Win	True
387.308	0.3	Win2	0.6585	0.004	Yes	2.73	-0.004	2.0	GoodResponse	1	0.192	n/a	4	40	ButtonPress	Win	True
387.383	0.44	Win2	0.6585	n/a	Yes	2.73	n/a	n/a	GoodResponse	1	n/a	n/a	4	40	Blank	Win	True
387.818	1.45	Win2	0.6585	n/a	Yes	2.73	n/a	5.0	GoodResponse	1	0.009	386.827	4	40	Feedback	Win	True
389.272	2.73	Win2	0.6585	n/a	Yes	2.73	n/a	n/a	GoodResponse	1	0.0	n/a	4	40	ISIslide	Win	True
392.014	0.25	Win2	0.6667000000000001	0.0	Yes	2.786	0.014	n/a	GoodResponse	1	n/a	n/a	5	41	Cue	Win	True
392.265	3.9	Win2	0.6667000000000001	0.0	Yes	2.786	0.001	n/a	GoodResponse	1	n/a	n/a	5	41	Fixation	Win	True
396.16	0.26	Win2	0.6667000000000001	0.004	Yes	2.786	-0.004	2.0	GoodResponse	1	0.135	395.295	5	41	Target	Win	True
396.295	0.3	Win2	0.6667000000000001	0.004	Yes	2.786	-0.004	2.0	GoodResponse	1	0.135	n/a	5	41	ButtonPress	Win	True
396.427	0.44	Win2	0.6667000000000001	n/a	Yes	2.786	n/a	n/a	GoodResponse	1	n/a	n/a	5	41	Blank	Win	True
396.862	1.45	Win2	0.6667000000000001	n/a	Yes	2.786	n/a	5.0	GoodResponse	1	0.038	395.9	5	41	Feedback	Win	True
398.316	2.786	Win2	0.6667000000000001	n/a	Yes	2.786	n/a	n/a	GoodResponse	1	0.0	n/a	5	41	ISIslide	Win	True
401.125	0.25	Control	0.6744	0.0	Yes	2.925	0.025	n/a	GoodResponse	0	n/a	n/a	5	42	Cue	Neutral	True
401.375	3.85	Control	0.6744	0.0	Yes	2.925	0.0	n/a	GoodResponse	0	n/a	n/a	5	42	Fixation	Neutral	True
405.237	0.25	Control	0.6744	0.0	Yes	2.925	0.012	2.0	GoodResponse	0	0.189	404.426	5	42	Target	Neutral	True
405.426	0.3	Control	0.6744	0.0	Yes	2.925	0.012	2.0	GoodResponse	0	0.189	n/a	5	42	ButtonPress	Neutral	True
405.471	0.45	Control	0.6744	n/a	Yes	2.925	n/a	n/a	GoodResponse	0	n/a	n/a	5	42	Blank	Neutral	True
405.922	1.45	Control	0.6744	n/a	Yes	2.925	n/a	5.0	GoodResponse	0	0.002	404.924	5	42	Feedback	Neutral	True
407.377	2.925	Control	0.6744	n/a	Yes	2.925	n/a	n/a	GoodResponse	0	0.0	n/a	5	42	ISIslide	Neutral	True
410.319	0.25	Win2	0.6818000000000001	0.0	Yes	3.181	0.019	n/a	GoodResponse	1	n/a	n/a	6	43	Cue	Win	True
410.57	4.0	Win2	0.6818000000000001	0.0	Yes	3.181	0.001	n/a	GoodResponse	1	n/a	n/a	6	43	Fixation	Win	True
414.565	0.24	Win2	0.6818000000000001	0.004	Yes	3.181	-0.004	2.0	GoodResponse	1	0.187	413.752	6	43	Target	Win	True
414.752	0.3	Win2	0.6818000000000001	0.004	Yes	3.181	-0.004	2.0	GoodResponse	1	0.187	n/a	6	43	ButtonPress	Win	True
414.816	0.46	Win2	0.6818000000000001	n/a	Yes	3.181	n/a	n/a	GoodResponse	1	n/a	n/a	6	43	Blank	Win	True
415.267	1.45	Win2	0.6818000000000001	n/a	Yes	3.181	n/a	5.0	GoodResponse	1	0.023	414.29	6	43	Feedback	Win	True
416.721	3.181	Win2	0.6818000000000001	n/a	Yes	3.181	n/a	n/a	GoodResponse	1	0.0	n/a	6	43	ISIslide	Win	True
419.914	0.25	Win2	0.6667000000000001	0.0	No	2.986	0.014	n/a	NoResponse	0	n/a	n/a	6	44	Cue	MissedWin	True
420.165	4.0	Win2	0.6667000000000001	0.0	No	2.986	0.001	2.0	NoResponse	0	3.856	423.021	6	44	Fixation	MissedWin	True
424.021	0.3	Win2	0.6667000000000001	0.0	No	2.986	0.001	2.0	NoResponse	0	3.856	n/a	6	44	ButtonPress	MissedWin	True
424.16	0.23	Win2	0.6667000000000001	0.004	No	2.986	-0.004	n/a	NoResponse	0	n/a	n/a	6	44	Target	MissedWin	True
424.394	0.47	Win2	0.6667000000000001	n/a	No	2.986	n/a	n/a	NoResponse	0	n/a	n/a	6	44	Blank	MissedWin	True
424.862	1.45	Win2	0.6667000000000001	n/a	No	2.986	n/a	5.0	NoResponse	0	0.038	423.9	6	44	Feedback	MissedWin	True
426.317	2.986	Win2	0.6667000000000001	n/a	No	2.986	n/a	n/a	NoResponse	0	0.0	n/a	6	44	ISIslide	MissedWin	True
429.326	0.25	Control	0.6739	0.0	Yes	2.874	0.026	n/a	GoodResponse	0	n/a	n/a	6	45	Cue	Neutral	True
429.576	4.1	Control	0.6739	0.001	Yes	2.874	0.0	n/a	GoodResponse	0	n/a	n/a	6	45	Fixation	Neutral	True
433.672	0.22	Control	0.6739	0.004	Yes	2.874	-0.004	2.0	GoodResponse	0	0.214	432.886	6	45	Target	Neutral	True
433.886	0.3	Control	0.6739	0.004	Yes	2.874	-0.004	2.0	GoodResponse	0	0.214	n/a	6	45	ButtonPress	Neutral	True
433.906	0.48	Control	0.6739	n/a	Yes	2.874	n/a	n/a	GoodResponse	0	n/a	n/a	6	45	Blank	Neutral	True
434.374	1.45	Control	0.6739	n/a	Yes	2.874	n/a	5.0	GoodResponse	0	0.038	433.412	6	45	Feedback	Neutral	True
435.829	2.874	Control	0.6739	n/a	Yes	2.874	n/a	n/a	GoodResponse	0	0.0	n/a	6	45	ISIslide	Neutral	True
438.721	0.25	Lose2	0.6809000000000001	0.0	Yes	3.379	0.021	n/a	GoodResponse	0	n/a	n/a	6	46	Cue	AvoidedLoss	True
438.971	4.0	Lose2	0.6809000000000001	0.0	Yes	3.379	0.0	n/a	GoodResponse	0	n/a	n/a	6	46	Fixation	AvoidedLoss	True
442.967	0.21	Lose2	0.6809000000000001	0.004	Yes	3.379	-0.004	2.0	GoodResponse	0	0.201	442.168	6	46	Target	AvoidedLoss	True
443.168	0.3	Lose2	0.6809000000000001	0.004	Yes	3.379	-0.004	2.0	GoodResponse	0	0.201	n/a	6	46	ButtonPress	AvoidedLoss	True
443.184	0.49	Lose2	0.6809000000000001	n/a	Yes	3.379	n/a	n/a	GoodResponse	0	n/a	n/a	6	46	Blank	AvoidedLoss	True
443.669	1.45	Lose2	0.6809000000000001	n/a	Yes	3.379	n/a	5.0	GoodResponse	0	0.011	442.68	6	46	Feedback	AvoidedLoss	True
445.123	3.379	Lose2	0.6809000000000001	n/a	Yes	3.379	n/a	n/a	GoodResponse	0	0.0	n/a	6	46	ISIslide	AvoidedLoss	True
448.517	0.25	Lose2	0.6875	0.0	Yes	2.683	0.017	n/a	GoodResponse	0	n/a	n/a	6	47	Cue	AvoidedLoss	True
448.767	4.0	Lose2	0.6875	0.0	Yes	2.683	0.0	n/a	GoodResponse	0	n/a	n/a	6	47	Fixation	AvoidedLoss	True
452.763	0.2	Lose2	0.6875	0.004	Yes	2.683	-0.004	2.0	GoodResponse	0	0.189	451.952	6	47	Target	AvoidedLoss	True
452.952	0.3	Lose2	0.6875	0.004	Yes	2.683	-0.004	2.0	GoodResponse	0	0.189	n/a	6	47	ButtonPress	AvoidedLoss	True
452.963	0.5	Lose2	0.6875	n/a	Yes	2.683	n/a	n/a	GoodResponse	0	n/a	n/a	6	47	Blank	AvoidedLoss	True
453.465	1.45	Lose2	0.6875	n/a	Yes	2.683	n/a	5.0	GoodResponse	0	0.02	452.485	6	47	Feedback	AvoidedLoss	True
454.919	2.683	Lose2	0.6875	n/a	Yes	2.683	n/a	n/a	GoodResponse	0	0.0	n/a	6	47	ISIslide	AvoidedLoss	True
457.627	0.25	Lose2	0.6735	0.0	No	3.023	0.027	n/a	NoResponse	-1	n/a	n/a	5	48	Cue	Loss	True
457.878	3.95	Lose2	0.6735	0.0	No	3.023	0.001	n/a	NoResponse	-1	n/a	n/a	5	48	Fixation	Loss	True
461.823	0.19	Lose2	0.6735	0.004	No	3.023	-0.004	2.0	NoResponse	-1	0.215	461.038	5	48	Target	Loss	True
462.024	0.51	Lose2	0.6735	n/a	No	3.023	n/a	n/a	NoResponse	-1	n/a	n/a	5	48	Blank	Loss	True
462.038	0.3	Lose2	0.6735	0.004	No	3.023	-0.004	2.0	NoResponse	-1	0.215	n/a	5	48	ButtonPress	Loss	True
462.525	1.45	Lose2	0.6735	n/a	No	3.023	n/a	5.0	NoResponse	-1	0.033	461.558	5	48	Feedback	Loss	True
463.98	3.023	Lose2	0.6735	n/a	No	3.023	n/a	n/a	NoResponse	-1	0.0	n/a	5	48	ISIslide	Loss	True
467.022	0.25	Control	0.68	0.0	Yes	2.878	0.022	n/a	GoodResponse	0	n/a	n/a	5	49	Cue	Neutral	True
467.273	4.0	Control	0.68	0.0	Yes	2.878	0.001	n/a	GoodResponse	0	n/a	n/a	5	49	Fixation	Neutral	True
471.268	0.18	Control	0.68	0.004	Yes	2.878	-0.004	2.0	GoodResponse	0	0.145	470.413	5	49	Target	Neutral	True
471.413	0.3	Control	0.68	0.004	Yes	2.878	-0.004	2.0	GoodResponse	0	0.145	n/a	5	49	ButtonPress	Neutral	True
471.452	0.52	Control	0.68	n/a	Yes	2.878	n/a	n/a	GoodResponse	0	n/a	n/a	5	49	Blank	Neutral	True
471.97	1.45	Control	0.68	n/a	Yes	2.878	n/a	5.0	GoodResponse	0	0.004	470.974	5	49	Feedback	Neutral	True
473.425	2.878	Control	0.68	n/a	Yes	2.878	n/a	n/a	GoodResponse	0	0.0	n/a	5	49	ISIslide	Neutral	True
476.317	0.25	Control	0.6667000000000001	0.0	No	2.783	0.017	n/a	NoResponse	0	n/a	n/a	5	50	Cue	Neutral	True
476.567	4.0	Control	0.6667000000000001	0.0	No	2.783	0.0	n/a	NoResponse	0	n/a	n/a	5	50	Fixation	Neutral	True
480.563	0.17	Control	0.6667000000000001	0.004	No	2.783	-0.004	2.0	NoResponse	0	0.219	479.782	5	50	Target	Neutral	True
480.746	0.53	Control	0.6667000000000001	n/a	No	2.783	n/a	n/a	NoResponse	0	n/a	n/a	5	50	Blank	Neutral	True
480.782	0.3	Control	0.6667000000000001	0.004	No	2.783	-0.004	2.0	NoResponse	0	0.219	n/a	5	50	ButtonPress	Neutral	True
481.265	1.45	Control	0.6667000000000001	n/a	No	2.783	n/a	5.0	NoResponse	0	0.025	480.29	5	50	Feedback	Neutral	True
482.719	2.783	Control	0.6667000000000001	n/a	No	2.783	n/a	n/a	NoResponse	0	0.0	n/a	5	50	ISIslide	Neutral	True
485.527	0.25	Control	0.6537999999999999	0.001	No	2.723	0.027	n/a	NoResponse	0	n/a	n/a	5	51	Cue	Neutral	True
485.778	3.95	Control	0.6537999999999999	0.0	No	2.723	0.001	n/a	NoResponse	0	n/a	n/a	5	51	Fixation	Neutral	True
489.723	0.16	Control	0.6537999999999999	0.004	No	2.723	-0.004	2.0	NoResponse	0	0.206	488.929	5	51	Target	Neutral	True
489.891	0.54	Control	0.6537999999999999	n/a	No	2.723	n/a	n/a	NoResponse	0	n/a	n/a	5	51	Blank	Neutral	True
489.929	0.3	Control	0.6537999999999999	0.004	No	2.723	-0.004	2.0	NoResponse	0	0.206	n/a	5	51	ButtonPress	Neutral	True
490.425	1.45	Control	0.6537999999999999	n/a	No	2.723	n/a	5.0	NoResponse	0	0.036	489.461	5	51	Feedback	Neutral	True
491.88	2.723	Control	0.6537999999999999	n/a	No	2.723	n/a	n/a	NoResponse	0	0.0	n/a	5	51	ISIslide	Neutral	True
494.621	0.25	Control	0.6415000000000001	0.0	No	2.629	0.021	n/a	NoResponse	0	n/a	n/a	5	52	Cue	Neutral	True
494.872	4.05	Control	0.6415000000000001	0.0	No	2.629	0.001	n/a	NoResponse	0	n/a	n/a	5	52	Fixation	Neutral	True
498.918	0.17	Control	0.6415000000000001	0.003	No	2.629	-0.003	2.0	NoResponse	0	0.189	498.107	5	52	Target	Neutral	True
499.101	0.53	Control	0.6415000000000001	n/a	No	2.629	n/a	n/a	NoResponse	0	n/a	n/a	5	52	Blank	Neutral	True
499.107	0.3	Control	0.6415000000000001	0.003	No	2.629	-0.003	2.0	NoResponse	0	0.189	n/a	5	52	ButtonPress	Neutral	True
499.62	1.45	Control	0.6415000000000001	n/a	No	2.629	n/a	5.0	NoResponse	0	0.011	498.631	5	52	Feedback	Neutral	True
501.074	2.629	Control	0.6415000000000001	n/a	No	2.629	n/a	n/a	NoResponse	0	0.0	n/a	5	52	ISIslide	Neutral	True
503.715	0.25	Win2	0.6296	0.0	No	2.935	0.015	n/a	PrematurePress	0	n/a	n/a	5	53	Cue	MissedWin	True
503.966	4.05	Win2	0.6296	0.0	No	2.935	0.001	n/a	PrematurePress	0	n/a	n/a	5	53	Fixation	MissedWin	True
508.011	0.18	Win2	0.6296	0.004	No	2.935	-0.004	2.0	PrematurePress	0	0.099	507.11	5	53	Target	MissedWin	True
508.11	0.3	Win2	0.6296	0.004	No	2.935	-0.004	2.0	PrematurePress	0	0.099	n/a	5	53	ButtonPress	MissedWin	True
508.195	0.52	Win2	0.6296	n/a	No	2.935	n/a	n/a	PrematurePress	0	n/a	n/a	5	53	Blank	MissedWin	True
508.714	1.45	Win2	0.6296	n/a	No	2.935	n/a	5.0	PrematurePress	0	0.039	507.753	5	53	Feedback	MissedWin	True
510.168	2.935	Win2	0.6296	n/a	No	2.935	n/a	n/a	PrematurePress	0	0.0	n/a	5	53	ISIslide	MissedWin	True
513.127	0.25	Win2	0.6182	0.0	No	2.723	0.027	n/a	LatePress	0	n/a	n/a	5	54	Cue	MissedWin	True
513.378	3.95	Win2	0.6182	0.0	No	2.723	0.001	n/a	LatePress	0	n/a	n/a	5	54	Fixation	MissedWin	True
517.323	0.19	Win2	0.6182	0.004	No	2.723	-0.004	2.0	LatePress	0	0.19	516.513	5	54	Target	MissedWin	True
517.513	0.3	Win2	0.6182	0.004	No	2.723	-0.004	2.0	LatePress	0	0.19	n/a	5	54	ButtonPress	MissedWin	True
517.523	0.51	Win2	0.6182	n/a	No	2.723	n/a	n/a	LatePress	0	n/a	n/a	5	54	Blank	MissedWin	True
518.025	1.45	Win2	0.6182	n/a	No	2.723	n/a	5.0	LatePress	0	0.045	517.07	5	54	Feedback	MissedWin	True
519.479	2.723	Win2	0.6182	n/a	No	2.723	n/a	n/a	LatePress	0	0.0	n/a	5	54	ISIslide	MissedWin	True
522.221	0.25	Control	0.6071	0.0	No	3.029	0.021	n/a	NoResponse	0	n/a	n/a	5	55	Cue	Neutral	True
522.471	3.95	Control	0.6071	0.001	No	3.029	0.0	n/a	NoResponse	0	n/a	n/a	5	55	Fixation	Neutral	True
526.417	0.2	Control	0.6071	0.004	No	3.029	-0.004	2.0	NoResponse	0	0.211	525.628	5	55	Target	Neutral	True
526.617	0.5	Control	0.6071	n/a	No	3.029	n/a	n/a	NoResponse	0	n/a	n/a	5	55	Blank	Neutral	True
526.628	0.3	Control	0.6071	0.004	No	3.029	-0.004	2.0	NoResponse	0	0.211	n/a	5	55	ButtonPress	Neutral	True
527.119	1.45	Control	0.6071	n/a	No	3.029	n/a	5.0	NoResponse	0	0.024	526.143	5	55	Feedback	Neutral	True
528.573	3.029	Control	0.6071	n/a	No	3.029	n/a	n/a	NoResponse	0	0.0	n/a	5	55	ISIslide	Neutral	True
531.616	0.25	Control	0.5965	0.0	No	2.834	0.016	n/a	LatePress	0	n/a	n/a	5	56	Cue	Neutral	True
531.866	3.95	Control	0.5965	0.0	No	2.834	0.0	n/a	LatePress	0	n/a	n/a	5	56	Fixation	Neutral	True
535.811	0.21	Control	0.5965	0.005	No	2.834	-0.005	2.0	LatePress	0	0.218	535.029	5	56	Target	Neutral	True
536.029	0.49	Control	0.5965	n/a	No	2.834	n/a	n/a	LatePress	0	n/a	n/a	5	56	Blank	Neutral	True
536.029	0.3	Control	0.5965	0.005	No	2.834	-0.005	2.0	LatePress	0	0.218	n/a	5	56	ButtonPress	Neutral	True
536.514	1.45	Control	0.5965	n/a	No	2.834	n/a	5.0	LatePress	0	0.044	535.558	5	56	Feedback	Neutral	True
537.968	2.834	Control	0.5965	n/a	No	2.834	n/a	n/a	LatePress	0	0.0	n/a	5	56	ISIslide	Neutral	True
540.826	0.25	Control	0.6034	0.001	Yes	3.474	0.026	n/a	GoodResponse	0	n/a	n/a	5	57	Cue	Neutral	True
541.077	4.0	Control	0.6034	0.0	Yes	3.474	0.001	n/a	GoodResponse	0	n/a	n/a	5	57	Fixation	Neutral	True
545.073	0.22	Control	0.6034	0.003	Yes	3.474	-0.003	2.0	GoodResponse	0	0.205	544.278	5	57	Target	Neutral	True
545.278	0.3	Control	0.6034	0.003	Yes	3.474	-0.003	2.0	GoodResponse	0	0.205	n/a	5	57	ButtonPress	Neutral	True
545.307	0.48	Control	0.6034	n/a	Yes	3.474	n/a	n/a	GoodResponse	0	n/a	n/a	5	57	Blank	Neutral	True
545.775	1.45	Control	0.6034	n/a	Yes	3.474	n/a	5.0	GoodResponse	0	0.003	544.778	5	57	Feedback	Neutral	True
547.229	3.474	Control	0.6034	n/a	Yes	3.474	n/a	n/a	GoodResponse	0	0.0	n/a	5	57	ISIslide	Neutral	True
550.723	0.25	Win2	0.5932	0.0	No	2.727	0.023	n/a	PrematurePress	0	n/a	n/a	5	58	Cue	MissedWin	True
550.974	4.05	Win2	0.5932	0.0	No	2.727	0.001	n/a	PrematurePress	0	n/a	n/a	5	58	Fixation	MissedWin	True
555.019	0.23	Win2	0.5932	0.004	No	2.727	-0.004	2.0	PrematurePress	0	0.039	554.058	5	58	Target	MissedWin	True
555.058	0.3	Win2	0.5932	0.004	No	2.727	-0.004	2.0	PrematurePress	0	0.039	n/a	5	58	ButtonPress	MissedWin	True
555.253	0.47	Win2	0.5932	n/a	No	2.727	n/a	n/a	PrematurePress	0	n/a	n/a	5	58	Blank	MissedWin	True
555.721	1.45	Win2	0.5932	n/a	No	2.727	n/a	5.0	PrematurePress	0	0.008	554.729	5	58	Feedback	MissedWin	True
557.175	2.727	Win2	0.5932	n/a	No	2.727	n/a	n/a	PrematurePress	0	0.0	n/a	5	58	ISIslide	MissedWin	True
559.917	0.25	Lose2	0.6	0.0	Yes	2.683	0.017	n/a	GoodResponse	0	n/a	n/a	5	59	Cue	AvoidedLoss	True
560.168	4.0	Lose2	0.6	0.0	Yes	2.683	0.001	n/a	GoodResponse	0	n/a	n/a	5	59	Fixation	AvoidedLoss	True
564.163	0.24	Lose2	0.6	0.004	Yes	2.683	-0.004	2.0	GoodResponse	0	0.217	563.38	5	59	Target	AvoidedLoss	True
564.38	0.3	Lose2	0.6	0.004	Yes	2.683	-0.004	2.0	GoodResponse	0	0.217	n/a	5	59	ButtonPress	AvoidedLoss	True
564.414	0.46	Lose2	0.6	n/a	Yes	2.683	n/a	n/a	GoodResponse	0	n/a	n/a	5	59	Blank	AvoidedLoss	True
564.865	1.45	Lose2	0.6	n/a	Yes	2.683	n/a	5.0	GoodResponse	0	0.034	563.899	5	59	Feedback	AvoidedLoss	True
566.32	2.683	Lose2	0.6	n/a	Yes	2.683	n/a	n/a	GoodResponse	0	0.0	n/a	5	59	ISIslide	AvoidedLoss	True
569.028	0.25	Control	0.6065999999999999	0.0	Yes	2.672	0.028	n/a	GoodResponse	0	n/a	n/a	5	60	Cue	Neutral	True
569.278	4.0	Control	0.6065999999999999	0.0	Yes	2.672	0.0	n/a	GoodResponse	0	n/a	n/a	5	60	Fixation	Neutral	True
573.274	0.25	Control	0.6065999999999999	0.004	Yes	2.672	-0.004	2.0	GoodResponse	0	0.216	572.49	5	60	Target	Neutral	True
573.49	0.3	Control	0.6065999999999999	0.004	Yes	2.672	-0.004	2.0	GoodResponse	0	0.216	n/a	5	60	ButtonPress	Neutral	True
573.524	0.45	Control	0.6065999999999999	n/a	Yes	2.672	n/a	n/a	GoodResponse	0	n/a	n/a	5	60	Blank	Neutral	True
573.976	1.45	Control	0.6065999999999999	n/a	Yes	2.672	n/a	5.0	GoodResponse	0	0.045	573.021	5	60	Feedback	Neutral	True
575.43	2.672	Control	0.6065999999999999	n/a	Yes	2.672	n/a	n/a	GoodResponse	0	0.0	n/a	5	60	ISIslide	Neutral	True
578.122	0.25	Lose2	0.6129	0.0	Yes	2.978	0.022	n/a	GoodResponse	0	n/a	n/a	5	61	Cue	AvoidedLoss	True
578.372	4.0	Lose2	0.6129	0.0	Yes	2.978	0.0	n/a	GoodResponse	0	n/a	n/a	5	61	Fixation	AvoidedLoss	True
582.368	0.26	Lose2	0.6129	0.004	Yes	2.978	-0.004	2.0	GoodResponse	0	0.193	581.561	5	61	Target	AvoidedLoss	True
582.561	0.3	Lose2	0.6129	0.004	Yes	2.978	-0.004	2.0	GoodResponse	0	0.193	n/a	5	61	ButtonPress	AvoidedLoss	True
582.635	0.44	Lose2	0.6129	n/a	Yes	2.978	n/a	n/a	GoodResponse	0	n/a	n/a	5	61	Blank	AvoidedLoss	True
583.07	1.45	Lose2	0.6129	n/a	Yes	2.978	n/a	5.0	GoodResponse	0	0.024	582.094	5	61	Feedback	AvoidedLoss	True
584.524	2.978	Lose2	0.6129	n/a	Yes	2.978	n/a	n/a	GoodResponse	0	0.0	n/a	5	61	ISIslide	AvoidedLoss	True
587.516	0.25	Lose2	0.619	0.0	Yes	2.884	0.016	n/a	GoodResponse	0	n/a	n/a	5	62	Cue	AvoidedLoss	True
587.767	3.9	Lose2	0.619	0.0	Yes	2.884	0.001	n/a	GoodResponse	0	n/a	n/a	5	62	Fixation	AvoidedLoss	True
591.662	0.27	Lose2	0.619	0.004	Yes	2.884	-0.004	2.0	GoodResponse	0	0.205	590.867	5	62	Target	AvoidedLoss	True
591.867	0.3	Lose2	0.619	0.004	Yes	2.884	-0.004	2.0	GoodResponse	0	0.205	n/a	5	62	ButtonPress	AvoidedLoss	True
591.946	0.43	Lose2	0.619	n/a	Yes	2.884	n/a	n/a	GoodResponse	0	n/a	n/a	5	62	Blank	AvoidedLoss	True
592.364	1.45	Lose2	0.619	n/a	Yes	2.884	n/a	5.0	GoodResponse	0	0.047	591.411	5	62	Feedback	AvoidedLoss	True
593.819	2.884	Lose2	0.619	n/a	Yes	2.884	n/a	n/a	GoodResponse	0	0.0	n/a	5	62	ISIslide	AvoidedLoss	True
596.727	0.25	Lose2	0.625	0.0	Yes	2.623	0.027	n/a	GoodResponse	0	n/a	n/a	5	63	Cue	AvoidedLoss	True
596.978	4.05	Lose2	0.625	0.0	Yes	2.623	0.001	n/a	GoodResponse	0	n/a	n/a	5	63	Fixation	AvoidedLoss	True
601.024	0.28	Lose2	0.625	0.003	Yes	2.623	-0.003	2.0	GoodResponse	0	0.201	600.225	5	63	Target	AvoidedLoss	True
601.225	0.3	Lose2	0.625	0.003	Yes	2.623	-0.003	2.0	GoodResponse	0	0.201	n/a	5	63	ButtonPress	AvoidedLoss	True
601.308	0.42	Lose2	0.625	n/a	Yes	2.623	n/a	n/a	GoodResponse	0	n/a	n/a	5	63	Blank	AvoidedLoss	True
601.726	1.45	Lose2	0.625	n/a	Yes	2.623	n/a	5.0	GoodResponse	0	0.003	600.729	5	63	Feedback	AvoidedLoss	True
603.18	2.623	Lose2	0.625	n/a	Yes	2.623	n/a	n/a	GoodResponse	0	0.0	n/a	5	63	ISIslide	AvoidedLoss	True
605.821	0.25	Win2	0.6308	0.0	Yes	3.129	0.021	n/a	GoodResponse	1	n/a	n/a	6	64	Cue	Win	True
606.072	4.15	Win2	0.6308	0.0	Yes	3.129	0.001	n/a	GoodResponse	1	n/a	n/a	6	64	Fixation	Win	True
610.218	0.29	Win2	0.6308	0.003	Yes	3.129	-0.003	2.0	GoodResponse	1	0.212	609.43	6	64	Target	Win	True
610.43	0.3	Win2	0.6308	0.003	Yes	3.129	-0.003	2.0	GoodResponse	1	0.212	n/a	6	64	ButtonPress	Win	True
610.519	0.41	Win2	0.6308	n/a	Yes	3.129	n/a	n/a	GoodResponse	1	n/a	n/a	6	64	Blank	Win	True
610.92	1.45	Win2	0.6308	n/a	Yes	3.129	n/a	5.0	GoodResponse	1	0.028	609.948	6	64	Feedback	Win	True
612.374	3.129	Win2	0.6308	n/a	Yes	3.129	n/a	n/a	GoodResponse	1	0.0	n/a	6	64	ISIslide	Win	True
615.517	0.25	Control	0.6364	0.0	Yes	2.783	0.017	n/a	GoodResponse	0	n/a	n/a	6	65	Cue	Neutral	True
615.768	4.0	Control	0.6364	0.0	Yes	2.783	0.001	n/a	GoodResponse	0	n/a	n/a	6	65	Fixation	Neutral	True
619.763	0.3	Control	0.6364	0.004	Yes	2.783	-0.004	2.0	GoodResponse	0	0.201	618.964	6	65	Target	Neutral	True
619.964	0.3	Control	0.6364	0.004	Yes	2.783	-0.004	2.0	GoodResponse	0	0.201	n/a	6	65	ButtonPress	Neutral	True
620.064	0.4	Control	0.6364	n/a	Yes	2.783	n/a	n/a	GoodResponse	0	n/a	n/a	6	65	Blank	Neutral	True
620.465	1.45	Control	0.6364	n/a	Yes	2.783	n/a	5.0	GoodResponse	0	0.043	619.508	6	65	Feedback	Neutral	True
621.919	2.783	Control	0.6364	n/a	Yes	2.783	n/a	n/a	GoodResponse	0	0.0	n/a	6	65	ISIslide	Neutral	True
624.728	0.25	Win2	0.6418	0.0	Yes	2.772	0.028	n/a	GoodResponse	1	n/a	n/a	7	66	Cue	Win	True
624.979	3.9	Win2	0.6418	0.0	Yes	2.772	0.001	n/a	GoodResponse	1	n/a	n/a	7	66	Fixation	Win	True
628.874	0.31	Win2	0.6418	0.004	Yes	2.772	-0.004	2.0	GoodResponse	1	0.216	628.09	7	66	Target	Win	True
629.09	0.3	Win2	0.6418	0.004	Yes	2.772	-0.004	2.0	GoodResponse	1	0.216	n/a	7	66	ButtonPress	Win	True
629.191	0.39	Win2	0.6418	n/a	Yes	2.772	n/a	n/a	GoodResponse	1	n/a	n/a	7	66	Blank	Win	True
629.576	1.45	Win2	0.6418	n/a	Yes	2.772	n/a	5.0	GoodResponse	1	0.005	628.581	7	66	Feedback	Win	True
631.03	2.772	Win2	0.6418	n/a	Yes	2.772	n/a	n/a	GoodResponse	1	0.0	n/a	7	66	ISIslide	Win	True
633.822	0.25	Control	0.6470999999999999	0.0	Yes	2.728	0.022	n/a	GoodResponse	0	n/a	n/a	7	67	Cue	Neutral	True
634.073	3.95	Control	0.6470999999999999	0.0	Yes	2.728	0.001	n/a	GoodResponse	0	n/a	n/a	7	67	Fixation	Neutral	True
638.018	0.32	Control	0.6470999999999999	0.004	Yes	2.728	-0.004	2.0	GoodResponse	0	0.225	637.243	7	67	Target	Neutral	True
638.243	0.3	Control	0.6470999999999999	0.004	Yes	2.728	-0.004	2.0	GoodResponse	0	0.225	n/a	7	67	ButtonPress	Neutral	True
638.352	0.38	Control	0.6470999999999999	n/a	Yes	2.728	n/a	n/a	GoodResponse	0	n/a	n/a	7	67	Blank	Neutral	True
638.72	1.45	Control	0.6470999999999999	n/a	Yes	2.728	n/a	5.0	GoodResponse	0	0.032	637.752	7	67	Feedback	Neutral	True
640.174	2.728	Control	0.6470999999999999	n/a	Yes	2.728	n/a	n/a	GoodResponse	0	0.0	n/a	7	67	ISIslide	Neutral	True
642.916	0.25	Win2	0.6522	0.0	Yes	3.084	0.016	n/a	GoodResponse	1	n/a	n/a	8	68	Cue	Win	True
643.166	4.0	Win2	0.6522	0.001	Yes	3.084	0.0	n/a	GoodResponse	1	n/a	n/a	8	68	Fixation	Win	True
647.162	0.33	Win2	0.6522	0.004	Yes	3.084	-0.004	2.0	GoodResponse	1	0.144	646.306	8	68	Target	Win	True
647.306	0.3	Win2	0.6522	0.004	Yes	3.084	-0.004	2.0	GoodResponse	1	0.144	n/a	8	68	ButtonPress	Win	True
647.496	0.37	Win2	0.6522	n/a	Yes	3.084	n/a	n/a	GoodResponse	1	n/a	n/a	8	68	Blank	Win	True
647.864	1.45	Win2	0.6522	n/a	Yes	3.084	n/a	5.0	GoodResponse	1	0.01	646.874	8	68	Feedback	Win	True
649.318	3.084	Win2	0.6522	n/a	Yes	3.084	n/a	n/a	GoodResponse	1	0.0	n/a	8	68	ISIslide	Win	True
652.428	0.25	Win2	0.6570999999999999	0.0	Yes	3.222	0.028	n/a	GoodResponse	1	n/a	n/a	9	69	Cue	Win	True
652.678	3.95	Win2	0.6570999999999999	0.0	Yes	3.222	0.0	n/a	GoodResponse	1	n/a	n/a	9	69	Fixation	Win	True
656.64	0.34	Win2	0.6570999999999999	0.0	Yes	3.222	0.012	2.0	GoodResponse	1	0.186	655.826	9	69	Target	Win	True
656.826	0.3	Win2	0.6570999999999999	0.0	Yes	3.222	0.012	2.0	GoodResponse	1	0.186	n/a	9	69	ButtonPress	Win	True
656.975	0.36	Win2	0.6570999999999999	n/a	Yes	3.222	n/a	n/a	GoodResponse	1	n/a	n/a	9	69	Blank	Win	True
657.326	1.45	Win2	0.6570999999999999	n/a	Yes	3.222	n/a	5.0	GoodResponse	1	0.012	656.338	9	69	Feedback	Win	True
658.78	3.222	Win2	0.6570999999999999	n/a	Yes	3.222	n/a	n/a	GoodResponse	1	0.0	n/a	9	69	ISIslide	Win	True
662.023	0.25	Lose2	0.662	0.0	Yes	3.027	0.023	n/a	GoodResponse	0	n/a	n/a	9	70	Cue	AvoidedLoss	True
662.274	4.05	Lose2	0.662	0.0	Yes	3.027	0.001	n/a	GoodResponse	0	n/a	n/a	9	70	Fixation	AvoidedLoss	True
666.319	0.34	Lose2	0.662	0.004	Yes	3.027	-0.004	2.0	GoodResponse	0	0.197	665.516	9	70	Target	AvoidedLoss	True
666.516	0.3	Lose2	0.662	0.004	Yes	3.027	-0.004	2.0	GoodResponse	0	0.197	n/a	9	70	ButtonPress	AvoidedLoss	True
666.67	0.36	Lose2	0.662	n/a	Yes	3.027	n/a	n/a	GoodResponse	0	n/a	n/a	9	70	Blank	AvoidedLoss	True
667.021	1.45	Lose2	0.662	n/a	Yes	3.027	n/a	5.0	GoodResponse	0	0.024	666.045	9	70	Feedback	AvoidedLoss	True
668.476	3.027	Lose2	0.662	n/a	Yes	3.027	n/a	n/a	GoodResponse	0	0.0	n/a	9	70	ISIslide	AvoidedLoss	True
671.518	0.25	Win2	0.6667000000000001	0.0	Yes	2.732	0.018	n/a	GoodResponse	1	n/a	n/a	10	71	Cue	Win	True
671.769	4.05	Win2	0.6667000000000001	0.0	Yes	2.732	0.001	n/a	GoodResponse	1	n/a	n/a	10	71	Fixation	Win	True
675.814	0.34	Win2	0.6667000000000001	0.004	Yes	2.732	-0.004	2.0	GoodResponse	1	0.201	675.015	10	71	Target	Win	True
676.015	0.3	Win2	0.6667000000000001	0.004	Yes	2.732	-0.004	2.0	GoodResponse	1	0.201	n/a	10	71	ButtonPress	Win	True
676.165	0.36	Win2	0.6667000000000001	n/a	Yes	2.732	n/a	n/a	GoodResponse	1	n/a	n/a	10	71	Blank	Win	True
676.516	1.45	Win2	0.6667000000000001	n/a	Yes	2.732	n/a	5.0	GoodResponse	1	0.041	675.557	10	71	Feedback	Win	True
677.971	2.732	Win2	0.6667000000000001	n/a	Yes	2.732	n/a	n/a	GoodResponse	1	0.0	n/a	10	71	ISIslide	Win	True
680.729	0.25	Win2	0.6575	0.0	No	2.771	0.029	n/a	NoResponse	0	n/a	n/a	10	72	Cue	MissedWin	True
680.98	4.1	Win2	0.6575	0.0	No	2.771	0.001	2.0	NoResponse	0	3.973	683.953	10	72	Fixation	MissedWin	True
684.953	0.3	Win2	0.6575	0.0	No	2.771	0.001	2.0	NoResponse	0	3.973	n/a	10	72	ButtonPress	MissedWin	True
685.075	0.33	Win2	0.6575	0.004	No	2.771	-0.004	n/a	NoResponse	0	n/a	n/a	10	72	Target	MissedWin	True
685.41	0.37	Win2	0.6575	n/a	No	2.771	n/a	n/a	NoResponse	0	n/a	n/a	10	72	Blank	MissedWin	True
685.777	1.45	Win2	0.6575	n/a	No	2.771	n/a	5.0	NoResponse	0	0.048	684.825	10	72	Feedback	MissedWin	True
687.232	2.771	Win2	0.6575	n/a	No	2.771	n/a	n/a	NoResponse	0	0.0	n/a	10	72	ISIslide	MissedWin	True
690.024	0.25	Win2	0.6622	0.0	Yes	2.676	0.024	n/a	GoodResponse	1	n/a	n/a	11	73	Cue	Win	True
690.274	4.0	Win2	0.6622	0.0	Yes	2.676	0.0	n/a	GoodResponse	1	n/a	n/a	11	73	Fixation	Win	True
694.27	0.33	Win2	0.6622	0.004	Yes	2.676	-0.004	2.0	GoodResponse	1	0.202	693.472	11	73	Target	Win	True
694.472	0.3	Win2	0.6622	0.004	Yes	2.676	-0.004	2.0	GoodResponse	1	0.202	n/a	11	73	ButtonPress	Win	True
694.604	0.37	Win2	0.6622	n/a	Yes	2.676	n/a	n/a	GoodResponse	1	n/a	n/a	11	73	Blank	Win	True
694.972	1.45	Win2	0.6622	n/a	Yes	2.676	n/a	5.0	GoodResponse	1	0.024	693.996	11	73	Feedback	Win	True
696.426	2.676	Win2	0.6622	n/a	Yes	2.676	n/a	n/a	GoodResponse	1	0.0	n/a	11	73	ISIslide	Win	True
699.117	0.25	Lose2	0.6667000000000001	0.001	Yes	2.633	0.017	n/a	GoodResponse	0	n/a	n/a	11	74	Cue	AvoidedLoss	True
699.368	4.05	Lose2	0.6667000000000001	0.0	Yes	2.633	0.001	n/a	GoodResponse	0	n/a	n/a	11	74	Fixation	AvoidedLoss	True
703.414	0.33	Lose2	0.6667000000000001	0.003	Yes	2.633	-0.003	2.0	GoodResponse	0	0.221	702.635	11	74	Target	AvoidedLoss	True
703.635	0.3	Lose2	0.6667000000000001	0.003	Yes	2.633	-0.003	2.0	GoodResponse	0	0.221	n/a	11	74	ButtonPress	AvoidedLoss	True
703.748	0.37	Lose2	0.6667000000000001	n/a	Yes	2.633	n/a	n/a	GoodResponse	0	n/a	n/a	11	74	Blank	AvoidedLoss	True
704.116	1.45	Lose2	0.6667000000000001	n/a	Yes	2.633	n/a	5.0	GoodResponse	0	0.004	703.12	11	74	Feedback	AvoidedLoss	True
705.57	2.633	Lose2	0.6667000000000001	n/a	Yes	2.633	n/a	n/a	GoodResponse	0	0.0	n/a	11	74	ISIslide	AvoidedLoss	True
708.228	0.25	Lose2	0.6711	0.0	Yes	2.922	0.028	n/a	GoodResponse	0	n/a	n/a	11	75	Cue	AvoidedLoss	True
708.479	3.95	Lose2	0.6711	0.0	Yes	2.922	0.001	n/a	GoodResponse	0	n/a	n/a	11	75	Fixation	AvoidedLoss	True
712.424	0.32	Lose2	0.6711	0.004	Yes	2.922	-0.004	2.0	GoodResponse	0	0.212	711.636	11	75	Target	AvoidedLoss	True
712.636	0.3	Lose2	0.6711	0.004	Yes	2.922	-0.004	2.0	GoodResponse	0	0.212	n/a	11	75	ButtonPress	AvoidedLoss	True
712.758	0.38	Lose2	0.6711	n/a	Yes	2.922	n/a	n/a	GoodResponse	0	n/a	n/a	11	75	Blank	AvoidedLoss	True
713.126	1.45	Lose2	0.6711	n/a	Yes	2.922	n/a	5.0	GoodResponse	0	0.016	712.142	11	75	Feedback	AvoidedLoss	True
714.58	2.922	Lose2	0.6711	n/a	Yes	2.922	n/a	n/a	GoodResponse	0	0.0	n/a	11	75	ISIslide	AvoidedLoss	True
717.523	0.25	Control	0.6753	0.0	Yes	3.227	0.023	n/a	GoodResponse	0	n/a	n/a	11	76	Cue	Neutral	True
717.773	4.05	Control	0.6753	0.0	Yes	3.227	0.0	n/a	GoodResponse	0	n/a	n/a	11	76	Fixation	Neutral	True
721.819	0.31	Control	0.6753	0.004	Yes	3.227	-0.004	2.0	GoodResponse	0	0.178	720.997	11	76	Target	Neutral	True
721.997	0.3	Control	0.6753	0.004	Yes	3.227	-0.004	2.0	GoodResponse	0	0.178	n/a	11	76	ButtonPress	Neutral	True
722.136	0.39	Control	0.6753	n/a	Yes	3.227	n/a	n/a	GoodResponse	0	n/a	n/a	11	76	Blank	Neutral	True
722.521	1.45	Control	0.6753	n/a	Yes	3.227	n/a	5.0	GoodResponse	0	0.036	721.557	11	76	Feedback	Neutral	True
723.975	3.227	Control	0.6753	n/a	Yes	3.227	n/a	n/a	GoodResponse	0	0.0	n/a	11	76	ISIslide	Neutral	True
727.218	0.25	Lose2	0.6795	0.0	Yes	2.582	0.018	n/a	GoodResponse	0	n/a	n/a	11	77	Cue	AvoidedLoss	True
727.469	3.95	Lose2	0.6795	0.0	Yes	2.582	0.001	n/a	GoodResponse	0	n/a	n/a	11	77	Fixation	AvoidedLoss	True
731.414	0.3	Lose2	0.6795	0.004	Yes	2.582	-0.004	2.0	GoodResponse	0	0.201	730.615	11	77	Target	AvoidedLoss	True
731.615	0.3	Lose2	0.6795	0.004	Yes	2.582	-0.004	2.0	GoodResponse	0	0.201	n/a	11	77	ButtonPress	AvoidedLoss	True
731.715	0.4	Lose2	0.6795	n/a	Yes	2.582	n/a	n/a	GoodResponse	0	n/a	n/a	11	77	Blank	AvoidedLoss	True
732.116	1.45	Lose2	0.6795	n/a	Yes	2.582	n/a	5.0	GoodResponse	0	0.002	731.118	11	77	Feedback	AvoidedLoss	True
733.571	2.582	Lose2	0.6795	n/a	Yes	2.582	n/a	n/a	GoodResponse	0	0.0	n/a	11	77	ISIslide	AvoidedLoss	True
