onset	duration	cue_type	current_mean_accuracy	duration_error	is_hit	isi_adjusted	onset_delay	response	response_type	reward	rt	rt_time	total_reward	trial_number	trial_phase	trial_type	one_press
11.101	0.25	Control	1.0	0.0	Yes	2.949	0.001	n/a	GoodResponse	0	n/a	n/a	0	0	Cue	Neutral	True
11.352	3.85	Control	1.0	0.0	Yes	2.949	0.001	n/a	GoodResponse	0	n/a	n/a	0	0	Fixation	Neutral	True
15.197	0.4	Control	1.0	0.004	Yes	2.949	-0.004	2.0	GoodResponse	0	0.358	14.555	0	0	Target	Neutral	True
15.555	0.3	Control	1.0	0.004	Yes	2.949	-0.004	2.0	GoodResponse	0	0.358	n/a	0	0	ButtonPress	Neutral	True
15.598	0.3	Control	1.0	n/a	Yes	2.949	n/a	n/a	GoodResponse	0	n/a	n/a	0	0	Blank	Neutral	True
15.899	1.45	Control	1.0	n/a	Yes	2.949	n/a	5.0	GoodResponse	0	0.027	14.926	0	0	Feedback	Neutral	True
17.353	2.949	Control	1.0	n/a	Yes	2.949	n/a	n/a	GoodResponse	0	0.0	n/a	0	0	ISIslide	Neutral	True
20.329	0.25	Lose2	1.0	0.0	Yes	2.771	0.029	n/a	GoodResponse	0	n/a	n/a	0	1	Cue	AvoidedLoss	True
20.58	4.0	Lose2	1.0	0.0	Yes	2.771	0.001	n/a	GoodResponse	0	n/a	n/a	0	1	Fixation	AvoidedLoss	True
24.575	0.39	Lose2	1.0	0.004	Yes	2.771	-0.004	2.0	GoodResponse	0	0.261	23.836	0	1	Target	AvoidedLoss	True
24.836	0.3	Lose2	1.0	0.004	Yes	2.771	-0.004	2.0	GoodResponse	0	0.261	n/a	0	1	ButtonPress	AvoidedLoss	True
24.976	0.31	Lose2	1.0	n/a	Yes	2.771	n/a	n/a	GoodResponse	0	n/a	n/a	0	1	Blank	AvoidedLoss	True
25.277	1.45	Lose2	1.0	n/a	Yes	2.771	n/a	5.0	GoodResponse	0	0.014	24.291	0	1	Feedback	AvoidedLoss	True
26.732	2.771	Lose2	1.0	n/a	Yes	2.771	n/a	n/a	GoodResponse	0	0.0	n/a	0	1	ISIslide	AvoidedLoss	True
29.523	0.25	Control	1.0	0.0	Yes	2.577	0.023	n/a	GoodResponse	0	n/a	n/a	0	2	Cue	Neutral	True
29.774	4.1	Control	1.0	0.0	Yes	2.577	0.001	n/a	GoodResponse	0	n/a	n/a	0	2	Fixation	Neutral	True
33.87	0.38	Control	1.0	0.003	Yes	2.577	-0.003	2.0	GoodResponse	0	0.215	33.085	0	2	Target	Neutral	True
34.085	0.3	Control	1.0	0.003	Yes	2.577	-0.003	2.0	GoodResponse	0	0.215	n/a	0	2	ButtonPress	Neutral	True
34.254	0.32	Control	1.0	n/a	Yes	2.577	n/a	n/a	GoodResponse	0	n/a	n/a	0	2	Blank	Neutral	True
34.572	1.45	Control	1.0	n/a	Yes	2.577	n/a	5.0	GoodResponse	0	0.036	33.608	0	2	Feedback	Neutral	True
36.026	2.577	Control	1.0	n/a	Yes	2.577	n/a	n/a	GoodResponse	0	0.0	n/a	0	2	ISIslide	Neutral	True
38.634	0.25	Win2	1.0	0.0	Yes	2.816	0.034	n/a	GoodResponse	1	n/a	n/a	1	3	Cue	Win	True
38.885	3.95	Win2	1.0	0.0	Yes	2.816	0.001	n/a	GoodResponse	1	n/a	n/a	1	3	Fixation	Win	True
42.83	0.37	Win2	1.0	0.004	Yes	2.816	-0.004	2.0	GoodResponse	1	0.22	42.05	1	3	Target	Win	True
43.05	0.3	Win2	1.0	0.004	Yes	2.816	-0.004	2.0	GoodResponse	1	0.22	n/a	1	3	ButtonPress	Win	True
43.214	0.33	Win2	1.0	n/a	Yes	2.816	n/a	n/a	GoodResponse	1	n/a	n/a	1	3	Blank	Win	True
43.532	1.45	Win2	1.0	n/a	Yes	2.816	n/a	5.0	GoodResponse	1	0.008	42.54	1	3	Feedback	Win	True
44.986	2.816	Win2	1.0	n/a	Yes	2.816	n/a	n/a	GoodResponse	1	0.0	n/a	1	3	ISIslide	Win	True
47.828	0.25	Win2	1.0	0.0	Yes	3.272	0.028	n/a	GoodResponse	1	n/a	n/a	2	4	Cue	Win	True
48.079	4.0	Win2	1.0	0.0	Yes	3.272	0.001	n/a	GoodResponse	1	n/a	n/a	2	4	Fixation	Win	True
52.074	0.36	Win2	1.0	0.004	Yes	3.272	-0.004	2.0	GoodResponse	1	0.263	51.337	2	4	Target	Win	True
52.337	0.3	Win2	1.0	0.004	Yes	3.272	-0.004	2.0	GoodResponse	1	0.263	n/a	2	4	ButtonPress	Win	True
52.442	0.34	Win2	1.0	n/a	Yes	3.272	n/a	n/a	GoodResponse	1	n/a	n/a	2	4	Blank	Win	True
52.776	1.45	Win2	1.0	n/a	Yes	3.272	n/a	5.0	GoodResponse	1	0.028	51.804	2	4	Feedback	Win	True
54.231	3.272	Win2	1.0	n/a	Yes	3.272	n/a	n/a	GoodResponse	1	0.0	n/a	2	4	ISIslide	Win	True
57.524	0.25	Win2	1.0	0.0	Yes	2.776	0.024	n/a	GoodResponse	1	n/a	n/a	3	5	Cue	Win	True
57.775	4.0	Win2	1.0	0.0	Yes	2.776	0.001	n/a	GoodResponse	1	n/a	n/a	3	5	Fixation	Win	True
61.77	0.35	Win2	1.0	0.004	Yes	2.776	-0.004	2.0	GoodResponse	1	0.298	61.068	3	5	Target	Win	True
62.068	0.3	Win2	1.0	0.004	Yes	2.776	-0.004	2.0	GoodResponse	1	0.298	n/a	3	5	ButtonPress	Win	True
62.121	0.35	Win2	1.0	n/a	Yes	2.776	n/a	n/a	GoodResponse	1	n/a	n/a	3	5	Blank	Win	True
62.472	1.45	Win2	1.0	n/a	Yes	2.776	n/a	5.0	GoodResponse	1	0.039	61.511	3	5	Feedback	Win	True
63.926	2.776	Win2	1.0	n/a	Yes	2.776	n/a	n/a	GoodResponse	1	0.0	n/a	3	5	ISIslide	Win	True
66.718	0.25	Lose2	0.8571	0.0	No	2.732	0.018	n/a	LatePress	-1	n/a	n/a	2	6	Cue	Loss	True
66.969	3.95	Lose2	0.8571	0.0	No	2.732	0.001	n/a	LatePress	-1	n/a	n/a	2	6	Fixation	Loss	True
70.914	0.34	Lose2	0.8571	0.004	No	2.732	-0.004	2.0	LatePress	-1	0.342	70.256	2	6	Target	Loss	True
71.256	0.3	Lose2	0.8571	0.004	No	2.732	-0.004	2.0	LatePress	-1	0.342	n/a	2	6	ButtonPress	Loss	True
71.265	0.36	Lose2	0.8571	n/a	No	2.732	n/a	n/a	LatePress	-1	n/a	n/a	2	6	Blank	Loss	True
71.616	1.45	Lose2	0.8571	n/a	No	2.732	n/a	5.0	LatePress	-1	0.017	70.633	2	6	Feedback	Loss	True
73.071	2.732	Lose2	0.8571	n/a	No	2.732	n/a	n/a	LatePress	-1	0.0	n/a	2	6	ISIslide	Loss	True
75.829	0.25	Lose2	0.75	0.0	No	4.021	0.029	n/a	NoResponse	-1	n/a	n/a	1	7	Cue	Loss	True
76.08	4.05	Lose2	0.75	0.0	No	4.021	0.001	n/a	NoResponse	-1	n/a	n/a	1	7	Fixation	Loss	True
80.125	0.33	Lose2	0.75	0.004	No	4.021	-0.004	2.0	NoResponse	-1	0.343	79.468	1	7	Target	Loss	True
80.459	0.37	Lose2	0.75	n/a	No	4.021	n/a	n/a	NoResponse	-1	n/a	n/a	1	7	Blank	Loss	True
80.468	0.3	Lose2	0.75	0.004	No	4.021	-0.004	2.0	NoResponse	-1	0.343	n/a	1	7	ButtonPress	Loss	True
80.827	1.45	Lose2	0.75	n/a	No	4.021	n/a	5.0	NoResponse	-1	0.026	79.853	1	7	Feedback	Loss	True
82.281	4.021	Lose2	0.75	n/a	No	4.021	n/a	n/a	NoResponse	-1	0.0	n/a	1	7	ISIslide	Loss	True
86.327	0.25	Lose2	0.7778	0.0	Yes	3.023	0.027	n/a	GoodResponse	0	n/a	n/a	1	8	Cue	AvoidedLoss	True
86.578	3.95	Lose2	0.7778	0.0	Yes	3.023	0.001	n/a	GoodResponse	0	n/a	n/a	1	8	Fixation	AvoidedLoss	True
90.523	0.32	Lose2	0.7778	0.004	Yes	3.023	-0.004	2.0	GoodResponse	0	0.223	89.746	1	8	Target	AvoidedLoss	True
90.746	0.3	Lose2	0.7778	0.004	Yes	3.023	-0.004	2.0	GoodResponse	0	0.223	n/a	1	8	ButtonPress	AvoidedLoss	True
90.857	0.38	Lose2	0.7778	n/a	Yes	3.023	n/a	n/a	GoodResponse	0	n/a	n/a	1	8	Blank	AvoidedLoss	True
91.225	1.45	Lose2	0.7778	n/a	Yes	3.023	n/a	5.0	GoodResponse	0	0.017	90.242	1	8	Feedback	AvoidedLoss	True
92.679	3.023	Lose2	0.7778	n/a	Yes	3.023	n/a	n/a	GoodResponse	0	0.0	n/a	1	8	ISIslide	AvoidedLoss	True
95.722	0.25	Lose2	0.8	0.0	Yes	3.128	0.022	n/a	GoodResponse	0	n/a	n/a	1	9	Cue	AvoidedLoss	True
95.973	3.95	Lose2	0.8	0.0	Yes	3.128	0.001	n/a	GoodResponse	0	n/a	n/a	1	9	Fixation	AvoidedLoss	True
99.918	0.31	Lose2	0.8	0.004	Yes	3.128	-0.004	2.0	GoodResponse	0	0.208	99.126	1	9	Target	AvoidedLoss	True
100.126	0.3	Lose2	0.8	0.004	Yes	3.128	-0.004	2.0	GoodResponse	0	0.208	n/a	1	9	ButtonPress	AvoidedLoss	True
100.235	0.39	Lose2	0.8	n/a	Yes	3.128	n/a	n/a	GoodResponse	0	n/a	n/a	1	9	Blank	AvoidedLoss	True
100.62	1.45	Lose2	0.8	n/a	Yes	3.128	n/a	5.0	GoodResponse	0	0.037	99.657	1	9	Feedback	AvoidedLoss	True
102.074	3.128	Lose2	0.8	n/a	Yes	3.128	n/a	n/a	GoodResponse	0	0.0	n/a	1	9	ISIslide	AvoidedLoss	True
105.217	0.25	Control	0.8181999999999999	0.0	Yes	3.283	0.017	n/a	GoodResponse	0	n/a	n/a	1	10	Cue	Neutral	True
105.468	4.0	Control	0.8181999999999999	0.0	Yes	3.283	0.001	n/a	GoodResponse	0	n/a	n/a	1	10	Fixation	Neutral	True
109.463	0.3	Control	0.8181999999999999	0.004	Yes	3.283	-0.004	2.0	GoodResponse	0	0.266	108.729	1	10	Target	Neutral	True
109.729	0.3	Control	0.8181999999999999	0.004	Yes	3.283	-0.004	2.0	GoodResponse	0	0.266	n/a	1	10	ButtonPress	Neutral	True
109.764	0.4	Control	0.8181999999999999	n/a	Yes	3.283	n/a	n/a	GoodResponse	0	n/a	n/a	1	10	Blank	Neutral	True
110.165	1.45	Control	0.8181999999999999	n/a	Yes	3.283	n/a	5.0	GoodResponse	0	0.007	109.172	1	10	Feedback	Neutral	True
111.619	3.283	Control	0.8181999999999999	n/a	Yes	3.283	n/a	n/a	GoodResponse	0	0.0	n/a	1	10	ISIslide	Neutral	True
114.929	0.25	Lose2	0.8332999999999999	0.001	Yes	2.721	0.029	n/a	GoodResponse	0	n/a	n/a	1	11	Cue	AvoidedLoss	True
115.18	4.05	Lose2	0.8332999999999999	0.0	Yes	2.721	0.001	n/a	GoodResponse	0	n/a	n/a	1	11	Fixation	AvoidedLoss	True
119.226	0.29	Lose2	0.8332999999999999	0.003	Yes	2.721	-0.003	2.0	GoodResponse	0	0.233	118.459	1	11	Target	AvoidedLoss	True
119.459	0.3	Lose2	0.8332999999999999	0.003	Yes	2.721	-0.003	2.0	GoodResponse	0	0.233	n/a	1	11	ButtonPress	AvoidedLoss	True
119.527	0.41	Lose2	0.8332999999999999	n/a	Yes	2.721	n/a	n/a	GoodResponse	0	n/a	n/a	1	11	Blank	AvoidedLoss	True
119.928	1.45	Lose2	0.8332999999999999	n/a	Yes	2.721	n/a	5.0	GoodResponse	0	0.046	118.974	1	11	Feedback	AvoidedLoss	True
121.382	2.721	Lose2	0.8332999999999999	n/a	Yes	2.721	n/a	n/a	GoodResponse	0	0.0	n/a	1	11	ISIslide	AvoidedLoss	True
124.124	0.25	Control	0.8462000000000001	0.0	Yes	2.976	0.024	n/a	GoodResponse	0	n/a	n/a	1	12	Cue	Neutral	True
124.374	3.9	Control	0.8462000000000001	0.0	Yes	2.976	0.0	n/a	GoodResponse	0	n/a	n/a	1	12	Fixation	Neutral	True
128.286	0.28	Control	0.8462000000000001	0.0	Yes	2.976	0.012	2.0	GoodResponse	0	0.22	127.506	1	12	Target	Neutral	True
128.506	0.3	Control	0.8462000000000001	0.0	Yes	2.976	0.012	2.0	GoodResponse	0	0.22	n/a	1	12	ButtonPress	Neutral	True
128.554	0.42	Control	0.8462000000000001	n/a	Yes	2.976	n/a	n/a	GoodResponse	0	n/a	n/a	1	12	Blank	Neutral	True
128.972	1.45	Control	0.8462000000000001	n/a	Yes	2.976	n/a	5.0	GoodResponse	0	0.027	127.999	1	12	Feedback	Neutral	True
130.426	2.976	Control	0.8462000000000001	n/a	Yes	2.976	n/a	n/a	GoodResponse	0	0.0	n/a	1	12	ISIslide	Neutral	True
133.418	0.25	Control	0.8571	0.0	Yes	2.782	0.018	n/a	GoodResponse	0	n/a	n/a	1	13	Cue	Neutral	True
133.669	4.0	Control	0.8571	0.0	Yes	2.782	0.001	n/a	GoodResponse	0	n/a	n/a	1	13	Fixation	Neutral	True
137.664	0.27	Control	0.8571	0.004	Yes	2.782	-0.004	2.0	GoodResponse	0	0.25	136.914	1	13	Target	Neutral	True
137.914	0.3	Control	0.8571	0.004	Yes	2.782	-0.004	2.0	GoodResponse	0	0.25	n/a	1	13	ButtonPress	Neutral	True
137.948	0.43	Control	0.8571	n/a	Yes	2.782	n/a	n/a	GoodResponse	0	n/a	n/a	1	13	Blank	Neutral	True
138.366	1.45	Control	0.8571	n/a	Yes	2.782	n/a	5.0	GoodResponse	0	0.047	137.413	1	13	Feedback	Neutral	True
139.821	2.782	Control	0.8571	n/a	Yes	2.782	n/a	n/a	GoodResponse	0	0.0	n/a	1	13	ISIslide	Neutral	True
142.629	0.25	Win2	0.8667	0.0	Yes	2.671	0.029	n/a	GoodResponse	1	n/a	n/a	2	14	Cue	Win	True
142.88	4.1	Win2	0.8667	0.0	Yes	2.671	0.001	n/a	GoodResponse	1	n/a	n/a	2	14	Fixation	Win	True
146.976	0.26	Win2	0.8667	0.003	Yes	2.671	-0.003	2.0	GoodResponse	1	0.209	146.185	2	14	Target	Win	True
147.185	0.3	Win2	0.8667	0.003	Yes	2.671	-0.003	2.0	GoodResponse	1	0.209	n/a	2	14	ButtonPress	Win	True
147.243	0.44	Win2	0.8667	n/a	Yes	2.671	n/a	n/a	GoodResponse	1	n/a	n/a	2	14	Blank	Win	True
147.678	1.45	Win2	0.8667	n/a	Yes	2.671	n/a	5.0	GoodResponse	1	0.007	146.685	2	14	Feedback	Win	True
149.132	2.671	Win2	0.8667	n/a	Yes	2.671	n/a	n/a	GoodResponse	1	0.0	n/a	2	14	ISIslide	Win	True
151.823	0.25	Control	0.8125	0.0	No	2.977	0.023	n/a	NoResponse	0	n/a	n/a	2	15	Cue	Neutral	True
152.074	4.0	Control	0.8125	0.0	No	2.977	0.001	n/a	NoResponse	0	n/a	n/a	2	15	Fixation	Neutral	True
156.069	0.25	Control	0.8125	0.004	No	2.977	-0.004	2.0	NoResponse	0	0.29	155.359	2	15	Target	Neutral	True
156.32	0.45	Control	0.8125	n/a	No	2.977	n/a	n/a	NoResponse	0	n/a	n/a	2	15	Blank	Neutral	True
156.359	0.3	Control	0.8125	0.004	No	2.977	-0.004	2.0	NoResponse	0	0.29	n/a	2	15	ButtonPress	Neutral	True
156.772	1.45	Control	0.8125	n/a	No	2.977	n/a	5.0	NoResponse	0	0.032	155.804	2	15	Feedback	Neutral	True
158.226	2.977	Control	0.8125	n/a	No	2.977	n/a	n/a	NoResponse	0	0.0	n/a	2	15	ISIslide	Neutral	True
161.218	0.25	Win2	0.7646999999999999	0.0	No	2.882	0.018	n/a	NoResponse	0	n/a	n/a	2	16	Cue	MissedWin	True
161.469	4.0	Win2	0.7646999999999999	0.0	No	2.882	0.001	n/a	NoResponse	0	n/a	n/a	2	16	Fixation	MissedWin	True
165.464	0.24	Win2	0.7646999999999999	0.004	No	2.882	-0.004	2.0	NoResponse	0	0.266	164.73	2	16	Target	MissedWin	True
165.715	0.46	Win2	0.7646999999999999	n/a	No	2.882	n/a	n/a	NoResponse	0	n/a	n/a	2	16	Blank	MissedWin	True
165.73	0.3	Win2	0.7646999999999999	0.004	No	2.882	-0.004	2.0	NoResponse	0	0.266	n/a	2	16	ButtonPress	MissedWin	True
166.166	1.45	Win2	0.7646999999999999	n/a	No	2.882	n/a	5.0	NoResponse	0	0.008	165.174	2	16	Feedback	MissedWin	True
167.621	2.882	Win2	0.7646999999999999	n/a	No	2.882	n/a	n/a	NoResponse	0	0.0	n/a	2	16	ISIslide	MissedWin	True
170.53	0.25	Lose2	0.7778	0.0	Yes	2.72	0.03	n/a	GoodResponse	0	n/a	n/a	2	17	Cue	AvoidedLoss	True
170.78	3.95	Lose2	0.7778	0.0	Yes	2.72	0.0	n/a	GoodResponse	0	n/a	n/a	2	17	Fixation	AvoidedLoss	True
174.725	0.23	Lose2	0.7778	0.005	Yes	2.72	-0.005	2.0	GoodResponse	0	0.221	173.946	2	17	Target	AvoidedLoss	True
174.946	0.3	Lose2	0.7778	0.005	Yes	2.72	-0.005	2.0	GoodResponse	0	0.221	n/a	2	17	ButtonPress	AvoidedLoss	True
174.959	0.47	Lose2	0.7778	n/a	Yes	2.72	n/a	n/a	GoodResponse	0	n/a	n/a	2	17	Blank	AvoidedLoss	True
175.428	1.45	Lose2	0.7778	n/a	Yes	2.72	n/a	5.0	GoodResponse	0	0.009	174.437	2	17	Feedback	AvoidedLoss	True
176.882	2.72	Lose2	0.7778	n/a	Yes	2.72	n/a	n/a	GoodResponse	0	0.0	n/a	2	17	ISIslide	AvoidedLoss	True
179.623	0.25	Lose2	0.7368000000000001	0.001	No	2.727	0.023	n/a	NoResponse	-1	n/a	n/a	1	18	Cue	Loss	True
179.874	4.05	Lose2	0.7368000000000001	0.0	No	2.727	0.001	n/a	NoResponse	-1	n/a	n/a	1	18	Fixation	Loss	True
183.92	0.22	Lose2	0.7368000000000001	0.003	No	2.727	-0.003	2.0	NoResponse	-1	0.242	183.162	1	18	Target	Loss	True
184.154	0.48	Lose2	0.7368000000000001	n/a	No	2.727	n/a	n/a	NoResponse	-1	n/a	n/a	1	18	Blank	Loss	True
184.162	0.3	Lose2	0.7368000000000001	0.003	No	2.727	-0.003	2.0	NoResponse	-1	0.242	n/a	1	18	ButtonPress	Loss	True
184.622	1.45	Lose2	0.7368000000000001	n/a	No	2.727	n/a	5.0	NoResponse	-1	0.035	183.657	1	18	Feedback	Loss	True
186.076	2.727	Lose2	0.7368000000000001	n/a	No	2.727	n/a	n/a	NoResponse	-1	0.0	n/a	1	18	ISIslide	Loss	True
188.818	0.25	Control	0.7	0.0	No	2.932	0.018	n/a	NoResponse	0	n/a	n/a	1	19	Cue	Neutral	True
189.068	3.95	Control	0.7	0.001	No	2.932	0.0	n/a	NoResponse	0	n/a	n/a	1	19	Fixation	Neutral	True
193.014	0.21	Control	0.7	0.004	No	2.932	-0.004	2.0	NoResponse	0	0.382	192.396	1	19	Target	Neutral	True
193.231	0.49	Control	0.7	n/a	No	2.932	n/a	n/a	NoResponse	0	n/a	n/a	1	19	Blank	Neutral	True
193.396	0.3	Control	0.7	0.004	No	2.932	-0.004	2.0	NoResponse	0	0.382	n/a	1	19	ButtonPress	Neutral	True
193.716	1.45	Control	0.7	n/a	No	2.932	n/a	5.0	NoResponse	0	0.014	192.73	1	19	Feedback	Neutral	True
195.17	2.932	Control	0.7	n/a	No	2.932	n/a	n/a	NoResponse	0	0.0	n/a	1	19	ISIslide	Neutral	True
198.129	0.25	Control	0.6667000000000001	0.0	No	2.621	0.029	n/a	NoResponse	0	n/a	n/a	1	20	Cue	Neutral	True
198.38	4.05	Control	0.6667000000000001	0.0	No	2.621	0.001	n/a	NoResponse	0	n/a	n/a	1	20	Fixation	Neutral	True
202.425	0.2	Control	0.6667000000000001	0.004	No	2.621	-0.004	2.0	NoResponse	0	0.356	201.781	1	20	Target	Neutral	True
202.626	0.5	Control	0.6667000000000001	n/a	No	2.621	n/a	n/a	NoResponse	0	n/a	n/a	1	20	Blank	Neutral	True
202.781	0.3	Control	0.6667000000000001	0.004	No	2.621	-0.004	2.0	NoResponse	0	0.356	n/a	1	20	ButtonPress	Neutral	True
203.127	1.45	Control	0.6667000000000001	n/a	No	2.621	n/a	5.0	NoResponse	0	0.018	202.145	1	20	Feedback	Neutral	True
204.582	2.621	Control	0.6667000000000001	n/a	No	2.621	n/a	n/a	NoResponse	0	0.0	n/a	1	20	ISIslide	Neutral	True
207.223	0.25	Control	0.6364	0.0	No	2.777	0.023	n/a	NoResponse	0	n/a	n/a	1	21	Cue	Neutral	True
207.474	4.1	Control	0.6364	0.0	No	2.777	0.001	n/a	NoResponse	0	n/a	n/a	1	21	Fixation	Neutral	True
211.569	0.19	Control	0.6364	0.004	No	2.777	-0.004	2.0	NoResponse	0	0.305	210.874	1	21	Target	Neutral	True
211.77	0.51	Control	0.6364	n/a	No	2.777	n/a	n/a	NoResponse	0	n/a	n/a	1	21	Blank	Neutral	True
211.874	0.3	Control	0.6364	0.004	No	2.777	-0.004	2.0	NoResponse	0	0.305	n/a	1	21	ButtonPress	Neutral	True
212.271	1.45	Control	0.6364	n/a	No	2.777	n/a	5.0	NoResponse	0	0.045	211.316	1	21	Feedback	Neutral	True
213.726	2.777	Control	0.6364	n/a	No	2.777	n/a	n/a	NoResponse	0	0.0	n/a	1	21	ISIslide	Neutral	True
216.517	0.25	Control	0.6087	0.001	No	2.783	0.017	n/a	NoResponse	0	n/a	n/a	1	22	Cue	Neutral	True
216.768	4.0	Control	0.6087	0.0	No	2.783	0.001	n/a	NoResponse	0	n/a	n/a	1	22	Fixation	Neutral	True
220.764	0.2	Control	0.6087	0.003	No	2.783	-0.003	2.0	NoResponse	0	0.323	220.087	1	22	Target	Neutral	True
220.964	0.5	Control	0.6087	n/a	No	2.783	n/a	n/a	NoResponse	0	n/a	n/a	1	22	Blank	Neutral	True
221.087	0.3	Control	0.6087	0.003	No	2.783	-0.003	2.0	NoResponse	0	0.323	n/a	1	22	ButtonPress	Neutral	True
221.466	1.45	Control	0.6087	n/a	No	2.783	n/a	5.0	NoResponse	0	0.02	220.486	1	22	Feedback	Neutral	True
222.92	2.783	Control	0.6087	n/a	No	2.783	n/a	n/a	NoResponse	0	0.0	n/a	1	22	ISIslide	Neutral	True
225.728	0.25	Control	0.5832999999999999	0.001	No	2.772	0.028	n/a	NoResponse	0	n/a	n/a	1	23	Cue	Neutral	True
225.979	3.9	Control	0.5832999999999999	0.0	No	2.772	0.001	n/a	NoResponse	0	n/a	n/a	1	23	Fixation	Neutral	True
229.874	0.21	Control	0.5832999999999999	0.004	No	2.772	-0.004	2.0	NoResponse	0	0.242	229.116	1	23	Target	Neutral	True
230.092	0.49	Control	0.5832999999999999	n/a	No	2.772	n/a	n/a	NoResponse	0	n/a	n/a	1	23	Blank	Neutral	True
230.116	0.3	Control	0.5832999999999999	0.004	No	2.772	-0.004	2.0	NoResponse	0	0.242	n/a	1	23	ButtonPress	Neutral	True
230.576	1.45	Control	0.5832999999999999	n/a	No	2.772	n/a	5.0	NoResponse	0	0.032	229.608	1	23	Feedback	Neutral	True
232.031	2.772	Control	0.5832999999999999	n/a	No	2.772	n/a	n/a	NoResponse	0	0.0	n/a	1	23	ISIslide	Neutral	True
234.822	0.25	Win2	0.6	0.0	Yes	3.128	0.022	n/a	GoodResponse	1	n/a	n/a	2	24	Cue	Win	True
235.073	3.95	Win2	0.6	0.0	Yes	3.128	0.001	n/a	GoodResponse	1	n/a	n/a	2	24	Fixation	Win	True
239.018	0.22	Win2	0.6	0.004	Yes	3.128	-0.004	2.0	GoodResponse	1	0.219	238.237	2	24	Target	Win	True
239.237	0.3	Win2	0.6	0.004	Yes	3.128	-0.004	2.0	GoodResponse	1	0.219	n/a	2	24	ButtonPress	Win	True
239.252	0.48	Win2	0.6	n/a	Yes	3.128	n/a	n/a	GoodResponse	1	n/a	n/a	2	24	Blank	Win	True
239.72	1.45	Win2	0.6	n/a	Yes	3.128	n/a	5.0	GoodResponse	1	0.011	238.731	2	24	Feedback	Win	True
241.175	3.128	Win2	0.6	n/a	Yes	3.128	n/a	n/a	GoodResponse	1	0.0	n/a	2	24	ISIslide	Win	True
244.318	0.25	Win2	0.5769	0.0	No	3.082	0.018	n/a	NoResponse	0	n/a	n/a	2	25	Cue	MissedWin	True
244.568	4.0	Win2	0.5769	0.0	No	3.082	0.0	n/a	NoResponse	0	n/a	n/a	2	25	Fixation	MissedWin	True
248.564	0.23	Win2	0.5769	0.004	No	3.082	-0.004	2.0	NoResponse	0	0.244	247.808	2	25	Target	MissedWin	True
248.798	0.47	Win2	0.5769	n/a	No	3.082	n/a	n/a	NoResponse	0	n/a	n/a	2	25	Blank	MissedWin	True
248.808	0.3	Win2	0.5769	0.004	No	3.082	-0.004	2.0	NoResponse	0	0.244	n/a	2	25	ButtonPress	MissedWin	True
249.266	1.45	Win2	0.5769	n/a	No	3.082	n/a	5.0	NoResponse	0	0.025	248.291	2	25	Feedback	MissedWin	True
250.72	3.082	Win2	0.5769	n/a	No	3.082	n/a	n/a	NoResponse	0	0.0	n/a	2	25	ISIslide	MissedWin	True
253.829	0.25	Win2	0.5556	0.001	No	2.921	0.029	n/a	NoResponse	0	n/a	n/a	2	26	Cue	MissedWin	True
254.08	3.95	Win2	0.5556	0.0	No	2.921	0.001	n/a	NoResponse	0	n/a	n/a	2	26	Fixation	MissedWin	True
258.025	0.24	Win2	0.5556	0.004	No	2.921	-0.004	2.0	NoResponse	0	0.398	257.423	2	26	Target	MissedWin	True
258.276	0.46	Win2	0.5556	n/a	No	2.921	n/a	n/a	NoResponse	0	n/a	n/a	2	26	Blank	MissedWin	True
258.423	0.3	Win2	0.5556	0.004	No	2.921	-0.004	2.0	NoResponse	0	0.398	n/a	2	26	ButtonPress	MissedWin	True
258.727	1.45	Win2	0.5556	n/a	No	2.921	n/a	5.0	NoResponse	0	0.027	257.754	2	26	Feedback	MissedWin	True
260.182	2.921	Win2	0.5556	n/a	No	2.921	n/a	n/a	NoResponse	0	0.0	n/a	2	26	ISIslide	MissedWin	True
263.124	0.25	Lose2	0.5714	0.0	Yes	2.826	0.024	n/a	GoodResponse	0	n/a	n/a	2	27	Cue	AvoidedLoss	True
263.375	4.05	Lose2	0.5714	0.0	Yes	2.826	0.001	n/a	GoodResponse	0	n/a	n/a	2	27	Fixation	AvoidedLoss	True
267.42	0.25	Lose2	0.5714	0.004	Yes	2.826	-0.004	2.0	GoodResponse	0	0.202	266.622	2	27	Target	AvoidedLoss	True
267.622	0.3	Lose2	0.5714	0.004	Yes	2.826	-0.004	2.0	GoodResponse	0	0.202	n/a	2	27	ButtonPress	AvoidedLoss	True
267.671	0.45	Lose2	0.5714	n/a	Yes	2.826	n/a	n/a	GoodResponse	0	n/a	n/a	2	27	Blank	AvoidedLoss	True
268.122	1.45	Lose2	0.5714	n/a	Yes	2.826	n/a	5.0	GoodResponse	0	0.047	267.169	2	27	Feedback	AvoidedLoss	True
269.577	2.826	Lose2	0.5714	n/a	Yes	2.826	n/a	n/a	GoodResponse	0	0.0	n/a	2	27	ISIslide	AvoidedLoss	True
272.419	0.25	Control	0.5517	0.0	No	2.831	0.019	n/a	LatePress	0	n/a	n/a	2	28	Cue	Neutral	True
272.669	4.05	Control	0.5517	0.0	No	2.831	0.0	n/a	LatePress	0	n/a	n/a	2	28	Fixation	Neutral	True
276.715	0.26	Control	0.5517	0.004	No	2.831	-0.004	2.0	LatePress	0	0.261	275.976	2	28	Target	Neutral	True
276.976	0.3	Control	0.5517	0.004	No	2.831	-0.004	2.0	LatePress	0	0.261	n/a	2	28	ButtonPress	Neutral	True
276.982	0.44	Control	0.5517	n/a	No	2.831	n/a	n/a	LatePress	0	n/a	n/a	2	28	Blank	Neutral	True
277.417	1.45	Control	0.5517	n/a	No	2.831	n/a	5.0	LatePress	0	0.02	276.437	2	28	Feedback	Neutral	True
278.871	2.831	Control	0.5517	n/a	No	2.831	n/a	n/a	LatePress	0	0.0	n/a	2	28	ISIslide	Neutral	True
281.73	0.25	Lose2	0.5667	0.0	Yes	2.82	0.03	n/a	GoodResponse	0	n/a	n/a	2	29	Cue	AvoidedLoss	True
281.981	3.95	Lose2	0.5667	0.0	Yes	2.82	0.001	n/a	GoodResponse	0	n/a	n/a	2	29	Fixation	AvoidedLoss	True
285.926	0.27	Lose2	0.5667	0.004	Yes	2.82	-0.004	2.0	GoodResponse	0	0.203	285.129	2	29	Target	AvoidedLoss	True
286.129	0.3	Lose2	0.5667	0.004	Yes	2.82	-0.004	2.0	GoodResponse	0	0.203	n/a	2	29	ButtonPress	AvoidedLoss	True
286.21	0.43	Lose2	0.5667	n/a	Yes	2.82	n/a	n/a	GoodResponse	0	n/a	n/a	2	29	Blank	AvoidedLoss	True
286.628	1.45	Lose2	0.5667	n/a	Yes	2.82	n/a	5.0	GoodResponse	0	0.029	285.657	2	29	Feedback	AvoidedLoss	True
288.082	2.82	Lose2	0.5667	n/a	Yes	2.82	n/a	n/a	GoodResponse	0	0.0	n/a	2	29	ISIslide	AvoidedLoss	True
290.924	0.25	Win2	0.5484	0.0	No	2.776	0.024	n/a	PrematurePress	0	n/a	n/a	2	30	Cue	MissedWin	True
291.175	3.9	Win2	0.5484	0.0	No	2.776	0.001	n/a	PrematurePress	0	n/a	n/a	2	30	Fixation	MissedWin	True
295.07	0.28	Win2	0.5484	0.004	No	2.776	-0.004	2.0	PrematurePress	0	0.081	294.151	2	30	Target	MissedWin	True
295.151	0.3	Win2	0.5484	0.004	No	2.776	-0.004	2.0	PrematurePress	0	0.081	n/a	2	30	ButtonPress	MissedWin	True
295.354	0.42	Win2	0.5484	n/a	No	2.776	n/a	n/a	PrematurePress	0	n/a	n/a	2	30	Blank	MissedWin	True
295.772	1.45	Win2	0.5484	n/a	No	2.776	n/a	5.0	PrematurePress	0	0.008	294.78	2	30	Feedback	MissedWin	True
297.226	2.776	Win2	0.5484	n/a	No	2.776	n/a	n/a	PrematurePress	0	0.0	n/a	2	30	ISIslide	MissedWin	True
300.018	0.25	Lose2	0.5625	0.0	Yes	2.832	0.018	n/a	GoodResponse	0	n/a	n/a	2	31	Cue	AvoidedLoss	True
300.269	4.05	Lose2	0.5625	0.0	Yes	2.832	0.001	n/a	GoodResponse	0	n/a	n/a	2	31	Fixation	AvoidedLoss	True
304.314	0.29	Lose2	0.5625	0.004	Yes	2.832	-0.004	2.0	GoodResponse	0	0.225	303.539	2	31	Target	AvoidedLoss	True
304.539	0.3	Lose2	0.5625	0.004	Yes	2.832	-0.004	2.0	GoodResponse	0	0.225	n/a	2	31	ButtonPress	AvoidedLoss	True
304.615	0.41	Lose2	0.5625	n/a	Yes	2.832	n/a	n/a	GoodResponse	0	n/a	n/a	2	31	Blank	AvoidedLoss	True
305.016	1.45	Lose2	0.5625	n/a	Yes	2.832	n/a	5.0	GoodResponse	0	0.031	304.047	2	31	Feedback	AvoidedLoss	True
306.471	2.832	Lose2	0.5625	n/a	Yes	2.832	n/a	n/a	GoodResponse	0	0.0	n/a	2	31	ISIslide	AvoidedLoss	True
309.329	0.25	Lose2	0.5758	0.0	Yes	2.621	0.029	n/a	GoodResponse	0	n/a	n/a	2	32	Cue	AvoidedLoss	True
309.58	4.15	Lose2	0.5758	0.0	Yes	2.621	0.001	n/a	GoodResponse	0	n/a	n/a	2	32	Fixation	AvoidedLoss	True
313.726	0.3	Lose2	0.5758	0.003	Yes	2.621	-0.003	2.0	GoodResponse	0	0.22	312.946	2	32	Target	AvoidedLoss	True
313.946	0.3	Lose2	0.5758	0.003	Yes	2.621	-0.003	2.0	GoodResponse	0	0.22	n/a	2	32	ButtonPress	AvoidedLoss	True
314.027	0.4	Lose2	0.5758	n/a	Yes	2.621	n/a	n/a	GoodResponse	0	n/a	n/a	2	32	Blank	AvoidedLoss	True
314.428	1.45	Lose2	0.5758	n/a	Yes	2.621	n/a	5.0	GoodResponse	0	0.033	313.461	2	32	Feedback	AvoidedLoss	True
315.882	2.621	Lose2	0.5758	n/a	Yes	2.621	n/a	n/a	GoodResponse	0	0.0	n/a	2	32	ISIslide	AvoidedLoss	True
318.523	0.25	Win2	0.5882000000000001	0.001	Yes	2.677	0.023	n/a	GoodResponse	1	n/a	n/a	3	33	Cue	Win	True
318.774	4.0	Win2	0.5882000000000001	0.0	Yes	2.677	0.001	n/a	GoodResponse	1	n/a	n/a	3	33	Fixation	Win	True
322.77	0.31	Win2	0.5882000000000001	0.003	Yes	2.677	-0.003	2.0	GoodResponse	1	0.251	322.021	3	33	Target	Win	True
323.021	0.3	Win2	0.5882000000000001	0.003	Yes	2.677	-0.003	2.0	GoodResponse	1	0.251	n/a	3	33	ButtonPress	Win	True
323.087	0.39	Win2	0.5882000000000001	n/a	Yes	2.677	n/a	n/a	GoodResponse	1	n/a	n/a	3	33	Blank	Win	True
323.472	1.45	Win2	0.5882000000000001	n/a	Yes	2.677	n/a	5.0	GoodResponse	1	0.014	322.486	3	33	Feedback	Win	True
324.926	2.677	Win2	0.5882000000000001	n/a	Yes	2.677	n/a	n/a	GoodResponse	1	0.0	n/a	3	33	ISIslide	Win	True
327.617	0.25	Lose2	0.6	0.001	Yes	2.633	0.017	n/a	GoodResponse	0	n/a	n/a	3	34	Cue	AvoidedLoss	True
327.868	4.05	Lose2	0.6	0.0	Yes	2.633	0.001	n/a	GoodResponse	0	n/a	n/a	3	34	Fixation	AvoidedLoss	True
331.914	0.32	Lose2	0.6	0.003	Yes	2.633	-0.003	2.0	GoodResponse	0	0.224	331.138	3	34	Target	AvoidedLoss	True
332.138	0.3	Lose2	0.6	0.003	Yes	2.633	-0.003	2.0	GoodResponse	0	0.224	n/a	3	34	ButtonPress	AvoidedLoss	True
332.248	0.38	Lose2	0.6	n/a	Yes	2.633	n/a	n/a	GoodResponse	0	n/a	n/a	3	34	Blank	AvoidedLoss	True
332.616	1.45	Lose2	0.6	n/a	Yes	2.633	n/a	5.0	GoodResponse	0	0.04	331.656	3	34	Feedback	AvoidedLoss	True
334.07	2.633	Lose2	0.6	n/a	Yes	2.633	n/a	n/a	GoodResponse	0	0.0	n/a	3	34	ISIslide	AvoidedLoss	True
336.728	0.25	Lose2	0.6111	0.0	Yes	2.672	0.028	n/a	GoodResponse	0	n/a	n/a	3	35	Cue	AvoidedLoss	True
336.979	4.0	Lose2	0.6111	0.0	Yes	2.672	0.001	n/a	GoodResponse	0	n/a	n/a	3	35	Fixation	AvoidedLoss	True
340.974	0.33	Lose2	0.6111	0.004	Yes	2.672	-0.004	2.0	GoodResponse	0	0.228	340.202	3	35	Target	AvoidedLoss	True
341.202	0.3	Lose2	0.6111	0.004	Yes	2.672	-0.004	2.0	GoodResponse	0	0.228	n/a	3	35	ButtonPress	AvoidedLoss	True
341.309	0.37	Lose2	0.6111	n/a	Yes	2.672	n/a	n/a	GoodResponse	0	n/a	n/a	3	35	Blank	AvoidedLoss	True
341.676	1.45	Lose2	0.6111	n/a	Yes	2.672	n/a	5.0	GoodResponse	0	0.008	340.684	3	35	Feedback	AvoidedLoss	True
343.131	2.672	Lose2	0.6111	n/a	Yes	2.672	n/a	n/a	GoodResponse	0	0.0	n/a	3	35	ISIslide	AvoidedLoss	True
345.822	0.25	Control	0.6215999999999999	0.0	Yes	2.678	0.022	n/a	GoodResponse	0	n/a	n/a	3	36	Cue	Neutral	True
346.073	4.0	Control	0.6215999999999999	0.0	Yes	2.678	0.001	n/a	GoodResponse	0	n/a	n/a	3	36	Fixation	Neutral	True
350.068	0.34	Control	0.6215999999999999	0.004	Yes	2.678	-0.004	2.0	GoodResponse	0	0.281	349.349	3	36	Target	Neutral	True
350.349	0.3	Control	0.6215999999999999	0.004	Yes	2.678	-0.004	2.0	GoodResponse	0	0.281	n/a	3	36	ButtonPress	Neutral	True
350.419	0.36	Control	0.6215999999999999	n/a	Yes	2.678	n/a	n/a	GoodResponse	0	n/a	n/a	3	36	Blank	Neutral	True
350.77	1.45	Control	0.6215999999999999	n/a	Yes	2.678	n/a	5.0	GoodResponse	0	0.033	349.803	3	36	Feedback	Neutral	True
352.225	2.678	Control	0.6215999999999999	n/a	Yes	2.678	n/a	n/a	GoodResponse	0	0.0	n/a	3	36	ISIslide	Neutral	True
354.916	0.25	Win2	0.6315999999999999	0.0	Yes	2.884	0.016	n/a	GoodResponse	1	n/a	n/a	4	37	Cue	Win	True
355.167	4.0	Win2	0.6315999999999999	0.0	Yes	2.884	0.001	n/a	GoodResponse	1	n/a	n/a	4	37	Fixation	Win	True
359.162	0.35	Win2	0.6315999999999999	0.004	Yes	2.884	-0.004	2.0	GoodResponse	1	0.214	358.376	4	37	Target	Win	True
359.376	0.3	Win2	0.6315999999999999	0.004	Yes	2.884	-0.004	2.0	GoodResponse	1	0.214	n/a	4	37	ButtonPress	Win	True
359.513	0.35	Win2	0.6315999999999999	n/a	Yes	2.884	n/a	n/a	GoodResponse	1	n/a	n/a	4	37	Blank	Win	True
359.864	1.45	Win2	0.6315999999999999	n/a	Yes	2.884	n/a	5.0	GoodResponse	1	0.012	358.876	4	37	Feedback	Win	True
361.319	2.884	Win2	0.6315999999999999	n/a	Yes	2.884	n/a	n/a	GoodResponse	1	0.0	n/a	4	37	ISIslide	Win	True
364.227	0.25	Lose2	0.6409999999999999	0.0	Yes	2.823	0.027	n/a	GoodResponse	0	n/a	n/a	4	38	Cue	AvoidedLoss	True
364.478	3.95	Lose2	0.6409999999999999	0.0	Yes	2.823	0.001	n/a	GoodResponse	0	n/a	n/a	4	38	Fixation	AvoidedLoss	True
368.423	0.36	Lose2	0.6409999999999999	0.004	Yes	2.823	-0.004	2.0	GoodResponse	0	0.246	367.669	4	38	Target	AvoidedLoss	True
368.669	0.3	Lose2	0.6409999999999999	0.004	Yes	2.823	-0.004	2.0	GoodResponse	0	0.246	n/a	4	38	ButtonPress	AvoidedLoss	True
368.791	0.34	Lose2	0.6409999999999999	n/a	Yes	2.823	n/a	n/a	GoodResponse	0	n/a	n/a	4	38	Blank	AvoidedLoss	True
369.125	1.45	Lose2	0.6409999999999999	n/a	Yes	2.823	n/a	5.0	GoodResponse	0	0.02	368.145	4	38	Feedback	AvoidedLoss	True
370.58	2.823	Lose2	0.6409999999999999	n/a	Yes	2.823	n/a	n/a	GoodResponse	0	0.0	n/a	4	38	ISIslide	AvoidedLoss	True
373.422	0.25	Win2	0.65	0.0	Yes	2.978	0.022	n/a	GoodResponse	1	n/a	n/a	5	39	Cue	Win	True
373.672	4.1	Win2	0.65	0.0	Yes	2.978	0.0	n/a	GoodResponse	1	n/a	n/a	5	39	Fixation	Win	True
377.768	0.37	Win2	0.65	0.004	Yes	2.978	-0.004	2.0	GoodResponse	1	0.244	377.012	5	39	Target	Win	True
378.012	0.3	Win2	0.65	0.004	Yes	2.978	-0.004	2.0	GoodResponse	1	0.244	n/a	5	39	ButtonPress	Win	True
378.152	0.33	Win2	0.65	n/a	Yes	2.978	n/a	n/a	GoodResponse	1	n/a	n/a	5	39	Blank	Win	True
378.47	1.45	Win2	0.65	n/a	Yes	2.978	n/a	5.0	GoodResponse	1	0.041	377.511	5	39	Feedback	Win	True
379.924	2.978	Win2	0.65	n/a	Yes	2.978	n/a	n/a	GoodResponse	1	0.0	n/a	5	39	ISIslide	Win	True
382.917	0.25	Win2	0.6585	0.0	Yes	2.733	0.017	n/a	GoodResponse	1	n/a	n/a	6	40	Cue	Win	True
383.167	3.95	Win2	0.6585	0.001	Yes	2.733	0.0	n/a	GoodResponse	1	n/a	n/a	6	40	Fixation	Win	True
387.113	0.38	Win2	0.6585	0.004	Yes	2.733	-0.004	2.0	GoodResponse	1	0.228	386.341	6	40	Target	Win	True
387.341	0.3	Win2	0.6585	0.004	Yes	2.733	-0.004	2.0	GoodResponse	1	0.228	n/a	6	40	ButtonPress	Win	True
387.497	0.32	Win2	0.6585	n/a	Yes	2.733	n/a	n/a	GoodResponse	1	n/a	n/a	6	40	Blank	Win	True
387.815	1.45	Win2	0.6585	n/a	Yes	2.733	n/a	5.0	GoodResponse	1	0.013	386.828	6	40	Feedback	Win	True
389.269	2.733	Win2	0.6585	n/a	Yes	2.733	n/a	n/a	GoodResponse	1	0.0	n/a	6	40	ISIslide	Win	True
392.027	0.25	Win2	0.6667000000000001	0.0	Yes	2.773	0.027	n/a	GoodResponse	1	n/a	n/a	7	41	Cue	Win	True
392.278	3.9	Win2	0.6667000000000001	0.0	Yes	2.773	0.001	n/a	GoodResponse	1	n/a	n/a	7	41	Fixation	Win	True
396.173	0.38	Win2	0.6667000000000001	0.004	Yes	2.773	-0.004	2.0	GoodResponse	1	0.236	395.409	7	41	Target	Win	True
396.409	0.3	Win2	0.6667000000000001	0.004	Yes	2.773	-0.004	2.0	GoodResponse	1	0.236	n/a	7	41	ButtonPress	Win	True
396.558	0.32	Win2	0.6667000000000001	n/a	Yes	2.773	n/a	n/a	GoodResponse	1	n/a	n/a	7	41	Blank	Win	True
396.875	1.45	Win2	0.6667000000000001	n/a	Yes	2.773	n/a	5.0	GoodResponse	1	0.025	395.9	7	41	Feedback	Win	True
398.33	2.773	Win2	0.6667000000000001	n/a	Yes	2.773	n/a	n/a	GoodResponse	1	0.0	n/a	7	41	ISIslide	Win	True
401.121	0.25	Control	0.6744	0.0	Yes	2.929	0.021	n/a	GoodResponse	0	n/a	n/a	7	42	Cue	Neutral	True
401.372	3.85	Control	0.6744	0.0	Yes	2.929	0.001	n/a	GoodResponse	0	n/a	n/a	7	42	Fixation	Neutral	True
405.217	0.37	Control	0.6744	0.004	Yes	2.929	-0.004	2.0	GoodResponse	0	0.267	404.484	7	42	Target	Neutral	True
405.484	0.3	Control	0.6744	0.004	Yes	2.929	-0.004	2.0	GoodResponse	0	0.267	n/a	7	42	ButtonPress	Neutral	True
405.601	0.33	Control	0.6744	n/a	Yes	2.929	n/a	n/a	GoodResponse	0	n/a	n/a	7	42	Blank	Neutral	True
405.919	1.45	Control	0.6744	n/a	Yes	2.929	n/a	5.0	GoodResponse	0	0.006	404.925	7	42	Feedback	Neutral	True
407.373	2.929	Control	0.6744	n/a	Yes	2.929	n/a	n/a	GoodResponse	0	0.0	n/a	7	42	ISIslide	Neutral	True
410.316	0.25	Win2	0.6818000000000001	0.0	Yes	3.184	0.016	n/a	GoodResponse	1	n/a	n/a	8	43	Cue	Win	True
410.566	4.0	Win2	0.6818000000000001	0.0	Yes	3.184	0.0	n/a	GoodResponse	1	n/a	n/a	8	43	Fixation	Win	True
414.562	0.36	Win2	0.6818000000000001	0.004	Yes	3.184	-0.004	2.0	GoodResponse	1	0.217	413.779	8	43	Target	Win	True
414.779	0.3	Win2	0.6818000000000001	0.004	Yes	3.184	-0.004	2.0	GoodResponse	1	0.217	n/a	8	43	ButtonPress	Win	True
414.929	0.34	Win2	0.6818000000000001	n/a	Yes	3.184	n/a	n/a	GoodResponse	1	n/a	n/a	8	43	Blank	Win	True
415.264	1.45	Win2	0.6818000000000001	n/a	Yes	3.184	n/a	5.0	GoodResponse	1	0.027	414.291	8	43	Feedback	Win	True
416.718	3.184	Win2	0.6818000000000001	n/a	Yes	3.184	n/a	n/a	GoodResponse	1	0.0	n/a	8	43	ISIslide	Win	True
419.928	0.25	Win2	0.6889	0.0	Yes	2.972	0.028	n/a	GoodResponse	1	n/a	n/a	9	44	Cue	Win	True
420.178	4.0	Win2	0.6889	0.001	Yes	2.972	0.0	n/a	GoodResponse	1	n/a	n/a	9	44	Fixation	Win	True
424.174	0.35	Win2	0.6889	0.004	Yes	2.972	-0.004	2.0	GoodResponse	1	0.256	423.43	9	44	Target	Win	True
424.43	0.3	Win2	0.6889	0.004	Yes	2.972	-0.004	2.0	GoodResponse	1	0.256	n/a	9	44	ButtonPress	Win	True
424.525	0.35	Win2	0.6889	n/a	Yes	2.972	n/a	n/a	GoodResponse	1	n/a	n/a	9	44	Blank	Win	True
424.876	1.45	Win2	0.6889	n/a	Yes	2.972	n/a	5.0	GoodResponse	1	0.024	423.9	9	44	Feedback	Win	True
426.33	2.972	Win2	0.6889	n/a	Yes	2.972	n/a	n/a	GoodResponse	1	0.0	n/a	9	44	ISIslide	Win	True
429.323	0.25	Control	0.6957	0.0	Yes	2.877	0.023	n/a	GoodResponse	0	n/a	n/a	9	45	Cue	Neutral	True
429.573	4.1	Control	0.6957	0.0	Yes	2.877	0.0	n/a	GoodResponse	0	n/a	n/a	9	45	Fixation	Neutral	True
433.669	0.34	Control	0.6957	0.004	Yes	2.877	-0.004	2.0	GoodResponse	0	0.239	432.908	9	45	Target	Neutral	True
433.908	0.3	Control	0.6957	0.004	Yes	2.877	-0.004	2.0	GoodResponse	0	0.239	n/a	9	45	ButtonPress	Neutral	True
434.02	0.36	Control	0.6957	n/a	Yes	2.877	n/a	n/a	GoodResponse	0	n/a	n/a	9	45	Blank	Neutral	True
434.371	1.45	Control	0.6957	n/a	Yes	2.877	n/a	5.0	GoodResponse	0	0.042	433.413	9	45	Feedback	Neutral	True
435.825	2.877	Control	0.6957	n/a	Yes	2.877	n/a	n/a	GoodResponse	0	0.0	n/a	9	45	ISIslide	Neutral	True
438.717	0.25	Lose2	0.7021	0.0	Yes	3.383	0.017	n/a	GoodResponse	0	n/a	n/a	9	46	Cue	AvoidedLoss	True
438.968	4.0	Lose2	0.7021	0.0	Yes	3.383	0.001	n/a	GoodResponse	0	n/a	n/a	9	46	Fixation	AvoidedLoss	True
442.963	0.33	Lose2	0.7021	0.004	Yes	3.383	-0.004	2.0	GoodResponse	0	0.25	442.213	9	46	Target	AvoidedLoss	True
443.213	0.3	Lose2	0.7021	0.004	Yes	3.383	-0.004	2.0	GoodResponse	0	0.25	n/a	9	46	ButtonPress	AvoidedLoss	True
443.298	0.37	Lose2	0.7021	n/a	Yes	3.383	n/a	n/a	GoodResponse	0	n/a	n/a	9	46	Blank	AvoidedLoss	True
443.666	1.45	Lose2	0.7021	n/a	Yes	3.383	n/a	5.0	GoodResponse	0	0.015	442.681	9	46	Feedback	AvoidedLoss	True
445.12	3.383	Lose2	0.7021	n/a	Yes	3.383	n/a	n/a	GoodResponse	0	0.0	n/a	9	46	ISIslide	AvoidedLoss	True
448.513	0.25	Lose2	0.7082999999999999	0.001	Yes	2.687	0.013	n/a	GoodResponse	0	n/a	n/a	9	47	Cue	AvoidedLoss	True
448.764	4.0	Lose2	0.7082999999999999	0.0	Yes	2.687	0.001	n/a	GoodResponse	0	n/a	n/a	9	47	Fixation	AvoidedLoss	True
452.76	0.32	Lose2	0.7082999999999999	0.003	Yes	2.687	-0.003	2.0	GoodResponse	0	0.238	451.998	9	47	Target	AvoidedLoss	True
452.998	0.3	Lose2	0.7082999999999999	0.003	Yes	2.687	-0.003	2.0	GoodResponse	0	0.238	n/a	9	47	ButtonPress	AvoidedLoss	True
453.094	0.38	Lose2	0.7082999999999999	n/a	Yes	2.687	n/a	n/a	GoodResponse	0	n/a	n/a	9	47	Blank	AvoidedLoss	True
453.462	1.45	Lose2	0.7082999999999999	n/a	Yes	2.687	n/a	5.0	GoodResponse	0	0.024	452.486	9	47	Feedback	AvoidedLoss	True
454.916	2.687	Lose2	0.7082999999999999	n/a	Yes	2.687	n/a	n/a	GoodResponse	0	0.0	n/a	9	47	ISIslide	AvoidedLoss	True
457.624	0.25	Lose2	0.7143	0.0	Yes	3.026	0.024	n/a	GoodResponse	0	n/a	n/a	9	48	Cue	AvoidedLoss	True
457.875	3.95	Lose2	0.7143	0.0	Yes	3.026	0.001	n/a	GoodResponse	0	n/a	n/a	9	48	Fixation	AvoidedLoss	True
461.82	0.31	Lose2	0.7143	0.004	Yes	3.026	-0.004	2.0	GoodResponse	0	0.222	461.042	9	48	Target	AvoidedLoss	True
462.042	0.3	Lose2	0.7143	0.004	Yes	3.026	-0.004	2.0	GoodResponse	0	0.222	n/a	9	48	ButtonPress	AvoidedLoss	True
462.138	0.39	Lose2	0.7143	n/a	Yes	3.026	n/a	n/a	GoodResponse	0	n/a	n/a	9	48	Blank	AvoidedLoss	True
462.522	1.45	Lose2	0.7143	n/a	Yes	3.026	n/a	5.0	GoodResponse	0	0.037	461.559	9	48	Feedback	AvoidedLoss	True
463.976	3.026	Lose2	0.7143	n/a	Yes	3.026	n/a	n/a	GoodResponse	0	0.0	n/a	9	48	ISIslide	AvoidedLoss	True
467.019	0.25	Control	0.72	0.0	Yes	2.881	0.019	n/a	GoodResponse	0	n/a	n/a	9	49	Cue	Neutral	True
467.27	4.0	Control	0.72	0.0	Yes	2.881	0.001	n/a	GoodResponse	0	n/a	n/a	9	49	Fixation	Neutral	True
471.265	0.3	Control	0.72	0.004	Yes	2.881	-0.004	2.0	GoodResponse	0	0.226	470.491	9	49	Target	Neutral	True
471.491	0.3	Control	0.72	0.004	Yes	2.881	-0.004	2.0	GoodResponse	0	0.226	n/a	9	49	ButtonPress	Neutral	True
471.566	0.4	Control	0.72	n/a	Yes	2.881	n/a	n/a	GoodResponse	0	n/a	n/a	9	49	Blank	Neutral	True
471.967	1.45	Control	0.72	n/a	Yes	2.881	n/a	5.0	GoodResponse	0	0.006	470.973	9	49	Feedback	Neutral	True
473.421	2.881	Control	0.72	n/a	Yes	2.881	n/a	n/a	GoodResponse	0	0.0	n/a	9	49	ISIslide	Neutral	True
476.313	0.25	Control	0.7254999999999999	0.001	Yes	2.787	0.013	n/a	GoodResponse	0	n/a	n/a	9	50	Cue	Neutral	True
476.564	4.0	Control	0.7254999999999999	0.0	Yes	2.787	0.001	n/a	GoodResponse	0	n/a	n/a	9	50	Fixation	Neutral	True
480.56	0.29	Control	0.7254999999999999	0.003	Yes	2.787	-0.003	2.0	GoodResponse	0	0.257	479.817	9	50	Target	Neutral	True
480.817	0.3	Control	0.7254999999999999	0.003	Yes	2.787	-0.003	2.0	GoodResponse	0	0.257	n/a	9	50	ButtonPress	Neutral	True
480.86	0.41	Control	0.7254999999999999	n/a	Yes	2.787	n/a	n/a	GoodResponse	0	n/a	n/a	9	50	Blank	Neutral	True
481.262	1.45	Control	0.7254999999999999	n/a	Yes	2.787	n/a	5.0	GoodResponse	0	0.028	480.29	9	50	Feedback	Neutral	True
482.716	2.787	Control	0.7254999999999999	n/a	Yes	2.787	n/a	n/a	GoodResponse	0	0.0	n/a	9	50	ISIslide	Neutral	True
485.524	0.25	Control	0.7308	0.001	Yes	2.726	0.024	n/a	GoodResponse	0	n/a	n/a	9	51	Cue	Neutral	True
485.775	3.95	Control	0.7308	0.0	Yes	2.726	0.001	n/a	GoodResponse	0	n/a	n/a	9	51	Fixation	Neutral	True
489.72	0.28	Control	0.7308	0.004	Yes	2.726	-0.004	2.0	GoodResponse	0	0.239	488.959	9	51	Target	Neutral	True
489.959	0.3	Control	0.7308	0.004	Yes	2.726	-0.004	2.0	GoodResponse	0	0.239	n/a	9	51	ButtonPress	Neutral	True
490.005	0.42	Control	0.7308	n/a	Yes	2.726	n/a	n/a	GoodResponse	0	n/a	n/a	9	51	Blank	Neutral	True
490.422	1.45	Control	0.7308	n/a	Yes	2.726	n/a	5.0	GoodResponse	0	0.039	489.461	9	51	Feedback	Neutral	True
491.877	2.726	Control	0.7308	n/a	Yes	2.726	n/a	n/a	GoodResponse	0	0.0	n/a	9	51	ISIslide	Neutral	True
494.618	0.25	Control	0.7358	0.0	Yes	2.632	0.018	n/a	GoodResponse	0	n/a	n/a	9	52	Cue	Neutral	True
494.869	4.05	Control	0.7358	0.0	Yes	2.632	0.001	n/a	GoodResponse	0	n/a	n/a	9	52	Fixation	Neutral	True
498.915	0.27	Control	0.7358	0.003	Yes	2.632	-0.003	2.0	GoodResponse	0	0.268	498.183	9	52	Target	Neutral	True
499.183	0.3	Control	0.7358	0.003	Yes	2.632	-0.003	2.0	GoodResponse	0	0.268	n/a	9	52	ButtonPress	Neutral	True
499.199	0.43	Control	0.7358	n/a	Yes	2.632	n/a	n/a	GoodResponse	0	n/a	n/a	9	52	Blank	Neutral	True
499.617	1.45	Control	0.7358	n/a	Yes	2.632	n/a	5.0	GoodResponse	0	0.015	498.632	9	52	Feedback	Neutral	True
501.071	2.632	Control	0.7358	n/a	Yes	2.632	n/a	n/a	GoodResponse	0	0.0	n/a	9	52	ISIslide	Neutral	True
503.729	0.25	Win2	0.7406999999999999	0.0	Yes	2.921	0.029	n/a	GoodResponse	1	n/a	n/a	10	53	Cue	Win	True
503.98	4.05	Win2	0.7406999999999999	0.0	Yes	2.921	0.001	n/a	GoodResponse	1	n/a	n/a	10	53	Fixation	Win	True
508.025	0.26	Win2	0.7406999999999999	0.004	Yes	2.921	-0.004	2.0	GoodResponse	1	0.229	507.254	10	53	Target	Win	True
508.254	0.3	Win2	0.7406999999999999	0.004	Yes	2.921	-0.004	2.0	GoodResponse	1	0.229	n/a	10	53	ButtonPress	Win	True
508.293	0.44	Win2	0.7406999999999999	n/a	Yes	2.921	n/a	n/a	GoodResponse	1	n/a	n/a	10	53	Blank	Win	True
508.727	1.45	Win2	0.7406999999999999	n/a	Yes	2.921	n/a	5.0	GoodResponse	1	0.027	507.754	10	53	Feedback	Win	True
510.182	2.921	Win2	0.7406999999999999	n/a	Yes	2.921	n/a	n/a	GoodResponse	1	0.0	n/a	10	53	ISIslide	Win	True
513.124	0.25	Win2	0.7454999999999999	0.0	Yes	2.726	0.024	n/a	GoodResponse	1	n/a	n/a	11	54	Cue	Win	True
513.375	3.95	Win2	0.7454999999999999	0.0	Yes	2.726	0.001	n/a	GoodResponse	1	n/a	n/a	11	54	Fixation	Win	True
517.32	0.25	Win2	0.7454999999999999	0.004	Yes	2.726	-0.004	2.0	GoodResponse	1	0.224	516.544	11	54	Target	Win	True
517.544	0.3	Win2	0.7454999999999999	0.004	Yes	2.726	-0.004	2.0	GoodResponse	1	0.224	n/a	11	54	ButtonPress	Win	True
517.571	0.45	Win2	0.7454999999999999	n/a	Yes	2.726	n/a	n/a	GoodResponse	1	n/a	n/a	11	54	Blank	Win	True
518.022	1.45	Win2	0.7454999999999999	n/a	Yes	2.726	n/a	5.0	GoodResponse	1	0.049	517.071	11	54	Feedback	Win	True
519.476	2.726	Win2	0.7454999999999999	n/a	Yes	2.726	n/a	n/a	GoodResponse	1	0.0	n/a	11	54	ISIslide	Win	True
522.218	0.25	Control	0.7321	0.0	No	3.032	0.018	n/a	NoResponse	0	n/a	n/a	11	55	Cue	Neutral	True
522.469	3.95	Control	0.7321	0.0	No	3.032	0.001	n/a	NoResponse	0	n/a	n/a	11	55	Fixation	Neutral	True
526.414	0.24	Control	0.7321	0.004	No	3.032	-0.004	2.0	NoResponse	0	0.259	525.673	11	55	Target	Neutral	True
526.665	0.46	Control	0.7321	n/a	No	3.032	n/a	n/a	NoResponse	0	n/a	n/a	11	55	Blank	Neutral	True
526.673	0.3	Control	0.7321	0.004	No	3.032	-0.004	2.0	NoResponse	0	0.259	n/a	11	55	ButtonPress	Neutral	True
527.116	1.45	Control	0.7321	n/a	No	3.032	n/a	5.0	NoResponse	0	0.028	526.144	11	55	Feedback	Neutral	True
528.57	3.032	Control	0.7321	n/a	No	3.032	n/a	n/a	NoResponse	0	0.0	n/a	11	55	ISIslide	Neutral	True
531.613	0.25	Control	0.7193	0.0	No	2.837	0.013	n/a	NoResponse	0	n/a	n/a	11	56	Cue	Neutral	True
531.863	3.95	Control	0.7193	0.001	No	2.837	0.0	n/a	NoResponse	0	n/a	n/a	11	56	Fixation	Neutral	True
535.809	0.23	Control	0.7193	0.004	No	2.837	-0.004	2.0	NoResponse	0	0.443	535.252	11	56	Target	Neutral	True
536.043	0.47	Control	0.7193	n/a	No	2.837	n/a	n/a	NoResponse	0	n/a	n/a	11	56	Blank	Neutral	True
536.252	0.3	Control	0.7193	0.004	No	2.837	-0.004	2.0	NoResponse	0	0.443	n/a	11	56	ButtonPress	Neutral	True
536.511	1.45	Control	0.7193	n/a	No	2.837	n/a	5.0	NoResponse	0	0.048	535.559	11	56	Feedback	Neutral	True
537.965	2.837	Control	0.7193	n/a	No	2.837	n/a	n/a	NoResponse	0	0.0	n/a	11	56	ISIslide	Neutral	True
540.824	0.25	Control	0.7069	0.0	No	3.476	0.024	n/a	NoResponse	0	n/a	n/a	11	57	Cue	Neutral	True
541.074	4.0	Control	0.7069	0.001	No	3.476	0.0	n/a	NoResponse	0	n/a	n/a	11	57	Fixation	Neutral	True
545.07	0.22	Control	0.7069	0.004	No	3.476	-0.004	2.0	NoResponse	0	0.283	544.353	11	57	Target	Neutral	True
545.304	0.48	Control	0.7069	n/a	No	3.476	n/a	n/a	NoResponse	0	n/a	n/a	11	57	Blank	Neutral	True
545.353	0.3	Control	0.7069	0.004	No	3.476	-0.004	2.0	NoResponse	0	0.283	n/a	11	57	ButtonPress	Neutral	True
545.772	1.45	Control	0.7069	n/a	No	3.476	n/a	5.0	NoResponse	0	0.006	544.778	11	57	Feedback	Neutral	True
547.226	3.476	Control	0.7069	n/a	No	3.476	n/a	n/a	NoResponse	0	0.0	n/a	11	57	ISIslide	Neutral	True
550.72	0.25	Win2	0.6949	0.0	No	2.73	0.02	n/a	NoResponse	0	n/a	n/a	11	58	Cue	MissedWin	True
550.971	4.05	Win2	0.6949	0.0	No	2.73	0.001	n/a	NoResponse	0	n/a	n/a	11	58	Fixation	MissedWin	True
555.016	0.21	Win2	0.6949	0.004	No	2.73	-0.004	2.0	NoResponse	0	0.231	554.247	11	58	Target	MissedWin	True
555.234	0.49	Win2	0.6949	n/a	No	2.73	n/a	n/a	NoResponse	0	n/a	n/a	11	58	Blank	MissedWin	True
555.247	0.3	Win2	0.6949	0.004	No	2.73	-0.004	2.0	NoResponse	0	0.231	n/a	11	58	ButtonPress	MissedWin	True
555.718	1.45	Win2	0.6949	n/a	No	2.73	n/a	5.0	NoResponse	0	0.011	554.729	11	58	Feedback	MissedWin	True
557.173	2.73	Win2	0.6949	n/a	No	2.73	n/a	n/a	NoResponse	0	0.0	n/a	11	58	ISIslide	MissedWin	True
559.931	0.25	Lose2	0.6833	0.0	No	2.669	0.031	n/a	NoResponse	-1	n/a	n/a	10	59	Cue	Loss	True
560.182	4.0	Lose2	0.6833	0.0	No	2.669	0.001	n/a	NoResponse	-1	n/a	n/a	10	59	Fixation	Loss	True
564.177	0.2	Lose2	0.6833	0.004	No	2.669	-0.004	2.0	NoResponse	-1	0.238	563.415	10	59	Target	Loss	True
564.378	0.5	Lose2	0.6833	n/a	No	2.669	n/a	n/a	NoResponse	-1	n/a	n/a	10	59	Blank	Loss	True
564.415	0.3	Lose2	0.6833	0.004	No	2.669	-0.004	2.0	NoResponse	-1	0.238	n/a	10	59	ButtonPress	Loss	True
564.879	1.45	Lose2	0.6833	n/a	No	2.669	n/a	5.0	NoResponse	-1	0.021	563.9	10	59	Feedback	Loss	True
566.334	2.669	Lose2	0.6833	n/a	No	2.669	n/a	n/a	NoResponse	-1	0.0	n/a	10	59	ISIslide	Loss	True
569.025	0.25	Control	0.6720999999999999	0.0	No	2.675	0.025	n/a	NoResponse	0	n/a	n/a	10	60	Cue	Neutral	True
569.276	4.0	Control	0.6720999999999999	0.0	No	2.675	0.001	n/a	NoResponse	0	n/a	n/a	10	60	Fixation	Neutral	True
573.271	0.19	Control	0.6720999999999999	0.004	No	2.675	-0.004	2.0	NoResponse	0	0.302	572.573	10	60	Target	Neutral	True
573.472	0.51	Control	0.6720999999999999	n/a	No	2.675	n/a	n/a	NoResponse	0	n/a	n/a	10	60	Blank	Neutral	True
573.573	0.3	Control	0.6720999999999999	0.004	No	2.675	-0.004	2.0	NoResponse	0	0.302	n/a	10	60	ButtonPress	Neutral	True
573.973	1.45	Control	0.6720999999999999	n/a	No	2.675	n/a	5.0	NoResponse	0	0.049	573.022	10	60	Feedback	Neutral	True
575.427	2.675	Control	0.6720999999999999	n/a	No	2.675	n/a	n/a	NoResponse	0	0.0	n/a	10	60	ISIslide	Neutral	True
578.119	0.25	Lose2	0.6613	0.0	No	2.981	0.019	n/a	NoResponse	-1	n/a	n/a	9	61	Cue	Loss	True
578.37	4.0	Lose2	0.6613	0.0	No	2.981	0.001	n/a	NoResponse	-1	n/a	n/a	9	61	Fixation	Loss	True
582.365	0.18	Lose2	0.6613	0.004	No	2.981	-0.004	2.0	NoResponse	-1	0.223	581.588	9	61	Target	Loss	True
582.549	0.52	Lose2	0.6613	n/a	No	2.981	n/a	n/a	NoResponse	-1	n/a	n/a	9	61	Blank	Loss	True
582.588	0.3	Lose2	0.6613	0.004	No	2.981	-0.004	2.0	NoResponse	-1	0.223	n/a	9	61	ButtonPress	Loss	True
583.067	1.45	Lose2	0.6613	n/a	No	2.981	n/a	5.0	NoResponse	-1	0.028	582.095	9	61	Feedback	Loss	True
584.521	2.981	Lose2	0.6613	n/a	No	2.981	n/a	n/a	NoResponse	-1	0.0	n/a	9	61	ISIslide	Loss	True
587.514	0.25	Lose2	0.6507999999999999	0.0	No	2.886	0.014	n/a	NoResponse	-1	n/a	n/a	8	62	Cue	Loss	True
587.764	3.9	Lose2	0.6507999999999999	0.001	No	2.886	0.0	n/a	NoResponse	-1	n/a	n/a	8	62	Fixation	Loss	True
591.66	0.18	Lose2	0.6507999999999999	0.004	No	2.886	-0.004	2.0	NoResponse	-1	0.258	590.918	8	62	Target	Loss	True
591.843	0.52	Lose2	0.6507999999999999	n/a	No	2.886	n/a	n/a	NoResponse	-1	n/a	n/a	8	62	Blank	Loss	True
591.918	0.3	Lose2	0.6507999999999999	0.004	No	2.886	-0.004	2.0	NoResponse	-1	0.258	n/a	8	62	ButtonPress	Loss	True
592.362	1.45	Lose2	0.6507999999999999	n/a	No	2.886	n/a	5.0	NoResponse	-1	0.002	591.364	8	62	Feedback	Loss	True
593.816	2.886	Lose2	0.6507999999999999	n/a	No	2.886	n/a	n/a	NoResponse	-1	0.0	n/a	8	62	ISIslide	Loss	True
596.725	0.25	Lose2	0.6406000000000001	0.0	No	2.625	0.025	n/a	NoResponse	-1	n/a	n/a	7	63	Cue	Loss	True
596.975	4.05	Lose2	0.6406000000000001	0.001	No	2.625	0.0	2.0	NoResponse	-1	3.959	599.934	7	63	Fixation	Loss	True
600.934	0.3	Lose2	0.6406000000000001	0.001	No	2.625	0.0	2.0	NoResponse	-1	3.959	n/a	7	63	ButtonPress	Loss	True
601.021	0.19	Lose2	0.6406000000000001	0.004	No	2.625	-0.004	n/a	NoResponse	-1	n/a	n/a	7	63	Target	Loss	True
601.222	0.51	Lose2	0.6406000000000001	n/a	No	2.625	n/a	n/a	NoResponse	-1	n/a	n/a	7	63	Blank	Loss	True
601.723	1.45	Lose2	0.6406000000000001	n/a	No	2.625	n/a	5.0	NoResponse	-1	0.007	600.73	7	63	Feedback	Loss	True
603.177	2.625	Lose2	0.6406000000000001	n/a	No	2.625	n/a	n/a	NoResponse	-1	0.0	n/a	7	63	ISIslide	Loss	True
605.819	0.25	Win2	0.6308	0.0	No	3.131	0.019	n/a	NoResponse	0	n/a	n/a	7	64	Cue	MissedWin	True
606.069	4.15	Win2	0.6308	0.0	No	3.131	0.0	n/a	NoResponse	0	n/a	n/a	7	64	Fixation	MissedWin	True
610.215	0.2	Win2	0.6308	0.004	No	3.131	-0.004	2.0	NoResponse	0	0.25	609.465	7	64	Target	MissedWin	True
610.416	0.5	Win2	0.6308	n/a	No	3.131	n/a	n/a	NoResponse	0	n/a	n/a	7	64	Blank	MissedWin	True
610.465	0.3	Win2	0.6308	0.004	No	3.131	-0.004	2.0	NoResponse	0	0.25	n/a	7	64	ButtonPress	MissedWin	True
610.917	1.45	Win2	0.6308	n/a	No	3.131	n/a	5.0	NoResponse	0	0.032	609.949	7	64	Feedback	MissedWin	True
612.372	3.131	Win2	0.6308	n/a	No	3.131	n/a	n/a	NoResponse	0	0.0	n/a	7	64	ISIslide	MissedWin	True
615.514	0.25	Control	0.6212	0.001	No	2.786	0.014	n/a	NoResponse	0	n/a	n/a	7	65	Cue	Neutral	True
615.765	4.0	Control	0.6212	0.0	No	2.786	0.001	n/a	NoResponse	0	n/a	n/a	7	65	Fixation	Neutral	True
619.76	0.21	Control	0.6212	0.004	No	2.786	-0.004	2.0	NoResponse	0	0.277	619.037	7	65	Target	Neutral	True
619.978	0.49	Control	0.6212	n/a	No	2.786	n/a	n/a	NoResponse	0	n/a	n/a	7	65	Blank	Neutral	True
620.037	0.3	Control	0.6212	0.004	No	2.786	-0.004	2.0	NoResponse	0	0.277	n/a	7	65	ButtonPress	Neutral	True
620.463	1.45	Control	0.6212	n/a	No	2.786	n/a	5.0	NoResponse	0	0.046	619.509	7	65	Feedback	Neutral	True
621.917	2.786	Control	0.6212	n/a	No	2.786	n/a	n/a	NoResponse	0	0.0	n/a	7	65	ISIslide	Neutral	True
624.725	0.25	Win2	0.6119	0.0	No	2.775	0.025	n/a	LatePress	0	n/a	n/a	7	66	Cue	MissedWin	True
624.976	3.9	Win2	0.6119	0.0	No	2.775	0.001	n/a	LatePress	0	n/a	n/a	7	66	Fixation	MissedWin	True
628.871	0.22	Win2	0.6119	0.004	No	2.775	-0.004	2.0	LatePress	0	0.23	628.101	7	66	Target	MissedWin	True
629.101	0.3	Win2	0.6119	0.004	No	2.775	-0.004	2.0	LatePress	0	0.23	n/a	7	66	ButtonPress	MissedWin	True
629.105	0.48	Win2	0.6119	n/a	No	2.775	n/a	n/a	LatePress	0	n/a	n/a	7	66	Blank	MissedWin	True
629.573	1.45	Win2	0.6119	n/a	No	2.775	n/a	5.0	LatePress	0	0.01	628.583	7	66	Feedback	MissedWin	True
631.028	2.775	Win2	0.6119	n/a	No	2.775	n/a	n/a	LatePress	0	0.0	n/a	7	66	ISIslide	MissedWin	True
633.819	0.25	Control	0.6029	0.0	No	2.731	0.019	n/a	LatePress	0	n/a	n/a	7	67	Cue	Neutral	True
634.07	3.95	Control	0.6029	0.0	No	2.731	0.001	n/a	LatePress	0	n/a	n/a	7	67	Fixation	Neutral	True
638.015	0.23	Control	0.6029	0.004	No	2.731	-0.004	2.0	LatePress	0	0.232	637.247	7	67	Target	Neutral	True
638.247	0.3	Control	0.6029	0.004	No	2.731	-0.004	2.0	LatePress	0	0.232	n/a	7	67	ButtonPress	Neutral	True
638.249	0.47	Control	0.6029	n/a	No	2.731	n/a	n/a	LatePress	0	n/a	n/a	7	67	Blank	Neutral	True
638.717	1.45	Control	0.6029	n/a	No	2.731	n/a	5.0	LatePress	0	0.036	637.753	7	67	Feedback	Neutral	True
640.172	2.731	Control	0.6029	n/a	No	2.731	n/a	n/a	LatePress	0	0.0	n/a	7	67	ISIslide	Neutral	True
642.913	0.25	Win2	0.6087	0.0	Yes	3.087	0.013	n/a	GoodResponse	1	n/a	n/a	8	68	Cue	Win	True
643.164	4.0	Win2	0.6087	0.0	Yes	3.087	0.001	n/a	GoodResponse	1	n/a	n/a	8	68	Fixation	Win	True
647.159	0.24	Win2	0.6087	0.004	Yes	3.087	-0.004	2.0	GoodResponse	1	0.203	646.362	8	68	Target	Win	True
647.362	0.3	Win2	0.6087	0.004	Yes	3.087	-0.004	2.0	GoodResponse	1	0.203	n/a	8	68	ButtonPress	Win	True
647.41	0.46	Win2	0.6087	n/a	Yes	3.087	n/a	n/a	GoodResponse	1	n/a	n/a	8	68	Blank	Win	True
647.861	1.45	Win2	0.6087	n/a	Yes	3.087	n/a	5.0	GoodResponse	1	0.014	646.875	8	68	Feedback	Win	True
649.316	3.087	Win2	0.6087	n/a	Yes	3.087	n/a	n/a	GoodResponse	1	0.0	n/a	8	68	ISIslide	Win	True
652.425	0.25	Win2	0.6143	0.0	Yes	3.225	0.025	n/a	GoodResponse	1	n/a	n/a	9	69	Cue	Win	True
652.676	3.95	Win2	0.6143	0.0	Yes	3.225	0.001	n/a	GoodResponse	1	n/a	n/a	9	69	Fixation	Win	True
656.621	0.25	Win2	0.6143	0.004	Yes	3.225	-0.004	2.0	GoodResponse	1	0.238	655.859	9	69	Target	Win	True
656.859	0.3	Win2	0.6143	0.004	Yes	3.225	-0.004	2.0	GoodResponse	1	0.238	n/a	9	69	ButtonPress	Win	True
656.872	0.45	Win2	0.6143	n/a	Yes	3.225	n/a	n/a	GoodResponse	1	n/a	n/a	9	69	Blank	Win	True
657.323	1.45	Win2	0.6143	n/a	Yes	3.225	n/a	5.0	GoodResponse	1	0.016	656.339	9	69	Feedback	Win	True
658.778	3.225	Win2	0.6143	n/a	Yes	3.225	n/a	n/a	GoodResponse	1	0.0	n/a	9	69	ISIslide	Win	True
662.021	0.25	Lose2	0.6197	0.0	Yes	3.029	0.021	n/a	GoodResponse	0	n/a	n/a	9	70	Cue	AvoidedLoss	True
662.271	4.05	Lose2	0.6197	0.0	Yes	3.029	0.0	n/a	GoodResponse	0	n/a	n/a	9	70	Fixation	AvoidedLoss	True
666.317	0.26	Lose2	0.6197	0.004	Yes	3.029	-0.004	2.0	GoodResponse	0	0.233	665.55	9	70	Target	AvoidedLoss	True
666.55	0.3	Lose2	0.6197	0.004	Yes	3.029	-0.004	2.0	GoodResponse	0	0.233	n/a	9	70	ButtonPress	AvoidedLoss	True
666.584	0.44	Lose2	0.6197	n/a	Yes	3.029	n/a	n/a	GoodResponse	0	n/a	n/a	9	70	Blank	AvoidedLoss	True
667.019	1.45	Lose2	0.6197	n/a	Yes	3.029	n/a	5.0	GoodResponse	0	0.027	666.046	9	70	Feedback	AvoidedLoss	True
668.473	3.029	Lose2	0.6197	n/a	Yes	3.029	n/a	n/a	GoodResponse	0	0.0	n/a	9	70	ISIslide	AvoidedLoss	True
671.516	0.25	Win2	0.625	0.0	Yes	2.734	0.016	n/a	GoodResponse	1	n/a	n/a	10	71	Cue	Win	True
671.766	4.05	Win2	0.625	0.001	Yes	2.734	0.0	n/a	GoodResponse	1	n/a	n/a	10	71	Fixation	Win	True
675.812	0.27	Win2	0.625	0.004	Yes	2.734	-0.004	2.0	GoodResponse	1	0.247	675.059	10	71	Target	Win	True
676.059	0.3	Win2	0.625	0.004	Yes	2.734	-0.004	2.0	GoodResponse	1	0.247	n/a	10	71	ButtonPress	Win	True
676.096	0.43	Win2	0.625	n/a	Yes	2.734	n/a	n/a	GoodResponse	1	n/a	n/a	10	71	Blank	Win	True
676.514	1.45	Win2	0.625	n/a	Yes	2.734	n/a	5.0	GoodResponse	1	0.045	675.559	10	71	Feedback	Win	True
677.968	2.734	Win2	0.625	n/a	Yes	2.734	n/a	n/a	GoodResponse	1	0.0	n/a	10	71	ISIslide	Win	True
680.727	0.25	Win2	0.6301	0.0	Yes	2.773	0.027	n/a	GoodResponse	1	n/a	n/a	11	72	Cue	Win	True
680.977	4.1	Win2	0.6301	0.001	Yes	2.773	0.0	n/a	GoodResponse	1	n/a	n/a	11	72	Fixation	Win	True
685.073	0.28	Win2	0.6301	0.004	Yes	2.773	-0.004	2.0	GoodResponse	1	0.25	684.323	11	72	Target	Win	True
685.323	0.3	Win2	0.6301	0.004	Yes	2.773	-0.004	2.0	GoodResponse	1	0.25	n/a	11	72	ButtonPress	Win	True
685.357	0.42	Win2	0.6301	n/a	Yes	2.773	n/a	n/a	GoodResponse	1	n/a	n/a	11	72	Blank	Win	True
685.775	1.45	Win2	0.6301	n/a	Yes	2.773	n/a	5.0	GoodResponse	1	0.005	684.78	11	72	Feedback	Win	True
687.23	2.773	Win2	0.6301	n/a	Yes	2.773	n/a	n/a	GoodResponse	1	0.0	n/a	11	72	ISIslide	Win	True
690.021	0.25	Win2	0.6351	0.0	Yes	2.679	0.021	n/a	GoodResponse	1	n/a	n/a	12	73	Cue	Win	True
690.272	4.0	Win2	0.6351	0.0	Yes	2.679	0.001	n/a	GoodResponse	1	n/a	n/a	12	73	Fixation	Win	True
694.267	0.29	Win2	0.6351	0.004	Yes	2.679	-0.004	2.0	GoodResponse	1	0.212	693.479	12	73	Target	Win	True
694.479	0.3	Win2	0.6351	0.004	Yes	2.679	-0.004	2.0	GoodResponse	1	0.212	n/a	12	73	ButtonPress	Win	True
694.568	0.41	Win2	0.6351	n/a	Yes	2.679	n/a	n/a	GoodResponse	1	n/a	n/a	12	73	Blank	Win	True
694.969	1.45	Win2	0.6351	n/a	Yes	2.679	n/a	5.0	GoodResponse	1	0.028	693.997	12	73	Feedback	Win	True
696.424	2.679	Win2	0.6351	n/a	Yes	2.679	n/a	n/a	GoodResponse	1	0.0	n/a	12	73	ISIslide	Win	True
699.115	0.25	Lose2	0.64	0.0	Yes	2.635	0.015	n/a	GoodResponse	0	n/a	n/a	12	74	Cue	AvoidedLoss	True
699.366	4.05	Lose2	0.64	0.0	Yes	2.635	0.001	n/a	GoodResponse	0	n/a	n/a	12	74	Fixation	AvoidedLoss	True
703.411	0.3	Lose2	0.64	0.004	Yes	2.635	-0.004	2.0	GoodResponse	0	0.235	702.646	12	74	Target	AvoidedLoss	True
703.646	0.3	Lose2	0.64	0.004	Yes	2.635	-0.004	2.0	GoodResponse	0	0.235	n/a	12	74	ButtonPress	AvoidedLoss	True
703.712	0.4	Lose2	0.64	n/a	Yes	2.635	n/a	n/a	GoodResponse	0	n/a	n/a	12	74	Blank	AvoidedLoss	True
704.114	1.45	Lose2	0.64	n/a	Yes	2.635	n/a	5.0	GoodResponse	0	0.005	703.119	12	74	Feedback	AvoidedLoss	True
705.568	2.635	Lose2	0.64	n/a	Yes	2.635	n/a	n/a	GoodResponse	0	0.0	n/a	12	74	ISIslide	AvoidedLoss	True
708.226	0.25	Lose2	0.6446999999999999	0.0	Yes	2.924	0.026	n/a	GoodResponse	0	n/a	n/a	12	75	Cue	AvoidedLoss	True
708.477	3.95	Lose2	0.6446999999999999	0.0	Yes	2.924	0.001	n/a	GoodResponse	0	n/a	n/a	12	75	Fixation	AvoidedLoss	True
712.422	0.31	Lose2	0.6446999999999999	0.004	Yes	2.924	-0.004	2.0	GoodResponse	0	0.238	711.66	12	75	Target	AvoidedLoss	True
712.66	0.3	Lose2	0.6446999999999999	0.004	Yes	2.924	-0.004	2.0	GoodResponse	0	0.238	n/a	12	75	ButtonPress	AvoidedLoss	True
712.739	0.39	Lose2	0.6446999999999999	n/a	Yes	2.924	n/a	n/a	GoodResponse	0	n/a	n/a	12	75	Blank	AvoidedLoss	True
713.124	1.45	Lose2	0.6446999999999999	n/a	Yes	2.924	n/a	5.0	GoodResponse	0	0.019	712.143	12	75	Feedback	AvoidedLoss	True
714.578	2.924	Lose2	0.6446999999999999	n/a	Yes	2.924	n/a	n/a	GoodResponse	0	0.0	n/a	12	75	ISIslide	AvoidedLoss	True
717.52	0.25	Control	0.6494	0.0	Yes	3.23	0.02	n/a	GoodResponse	0	n/a	n/a	12	76	Cue	Neutral	True
717.771	4.05	Control	0.6494	0.0	Yes	3.23	0.001	n/a	GoodResponse	0	n/a	n/a	12	76	Fixation	Neutral	True
721.817	0.32	Control	0.6494	0.003	Yes	3.23	-0.003	2.0	GoodResponse	0	0.212	721.029	12	76	Target	Neutral	True
722.029	0.3	Control	0.6494	0.003	Yes	3.23	-0.003	2.0	GoodResponse	0	0.212	n/a	12	76	ButtonPress	Neutral	True
722.151	0.38	Control	0.6494	n/a	Yes	3.23	n/a	n/a	GoodResponse	0	n/a	n/a	12	76	Blank	Neutral	True
722.519	1.45	Control	0.6494	n/a	Yes	3.23	n/a	5.0	GoodResponse	0	0.039	721.558	12	76	Feedback	Neutral	True
723.973	3.23	Control	0.6494	n/a	Yes	3.23	n/a	n/a	GoodResponse	0	0.0	n/a	12	76	ISIslide	Neutral	True
727.216	0.25	Lose2	0.6537999999999999	0.0	Yes	2.584	0.016	n/a	GoodResponse	0	n/a	n/a	12	77	Cue	AvoidedLoss	True
727.467	3.95	Lose2	0.6537999999999999	0.0	Yes	2.584	0.001	n/a	GoodResponse	0	n/a	n/a	12	77	Fixation	AvoidedLoss	True
731.412	0.33	Lose2	0.6537999999999999	0.004	Yes	2.584	-0.004	2.0	GoodResponse	0	0.283	730.695	12	77	Target	AvoidedLoss	True
731.695	0.3	Lose2	0.6537999999999999	0.004	Yes	2.584	-0.004	2.0	GoodResponse	0	0.283	n/a	12	77	ButtonPress	AvoidedLoss	True
731.746	0.37	Lose2	0.6537999999999999	n/a	Yes	2.584	n/a	n/a	GoodResponse	0	n/a	n/a	12	77	Blank	AvoidedLoss	True
732.114	1.45	Lose2	0.6537999999999999	n/a	Yes	2.584	n/a	5.0	GoodResponse	0	0.005	731.119	12	77	Feedback	AvoidedLoss	True
733.569	2.584	Lose2	0.6537999999999999	n/a	Yes	2.584	n/a	n/a	GoodResponse	0	0.0	n/a	12	77	ISIslide	AvoidedLoss	True
