onset	duration	cue_type	current_mean_accuracy	duration_error	is_hit	isi_adjusted	onset_delay	response	response_type	reward	rt	rt_time	total_reward	trial_number	trial_phase	trial_type	one_press
11.104	0.25	Control	1.0	0.0	Yes	2.946	0.004	n/a	GoodResponse	0	n/a	n/a	0	0	Cue	Neutral	True
11.354	3.85	Control	1.0	0.0	Yes	2.946	0.0	n/a	GoodResponse	0	n/a	n/a	0	0	Fixation	Neutral	True
15.202	0.4	Control	1.0	0.002	Yes	2.946	-0.002	3.0	GoodResponse	0	0.219	14.421	0	0	Target	Neutral	True
15.421	0.3	Control	1.0	0.002	Yes	2.946	-0.002	3.0	GoodResponse	0	0.219	n/a	0	0	ButtonPress	Neutral	True
15.602	0.3	Control	1.0	n/a	Yes	2.946	n/a	n/a	GoodResponse	0	n/a	n/a	0	0	Blank	Neutral	True
15.902	1.45	Control	1.0	n/a	Yes	2.946	n/a	5.0	GoodResponse	0	0.024	14.926	0	0	Feedback	Neutral	True
17.351	2.946	Control	1.0	n/a	Yes	2.946	n/a	n/a	GoodResponse	0	0.0	n/a	0	0	ISIslide	Neutral	True
20.317	0.25	Lose2	1.0	0.0	Yes	2.783	0.017	n/a	GoodResponse	0	n/a	n/a	0	1	Cue	AvoidedLoss	True
20.567	4.0	Lose2	1.0	0.0	Yes	2.783	0.0	n/a	GoodResponse	0	n/a	n/a	0	1	Fixation	AvoidedLoss	True
24.566	0.39	Lose2	1.0	0.001	Yes	2.783	-0.001	3.0	GoodResponse	0	0.216	23.782	0	1	Target	AvoidedLoss	True
24.782	0.3	Lose2	1.0	0.001	Yes	2.783	-0.001	3.0	GoodResponse	0	0.216	n/a	0	1	ButtonPress	AvoidedLoss	True
24.965	0.31	Lose2	1.0	n/a	Yes	2.783	n/a	n/a	GoodResponse	0	n/a	n/a	0	1	Blank	AvoidedLoss	True
25.265	1.45	Lose2	1.0	n/a	Yes	2.783	n/a	5.0	GoodResponse	0	0.026	24.291	0	1	Feedback	AvoidedLoss	True
26.715	2.783	Lose2	1.0	n/a	Yes	2.783	n/a	n/a	GoodResponse	0	0.0	n/a	0	1	ISIslide	AvoidedLoss	True
29.531	0.25	Control	1.0	0.0	Yes	2.569	0.031	n/a	GoodResponse	0	n/a	n/a	0	2	Cue	Neutral	True
29.78	4.1	Control	1.0	0.001	Yes	2.569	-0.001	n/a	GoodResponse	0	n/a	n/a	0	2	Fixation	Neutral	True
33.879	0.38	Control	1.0	0.002	Yes	2.569	-0.002	3.0	GoodResponse	0	0.244	33.123	0	2	Target	Neutral	True
34.123	0.3	Control	1.0	0.002	Yes	2.569	-0.002	3.0	GoodResponse	0	0.244	n/a	0	2	ButtonPress	Neutral	True
34.262	0.32	Control	1.0	n/a	Yes	2.569	n/a	n/a	GoodResponse	0	n/a	n/a	0	2	Blank	Neutral	True
34.579	1.45	Control	1.0	n/a	Yes	2.569	n/a	5.0	GoodResponse	0	0.029	33.608	0	2	Feedback	Neutral	True
36.028	2.569	Control	1.0	n/a	Yes	2.569	n/a	n/a	GoodResponse	0	0.0	n/a	0	2	ISIslide	Neutral	True
38.627	0.25	Win2	1.0	0.001	Yes	2.823	0.027	n/a	GoodResponse	1	n/a	n/a	1	3	Cue	Win	True
38.877	3.95	Win2	1.0	0.0	Yes	2.823	0.0	n/a	GoodResponse	1	n/a	n/a	1	3	Fixation	Win	True
42.826	0.37	Win2	1.0	0.001	Yes	2.823	-0.001	3.0	GoodResponse	1	0.19	42.016	1	3	Target	Win	True
43.016	0.3	Win2	1.0	0.001	Yes	2.823	-0.001	3.0	GoodResponse	1	0.19	n/a	1	3	ButtonPress	Win	True
43.193	0.33	Win2	1.0	n/a	Yes	2.823	n/a	n/a	GoodResponse	1	n/a	n/a	1	3	Blank	Win	True
43.526	1.45	Win2	1.0	n/a	Yes	2.823	n/a	5.0	GoodResponse	1	0.009	42.535	1	3	Feedback	Win	True
44.975	2.823	Win2	1.0	n/a	Yes	2.823	n/a	n/a	GoodResponse	1	0.0	n/a	1	3	ISIslide	Win	True
47.824	0.25	Win2	1.0	0.0	Yes	3.276	0.024	n/a	GoodResponse	1	n/a	n/a	2	4	Cue	Win	True
48.074	4.0	Win2	1.0	0.0	Yes	3.276	0.0	n/a	GoodResponse	1	n/a	n/a	2	4	Fixation	Win	True
52.073	0.36	Win2	1.0	0.001	Yes	3.276	-0.001	3.0	GoodResponse	1	0.196	51.269	2	4	Target	Win	True
52.269	0.3	Win2	1.0	0.001	Yes	3.276	-0.001	3.0	GoodResponse	1	0.196	n/a	2	4	ButtonPress	Win	True
52.439	0.34	Win2	1.0	n/a	Yes	3.276	n/a	n/a	GoodResponse	1	n/a	n/a	2	4	Blank	Win	True
52.773	1.45	Win2	1.0	n/a	Yes	3.276	n/a	5.0	GoodResponse	1	0.031	51.804	2	4	Feedback	Win	True
54.222	3.276	Win2	1.0	n/a	Yes	3.276	n/a	n/a	GoodResponse	1	0.0	n/a	2	4	ISIslide	Win	True
57.521	0.25	Win2	1.0	0.0	Yes	2.779	0.021	n/a	GoodResponse	1	n/a	n/a	3	5	Cue	Win	True
57.771	4.0	Win2	1.0	0.0	Yes	2.779	0.0	n/a	GoodResponse	1	n/a	n/a	3	5	Fixation	Win	True
61.769	0.35	Win2	1.0	0.002	Yes	2.779	-0.002	3.0	GoodResponse	1	0.207	60.976	3	5	Target	Win	True
61.976	0.3	Win2	1.0	0.002	Yes	2.779	-0.002	3.0	GoodResponse	1	0.207	n/a	3	5	ButtonPress	Win	True
62.119	0.35	Win2	1.0	n/a	Yes	2.779	n/a	n/a	GoodResponse	1	n/a	n/a	3	5	Blank	Win	True
62.469	1.45	Win2	1.0	n/a	Yes	2.779	n/a	5.0	GoodResponse	1	0.042	61.511	3	5	Feedback	Win	True
63.919	2.779	Win2	1.0	n/a	Yes	2.779	n/a	n/a	GoodResponse	1	0.0	n/a	3	5	ISIslide	Win	True
66.718	0.25	Lose2	1.0	0.0	Yes	2.732	0.018	n/a	GoodResponse	0	n/a	n/a	3	6	Cue	AvoidedLoss	True
66.968	3.95	Lose2	1.0	0.0	Yes	2.732	0.0	n/a	GoodResponse	0	n/a	n/a	3	6	Fixation	AvoidedLoss	True
70.916	0.34	Lose2	1.0	0.002	Yes	2.732	-0.002	3.0	GoodResponse	0	0.22	70.136	3	6	Target	AvoidedLoss	True
71.136	0.3	Lose2	1.0	0.002	Yes	2.732	-0.002	3.0	GoodResponse	0	0.22	n/a	3	6	ButtonPress	AvoidedLoss	True
71.266	0.36	Lose2	1.0	n/a	Yes	2.732	n/a	n/a	GoodResponse	0	n/a	n/a	3	6	Blank	AvoidedLoss	True
71.616	1.45	Lose2	1.0	n/a	Yes	2.732	n/a	5.0	GoodResponse	0	0.017	70.633	3	6	Feedback	AvoidedLoss	True
73.066	2.732	Lose2	1.0	n/a	Yes	2.732	n/a	n/a	GoodResponse	0	0.0	n/a	3	6	ISIslide	AvoidedLoss	True
75.815	0.25	Lose2	1.0	0.0	Yes	4.035	0.015	n/a	GoodResponse	0	n/a	n/a	3	7	Cue	AvoidedLoss	True
76.064	4.05	Lose2	1.0	0.001	Yes	4.035	-0.001	n/a	GoodResponse	0	n/a	n/a	3	7	Fixation	AvoidedLoss	True
80.113	0.33	Lose2	1.0	0.002	Yes	4.035	-0.002	3.0	GoodResponse	0	0.255	79.368	3	7	Target	AvoidedLoss	True
80.368	0.3	Lose2	1.0	0.002	Yes	4.035	-0.002	3.0	GoodResponse	0	0.255	n/a	3	7	ButtonPress	AvoidedLoss	True
80.446	0.37	Lose2	1.0	n/a	Yes	4.035	n/a	n/a	GoodResponse	0	n/a	n/a	3	7	Blank	AvoidedLoss	True
80.813	1.45	Lose2	1.0	n/a	Yes	4.035	n/a	5.0	GoodResponse	0	0.039	79.852	3	7	Feedback	AvoidedLoss	True
82.262	4.035	Lose2	1.0	n/a	Yes	4.035	n/a	n/a	GoodResponse	0	0.0	n/a	3	7	ISIslide	AvoidedLoss	True
86.328	0.25	Lose2	1.0	0.0	Yes	3.022	0.028	n/a	GoodResponse	0	n/a	n/a	3	8	Cue	AvoidedLoss	True
86.578	3.95	Lose2	1.0	0.0	Yes	3.022	0.0	n/a	GoodResponse	0	n/a	n/a	3	8	Fixation	AvoidedLoss	True
90.526	0.32	Lose2	1.0	0.002	Yes	3.022	-0.002	3.0	GoodResponse	0	0.222	89.748	3	8	Target	AvoidedLoss	True
90.748	0.3	Lose2	1.0	0.002	Yes	3.022	-0.002	3.0	GoodResponse	0	0.222	n/a	3	8	ButtonPress	AvoidedLoss	True
90.859	0.38	Lose2	1.0	n/a	Yes	3.022	n/a	n/a	GoodResponse	0	n/a	n/a	3	8	Blank	AvoidedLoss	True
91.226	1.45	Lose2	1.0	n/a	Yes	3.022	n/a	5.0	GoodResponse	0	0.016	90.242	3	8	Feedback	AvoidedLoss	True
92.675	3.022	Lose2	1.0	n/a	Yes	3.022	n/a	n/a	GoodResponse	0	0.0	n/a	3	8	ISIslide	AvoidedLoss	True
95.724	0.25	Lose2	1.0	0.0	Yes	3.126	0.024	n/a	GoodResponse	0	n/a	n/a	3	9	Cue	AvoidedLoss	True
95.974	3.95	Lose2	1.0	0.0	Yes	3.126	0.0	n/a	GoodResponse	0	n/a	n/a	3	9	Fixation	AvoidedLoss	True
99.923	0.31	Lose2	1.0	0.001	Yes	3.126	-0.001	3.0	GoodResponse	0	0.211	99.134	3	9	Target	AvoidedLoss	True
100.134	0.3	Lose2	1.0	0.001	Yes	3.126	-0.001	3.0	GoodResponse	0	0.211	n/a	3	9	ButtonPress	AvoidedLoss	True
100.239	0.39	Lose2	1.0	n/a	Yes	3.126	n/a	n/a	GoodResponse	0	n/a	n/a	3	9	Blank	AvoidedLoss	True
100.623	1.45	Lose2	1.0	n/a	Yes	3.126	n/a	5.0	GoodResponse	0	0.034	99.657	3	9	Feedback	AvoidedLoss	True
102.072	3.126	Lose2	1.0	n/a	Yes	3.126	n/a	n/a	GoodResponse	0	0.0	n/a	3	9	ISIslide	AvoidedLoss	True
105.221	0.25	Control	1.0	0.0	Yes	3.279	0.021	n/a	GoodResponse	0	n/a	n/a	3	10	Cue	Neutral	True
105.471	4.0	Control	1.0	0.0	Yes	3.279	0.0	n/a	GoodResponse	0	n/a	n/a	3	10	Fixation	Neutral	True
109.47	0.3	Control	1.0	0.001	Yes	3.279	-0.001	3.0	GoodResponse	0	0.196	108.666	3	10	Target	Neutral	True
109.666	0.3	Control	1.0	0.001	Yes	3.279	-0.001	3.0	GoodResponse	0	0.196	n/a	3	10	ButtonPress	Neutral	True
109.77	0.4	Control	1.0	n/a	Yes	3.279	n/a	n/a	GoodResponse	0	n/a	n/a	3	10	Blank	Neutral	True
110.169	1.45	Control	1.0	n/a	Yes	3.279	n/a	5.0	GoodResponse	0	0.049	109.218	3	10	Feedback	Neutral	True
111.619	3.279	Control	1.0	n/a	Yes	3.279	n/a	n/a	GoodResponse	0	0.0	n/a	3	10	ISIslide	Neutral	True
114.918	0.25	Lose2	1.0	0.0	Yes	2.732	0.018	n/a	GoodResponse	0	n/a	n/a	3	11	Cue	AvoidedLoss	True
115.168	4.05	Lose2	1.0	0.0	Yes	2.732	0.0	n/a	GoodResponse	0	n/a	n/a	3	11	Fixation	AvoidedLoss	True
119.216	0.29	Lose2	1.0	0.002	Yes	2.732	-0.002	3.0	GoodResponse	0	0.214	118.43	3	11	Target	AvoidedLoss	True
119.43	0.3	Lose2	1.0	0.002	Yes	2.732	-0.002	3.0	GoodResponse	0	0.214	n/a	3	11	ButtonPress	AvoidedLoss	True
119.516	0.41	Lose2	1.0	n/a	Yes	2.732	n/a	n/a	GoodResponse	0	n/a	n/a	3	11	Blank	AvoidedLoss	True
119.916	1.45	Lose2	1.0	n/a	Yes	2.732	n/a	5.0	GoodResponse	0	0.01	118.926	3	11	Feedback	AvoidedLoss	True
121.365	2.732	Lose2	1.0	n/a	Yes	2.732	n/a	n/a	GoodResponse	0	0.0	n/a	3	11	ISIslide	AvoidedLoss	True
124.115	0.25	Control	1.0	0.0	Yes	2.985	0.015	n/a	GoodResponse	0	n/a	n/a	3	12	Cue	Neutral	True
124.364	3.9	Control	1.0	0.001	Yes	2.985	-0.001	n/a	GoodResponse	0	n/a	n/a	3	12	Fixation	Neutral	True
128.263	0.28	Control	1.0	0.002	Yes	2.985	-0.002	3.0	GoodResponse	0	0.219	127.482	3	12	Target	Neutral	True
128.482	0.3	Control	1.0	0.002	Yes	2.985	-0.002	3.0	GoodResponse	0	0.219	n/a	3	12	ButtonPress	Neutral	True
128.546	0.42	Control	1.0	n/a	Yes	2.985	n/a	n/a	GoodResponse	0	n/a	n/a	3	12	Blank	Neutral	True
128.963	1.45	Control	1.0	n/a	Yes	2.985	n/a	5.0	GoodResponse	0	0.036	127.999	3	12	Feedback	Neutral	True
130.412	2.985	Control	1.0	n/a	Yes	2.985	n/a	n/a	GoodResponse	0	0.0	n/a	3	12	ISIslide	Neutral	True
133.428	0.25	Control	1.0	0.0	Yes	2.772	0.028	n/a	GoodResponse	0	n/a	n/a	3	13	Cue	Neutral	True
133.678	4.0	Control	1.0	0.0	Yes	2.772	0.0	n/a	GoodResponse	0	n/a	n/a	3	13	Fixation	Neutral	True
137.677	0.27	Control	1.0	0.001	Yes	2.772	-0.001	3.0	GoodResponse	0	0.21	136.887	3	13	Target	Neutral	True
137.887	0.3	Control	1.0	0.001	Yes	2.772	-0.001	3.0	GoodResponse	0	0.21	n/a	3	13	ButtonPress	Neutral	True
137.96	0.43	Control	1.0	n/a	Yes	2.772	n/a	n/a	GoodResponse	0	n/a	n/a	3	13	Blank	Neutral	True
138.376	1.45	Control	1.0	n/a	Yes	2.772	n/a	5.0	GoodResponse	0	0.038	137.414	3	13	Feedback	Neutral	True
139.826	2.772	Control	1.0	n/a	Yes	2.772	n/a	n/a	GoodResponse	0	0.0	n/a	3	13	ISIslide	Neutral	True
142.625	0.25	Win2	1.0	0.0	Yes	2.675	0.025	n/a	GoodResponse	1	n/a	n/a	4	14	Cue	Win	True
142.875	4.1	Win2	1.0	0.0	Yes	2.675	0.0	n/a	GoodResponse	1	n/a	n/a	4	14	Fixation	Win	True
146.973	0.26	Win2	1.0	0.002	Yes	2.675	-0.002	3.0	GoodResponse	1	0.189	146.162	4	14	Target	Win	True
147.162	0.3	Win2	1.0	0.002	Yes	2.675	-0.002	3.0	GoodResponse	1	0.189	n/a	4	14	ButtonPress	Win	True
147.24	0.44	Win2	1.0	n/a	Yes	2.675	n/a	n/a	GoodResponse	1	n/a	n/a	4	14	Blank	Win	True
147.673	1.45	Win2	1.0	n/a	Yes	2.675	n/a	5.0	GoodResponse	1	0.008	146.681	4	14	Feedback	Win	True
149.123	2.675	Win2	1.0	n/a	Yes	2.675	n/a	n/a	GoodResponse	1	0.0	n/a	4	14	ISIslide	Win	True
151.822	0.25	Control	1.0	0.0	Yes	2.978	0.022	n/a	GoodResponse	0	n/a	n/a	4	15	Cue	Neutral	True
152.072	4.0	Control	1.0	0.0	Yes	2.978	0.0	n/a	GoodResponse	0	n/a	n/a	4	15	Fixation	Neutral	True
156.07	0.25	Control	1.0	0.002	Yes	2.978	-0.002	3.0	GoodResponse	0	0.196	155.266	4	15	Target	Neutral	True
156.266	0.3	Control	1.0	0.002	Yes	2.978	-0.002	3.0	GoodResponse	0	0.196	n/a	4	15	ButtonPress	Neutral	True
156.32	0.45	Control	1.0	n/a	Yes	2.978	n/a	n/a	GoodResponse	0	n/a	n/a	4	15	Blank	Neutral	True
156.77	1.45	Control	1.0	n/a	Yes	2.978	n/a	5.0	GoodResponse	0	0.033	155.803	4	15	Feedback	Neutral	True
158.219	2.978	Control	1.0	n/a	Yes	2.978	n/a	n/a	GoodResponse	0	0.0	n/a	4	15	ISIslide	Neutral	True
161.218	0.25	Win2	1.0	0.0	Yes	2.882	0.018	n/a	GoodResponse	1	n/a	n/a	5	16	Cue	Win	True
161.468	4.0	Win2	1.0	0.0	Yes	2.882	0.0	n/a	GoodResponse	1	n/a	n/a	5	16	Fixation	Win	True
165.467	0.24	Win2	1.0	0.001	Yes	2.882	-0.001	3.0	GoodResponse	1	0.197	164.664	5	16	Target	Win	True
165.664	0.3	Win2	1.0	0.001	Yes	2.882	-0.001	3.0	GoodResponse	1	0.197	n/a	5	16	ButtonPress	Win	True
165.717	0.46	Win2	1.0	n/a	Yes	2.882	n/a	n/a	GoodResponse	1	n/a	n/a	5	16	Blank	Win	True
166.167	1.45	Win2	1.0	n/a	Yes	2.882	n/a	5.0	GoodResponse	1	0.007	165.174	5	16	Feedback	Win	True
167.616	2.882	Win2	1.0	n/a	Yes	2.882	n/a	n/a	GoodResponse	1	0.0	n/a	5	16	ISIslide	Win	True
170.515	0.25	Lose2	1.0	0.0	Yes	2.735	0.015	n/a	GoodResponse	0	n/a	n/a	5	17	Cue	AvoidedLoss	True
170.765	3.95	Lose2	1.0	0.0	Yes	2.735	0.0	n/a	GoodResponse	0	n/a	n/a	5	17	Fixation	AvoidedLoss	True
174.714	0.23	Lose2	1.0	0.001	Yes	2.735	-0.001	3.0	GoodResponse	0	0.219	173.933	5	17	Target	AvoidedLoss	True
174.933	0.3	Lose2	1.0	0.001	Yes	2.735	-0.001	3.0	GoodResponse	0	0.219	n/a	5	17	ButtonPress	AvoidedLoss	True
174.947	0.47	Lose2	1.0	n/a	Yes	2.735	n/a	n/a	GoodResponse	0	n/a	n/a	5	17	Blank	AvoidedLoss	True
175.413	1.45	Lose2	1.0	n/a	Yes	2.735	n/a	5.0	GoodResponse	0	0.025	174.438	5	17	Feedback	AvoidedLoss	True
176.863	2.735	Lose2	1.0	n/a	Yes	2.735	n/a	n/a	GoodResponse	0	0.0	n/a	5	17	ISIslide	AvoidedLoss	True
179.629	0.25	Lose2	1.0	0.0	Yes	2.721	0.029	n/a	GoodResponse	0	n/a	n/a	5	18	Cue	AvoidedLoss	True
179.879	4.05	Lose2	1.0	0.0	Yes	2.721	0.0	n/a	GoodResponse	0	n/a	n/a	5	18	Fixation	AvoidedLoss	True
183.927	0.22	Lose2	1.0	0.002	Yes	2.721	-0.002	3.0	GoodResponse	0	0.186	183.113	5	18	Target	AvoidedLoss	True
184.113	0.3	Lose2	1.0	0.002	Yes	2.721	-0.002	3.0	GoodResponse	0	0.186	n/a	5	18	ButtonPress	AvoidedLoss	True
184.16	0.48	Lose2	1.0	n/a	Yes	2.721	n/a	n/a	GoodResponse	0	n/a	n/a	5	18	Blank	AvoidedLoss	True
184.627	1.45	Lose2	1.0	n/a	Yes	2.721	n/a	5.0	GoodResponse	0	0.03	183.657	5	18	Feedback	AvoidedLoss	True
186.076	2.721	Lose2	1.0	n/a	Yes	2.721	n/a	n/a	GoodResponse	0	0.0	n/a	5	18	ISIslide	AvoidedLoss	True
188.826	0.25	Control	0.95	0.0	No	2.924	0.026	n/a	NoResponse	0	n/a	n/a	5	19	Cue	Neutral	True
189.075	3.95	Control	0.95	0.001	No	2.924	-0.001	n/a	NoResponse	0	n/a	n/a	5	19	Fixation	Neutral	True
193.024	0.21	Control	0.95	0.002	No	2.924	-0.002	3.0	NoResponse	0	0.226	192.25	5	19	Target	Neutral	True
193.241	0.49	Control	0.95	n/a	No	2.924	n/a	n/a	NoResponse	0	n/a	n/a	5	19	Blank	Neutral	True
193.25	0.3	Control	0.95	0.002	No	2.924	-0.002	3.0	NoResponse	0	0.226	n/a	5	19	ButtonPress	Neutral	True
193.724	1.45	Control	0.95	n/a	No	2.924	n/a	5.0	NoResponse	0	0.008	192.732	5	19	Feedback	Neutral	True
195.173	2.924	Control	0.95	n/a	No	2.924	n/a	n/a	NoResponse	0	0.0	n/a	5	19	ISIslide	Neutral	True
198.122	0.25	Control	0.9048	0.0	No	2.628	0.022	n/a	NoResponse	0	n/a	n/a	5	20	Cue	Neutral	True
198.372	4.05	Control	0.9048	0.0	No	2.628	0.0	n/a	NoResponse	0	n/a	n/a	5	20	Fixation	Neutral	True
202.421	0.2	Control	0.9048	0.001	No	2.628	-0.001	3.0	NoResponse	0	0.215	201.636	5	20	Target	Neutral	True
202.621	0.5	Control	0.9048	n/a	No	2.628	n/a	n/a	NoResponse	0	n/a	n/a	5	20	Blank	Neutral	True
202.636	0.3	Control	0.9048	0.001	No	2.628	-0.001	3.0	NoResponse	0	0.215	n/a	5	20	ButtonPress	Neutral	True
203.121	1.45	Control	0.9048	n/a	No	2.628	n/a	5.0	NoResponse	0	0.023	202.144	5	20	Feedback	Neutral	True
204.57	2.628	Control	0.9048	n/a	No	2.628	n/a	n/a	NoResponse	0	0.0	n/a	5	20	ISIslide	Neutral	True
207.219	0.25	Control	0.8636	0.0	No	2.781	0.019	n/a	NoResponse	0	n/a	n/a	5	21	Cue	Neutral	True
207.469	4.1	Control	0.8636	0.0	No	2.781	0.0	n/a	NoResponse	0	n/a	n/a	5	21	Fixation	Neutral	True
211.568	0.19	Control	0.8636	0.001	No	2.781	-0.001	3.0	NoResponse	0	0.201	210.769	5	21	Target	Neutral	True
211.768	0.51	Control	0.8636	n/a	No	2.781	n/a	n/a	NoResponse	0	n/a	n/a	5	21	Blank	Neutral	True
211.769	0.3	Control	0.8636	0.001	No	2.781	-0.001	3.0	NoResponse	0	0.201	n/a	5	21	ButtonPress	Neutral	True
212.267	1.45	Control	0.8636	n/a	No	2.781	n/a	5.0	NoResponse	0	0.048	211.315	5	21	Feedback	Neutral	True
213.717	2.781	Control	0.8636	n/a	No	2.781	n/a	n/a	NoResponse	0	0.0	n/a	5	21	ISIslide	Neutral	True
216.516	0.25	Control	0.8261	0.0	No	2.784	0.016	n/a	NoResponse	0	n/a	n/a	5	22	Cue	Neutral	True
216.766	4.0	Control	0.8261	0.0	No	2.784	0.0	n/a	NoResponse	0	n/a	n/a	5	22	Fixation	Neutral	True
220.764	0.18	Control	0.8261	0.002	No	2.784	-0.002	3.0	NoResponse	0	0.196	219.96	5	22	Target	Neutral	True
220.948	0.52	Control	0.8261	n/a	No	2.784	n/a	n/a	NoResponse	0	n/a	n/a	5	22	Blank	Neutral	True
220.96	0.3	Control	0.8261	0.002	No	2.784	-0.002	3.0	NoResponse	0	0.196	n/a	5	22	ButtonPress	Neutral	True
221.464	1.45	Control	0.8261	n/a	No	2.784	n/a	5.0	NoResponse	0	0.022	220.486	5	22	Feedback	Neutral	True
222.914	2.784	Control	0.8261	n/a	No	2.784	n/a	n/a	NoResponse	0	0.0	n/a	5	22	ISIslide	Neutral	True
225.713	0.25	Control	0.7917000000000001	0.0	No	2.787	0.013	n/a	NoResponse	0	n/a	n/a	5	23	Cue	Neutral	True
225.963	3.9	Control	0.7917000000000001	0.0	No	2.787	0.0	n/a	NoResponse	0	n/a	n/a	5	23	Fixation	Neutral	True
229.861	0.17	Control	0.7917000000000001	0.002	No	2.787	-0.002	3.0	NoResponse	0	0.198	229.059	5	23	Target	Neutral	True
230.045	0.53	Control	0.7917000000000001	n/a	No	2.787	n/a	n/a	NoResponse	0	n/a	n/a	5	23	Blank	Neutral	True
230.059	0.3	Control	0.7917000000000001	0.002	No	2.787	-0.002	3.0	NoResponse	0	0.198	n/a	5	23	ButtonPress	Neutral	True
230.561	1.45	Control	0.7917000000000001	n/a	No	2.787	n/a	5.0	NoResponse	0	0.047	229.608	5	23	Feedback	Neutral	True
232.011	2.787	Control	0.7917000000000001	n/a	No	2.787	n/a	n/a	NoResponse	0	0.0	n/a	5	23	ISIslide	Neutral	True
234.826	0.25	Win2	0.76	0.0	No	3.124	0.026	n/a	NoResponse	0	n/a	n/a	5	24	Cue	MissedWin	False
235.076	3.95	Win2	0.76	0.0	No	3.124	0.0	3.0	NoResponse	0	3.88	237.956	5	24	Fixation	MissedWin	False
238.956	0.3	Win2	0.76	0.0	No	3.124	0.0	3.0	NoResponse	0	3.88	n/a	5	24	ButtonPress	MissedWin	False
239.025	0.16	Win2	0.76	0.001	No	3.124	-0.001	3.0	NoResponse	0	0.188	238.213	5	24	Target	MissedWin	False
239.191	0.54	Win2	0.76	n/a	No	3.124	n/a	n/a	NoResponse	0	n/a	n/a	5	24	Blank	MissedWin	False
239.213	0.3	Win2	0.76	0.001	No	3.124	-0.001	3.0	NoResponse	0	0.188	n/a	5	24	ButtonPress	MissedWin	False
239.725	1.45	Win2	0.76	n/a	No	3.124	n/a	5.0	NoResponse	0	0.006	238.731	5	24	Feedback	MissedWin	False
241.174	3.124	Win2	0.76	n/a	No	3.124	n/a	n/a	NoResponse	0	0.0	n/a	5	24	ISIslide	MissedWin	False
244.323	0.25	Win2	0.7308	0.0	No	3.077	0.023	n/a	NoResponse	0	n/a	n/a	5	25	Cue	MissedWin	True
244.573	4.0	Win2	0.7308	0.0	No	3.077	0.0	n/a	NoResponse	0	n/a	n/a	5	25	Fixation	MissedWin	True
248.572	0.15	Win2	0.7308	0.001	No	3.077	-0.001	3.0	NoResponse	0	0.207	247.779	5	25	Target	MissedWin	True
248.721	0.55	Win2	0.7308	n/a	No	3.077	n/a	n/a	NoResponse	0	n/a	n/a	5	25	Blank	MissedWin	True
248.779	0.3	Win2	0.7308	0.001	No	3.077	-0.001	3.0	NoResponse	0	0.207	n/a	5	25	ButtonPress	MissedWin	True
249.271	1.45	Win2	0.7308	n/a	No	3.077	n/a	5.0	NoResponse	0	0.02	248.291	5	25	Feedback	MissedWin	True
250.721	3.077	Win2	0.7308	n/a	No	3.077	n/a	n/a	NoResponse	0	0.0	n/a	5	25	ISIslide	MissedWin	True
253.82	0.25	Win2	0.7037	0.0	No	2.93	0.02	n/a	NoResponse	0	n/a	n/a	5	26	Cue	MissedWin	True
254.07	3.95	Win2	0.7037	0.0	No	2.93	0.0	n/a	NoResponse	0	n/a	n/a	5	26	Fixation	MissedWin	True
258.018	0.15	Win2	0.7037	0.002	No	2.93	-0.002	3.0	NoResponse	0	0.181	257.199	5	26	Target	MissedWin	True
258.168	0.55	Win2	0.7037	n/a	No	2.93	n/a	n/a	NoResponse	0	n/a	n/a	5	26	Blank	MissedWin	True
258.199	0.3	Win2	0.7037	0.002	No	2.93	-0.002	3.0	NoResponse	0	0.181	n/a	5	26	ButtonPress	MissedWin	True
258.718	1.45	Win2	0.7037	n/a	No	2.93	n/a	5.0	NoResponse	0	0.037	257.755	5	26	Feedback	MissedWin	True
260.167	2.93	Win2	0.7037	n/a	No	2.93	n/a	n/a	NoResponse	0	0.0	n/a	5	26	ISIslide	MissedWin	True
263.116	0.25	Lose2	0.6786	0.001	No	2.834	0.016	n/a	NoResponse	-1	n/a	n/a	4	27	Cue	Loss	True
263.366	4.05	Lose2	0.6786	0.0	No	2.834	0.0	n/a	NoResponse	-1	n/a	n/a	4	27	Fixation	Loss	True
267.415	0.15	Lose2	0.6786	0.001	No	2.834	-0.001	3.0	NoResponse	-1	0.201	266.616	4	27	Target	Loss	True
267.565	0.55	Lose2	0.6786	n/a	No	2.834	n/a	n/a	NoResponse	-1	n/a	n/a	4	27	Blank	Loss	True
267.616	0.3	Lose2	0.6786	0.001	No	2.834	-0.001	3.0	NoResponse	-1	0.201	n/a	4	27	ButtonPress	Loss	True
268.115	1.45	Lose2	0.6786	n/a	No	2.834	n/a	5.0	NoResponse	-1	0.006	267.121	4	27	Feedback	Loss	True
269.564	2.834	Lose2	0.6786	n/a	No	2.834	n/a	n/a	NoResponse	-1	0.0	n/a	4	27	ISIslide	Loss	True
272.413	0.25	Control	0.6552	0.0	No	2.837	0.013	n/a	NoResponse	0	n/a	n/a	4	28	Cue	Neutral	True
272.663	4.05	Control	0.6552	0.0	No	2.837	0.0	n/a	NoResponse	0	n/a	n/a	4	28	Fixation	Neutral	True
276.712	0.15	Control	0.6552	0.001	No	2.837	-0.001	3.0	NoResponse	0	0.199	275.911	4	28	Target	Neutral	True
276.862	0.55	Control	0.6552	n/a	No	2.837	n/a	n/a	NoResponse	0	n/a	n/a	4	28	Blank	Neutral	True
276.911	0.3	Control	0.6552	0.001	No	2.837	-0.001	3.0	NoResponse	0	0.199	n/a	4	28	ButtonPress	Neutral	True
277.412	1.45	Control	0.6552	n/a	No	2.837	n/a	5.0	NoResponse	0	0.025	276.437	4	28	Feedback	Neutral	True
278.861	2.837	Control	0.6552	n/a	No	2.837	n/a	n/a	NoResponse	0	0.0	n/a	4	28	ISIslide	Neutral	True
281.727	0.25	Lose2	0.6333	0.0	No	2.823	0.027	n/a	NoResponse	-1	n/a	n/a	3	29	Cue	Loss	True
281.977	3.95	Lose2	0.6333	0.0	No	2.823	0.0	n/a	NoResponse	-1	n/a	n/a	3	29	Fixation	Loss	True
285.925	0.15	Lose2	0.6333	0.002	No	2.823	-0.002	3.0	NoResponse	-1	0.198	285.123	3	29	Target	Loss	True
286.075	0.55	Lose2	0.6333	n/a	No	2.823	n/a	n/a	NoResponse	-1	n/a	n/a	3	29	Blank	Loss	True
286.123	0.3	Lose2	0.6333	0.002	No	2.823	-0.002	3.0	NoResponse	-1	0.198	n/a	3	29	ButtonPress	Loss	True
286.625	1.45	Lose2	0.6333	n/a	No	2.823	n/a	5.0	NoResponse	-1	0.032	285.657	3	29	Feedback	Loss	True
288.075	2.823	Lose2	0.6333	n/a	No	2.823	n/a	n/a	NoResponse	-1	0.0	n/a	3	29	ISIslide	Loss	True
290.924	0.25	Win2	0.6129	0.0	No	2.776	0.024	n/a	NoResponse	0	n/a	n/a	3	30	Cue	MissedWin	True
291.173	3.9	Win2	0.6129	0.001	No	2.776	-0.001	n/a	NoResponse	0	n/a	n/a	3	30	Fixation	MissedWin	True
295.072	0.16	Win2	0.6129	0.002	No	2.776	-0.002	3.0	NoResponse	0	0.241	294.313	3	30	Target	MissedWin	True
295.239	0.54	Win2	0.6129	n/a	No	2.776	n/a	n/a	NoResponse	0	n/a	n/a	3	30	Blank	MissedWin	True
295.313	0.3	Win2	0.6129	0.002	No	2.776	-0.002	3.0	NoResponse	0	0.241	n/a	3	30	ButtonPress	MissedWin	True
295.772	1.45	Win2	0.6129	n/a	No	2.776	n/a	5.0	NoResponse	0	0.007	294.779	3	30	Feedback	MissedWin	True
297.221	2.776	Win2	0.6129	n/a	No	2.776	n/a	n/a	NoResponse	0	0.0	n/a	3	30	ISIslide	MissedWin	True
300.02	0.25	Lose2	0.5938	0.0	No	2.83	0.02	n/a	NoResponse	-1	n/a	n/a	2	31	Cue	Loss	True
300.27	4.05	Lose2	0.5938	0.0	No	2.83	0.0	n/a	NoResponse	-1	n/a	n/a	2	31	Fixation	Loss	True
304.319	0.17	Lose2	0.5938	0.001	No	2.83	-0.001	3.0	NoResponse	-1	0.219	303.538	2	31	Target	Loss	True
304.486	0.53	Lose2	0.5938	n/a	No	2.83	n/a	n/a	NoResponse	-1	n/a	n/a	2	31	Blank	Loss	True
304.538	0.3	Lose2	0.5938	0.001	No	2.83	-0.001	3.0	NoResponse	-1	0.219	n/a	2	31	ButtonPress	Loss	True
305.019	1.45	Lose2	0.5938	n/a	No	2.83	n/a	5.0	NoResponse	-1	0.028	304.047	2	31	Feedback	Loss	True
306.468	2.83	Lose2	0.5938	n/a	No	2.83	n/a	n/a	NoResponse	-1	0.0	n/a	2	31	ISIslide	Loss	True
309.317	0.25	Lose2	0.5758	0.0	No	2.633	0.017	n/a	NoResponse	-1	n/a	n/a	1	32	Cue	Loss	True
309.567	4.15	Lose2	0.5758	0.0	No	2.633	0.0	n/a	NoResponse	-1	n/a	n/a	1	32	Fixation	Loss	True
313.716	0.18	Lose2	0.5758	0.001	No	2.633	-0.001	3.0	NoResponse	-1	0.202	312.918	1	32	Target	Loss	True
313.899	0.52	Lose2	0.5758	n/a	No	2.633	n/a	n/a	NoResponse	-1	n/a	n/a	1	32	Blank	Loss	True
313.918	0.3	Lose2	0.5758	0.001	No	2.633	-0.001	3.0	NoResponse	-1	0.202	n/a	1	32	ButtonPress	Loss	True
314.415	1.45	Lose2	0.5758	n/a	No	2.633	n/a	5.0	NoResponse	-1	0.047	313.462	1	32	Feedback	Loss	True
315.865	2.633	Lose2	0.5758	n/a	No	2.633	n/a	n/a	NoResponse	-1	0.0	n/a	1	32	ISIslide	Loss	True
318.514	0.25	Win2	0.5588000000000001	0.0	No	2.686	0.014	n/a	NoResponse	0	n/a	n/a	1	33	Cue	MissedWin	True
318.764	4.0	Win2	0.5588000000000001	0.0	No	2.686	0.0	n/a	NoResponse	0	n/a	n/a	1	33	Fixation	MissedWin	True
322.763	0.19	Win2	0.5588000000000001	0.001	No	2.686	-0.001	3.0	NoResponse	0	0.208	321.971	1	33	Target	MissedWin	True
322.962	0.51	Win2	0.5588000000000001	n/a	No	2.686	n/a	n/a	NoResponse	0	n/a	n/a	1	33	Blank	MissedWin	True
322.971	0.3	Win2	0.5588000000000001	0.001	No	2.686	-0.001	3.0	NoResponse	0	0.208	n/a	1	33	ButtonPress	MissedWin	True
323.462	1.45	Win2	0.5588000000000001	n/a	No	2.686	n/a	5.0	NoResponse	0	0.023	322.485	1	33	Feedback	MissedWin	True
324.912	2.686	Win2	0.5588000000000001	n/a	No	2.686	n/a	n/a	NoResponse	0	0.0	n/a	1	33	ISIslide	MissedWin	True
327.628	0.25	Lose2	0.5428999999999999	0.0	No	2.622	0.028	n/a	PrematurePress	-1	n/a	n/a	0	34	Cue	Loss	False
327.877	4.05	Lose2	0.5428999999999999	0.001	No	2.622	-0.001	3.0	PrematurePress	-1	3.873	330.75	0	34	Fixation	Loss	False
331.75	0.3	Lose2	0.5428999999999999	0.001	No	2.622	-0.001	3.0	PrematurePress	-1	3.873	n/a	0	34	ButtonPress	Loss	False
331.926	0.2	Lose2	0.5428999999999999	0.002	No	2.622	-0.002	3.0	PrematurePress	-1	0.053	330.979	0	34	Target	Loss	False
331.979	0.3	Lose2	0.5428999999999999	0.002	No	2.622	-0.002	3.0	PrematurePress	-1	0.053	n/a	0	34	ButtonPress	Loss	False
332.126	0.5	Lose2	0.5428999999999999	n/a	No	2.622	n/a	n/a	PrematurePress	-1	n/a	n/a	0	34	Blank	Loss	False
332.626	1.45	Lose2	0.5428999999999999	n/a	No	2.622	n/a	5.0	PrematurePress	-1	0.03	331.656	0	34	Feedback	Loss	False
334.075	2.622	Lose2	0.5428999999999999	n/a	No	2.622	n/a	n/a	PrematurePress	-1	0.0	n/a	0	34	ISIslide	Loss	False
336.724	0.25	Lose2	0.5556	0.0	Yes	2.676	0.024	n/a	GoodResponse	0	n/a	n/a	0	35	Cue	AvoidedLoss	True
336.974	4.0	Lose2	0.5556	0.0	Yes	2.676	0.0	n/a	GoodResponse	0	n/a	n/a	0	35	Fixation	AvoidedLoss	True
340.973	0.21	Lose2	0.5556	0.001	Yes	2.676	-0.001	3.0	GoodResponse	0	0.208	340.181	0	35	Target	AvoidedLoss	True
341.181	0.3	Lose2	0.5556	0.001	Yes	2.676	-0.001	3.0	GoodResponse	0	0.208	n/a	0	35	ButtonPress	AvoidedLoss	True
341.189	0.49	Lose2	0.5556	n/a	Yes	2.676	n/a	n/a	GoodResponse	0	n/a	n/a	0	35	Blank	AvoidedLoss	True
341.673	1.45	Lose2	0.5556	n/a	Yes	2.676	n/a	5.0	GoodResponse	0	0.008	340.681	0	35	Feedback	AvoidedLoss	True
343.122	2.676	Lose2	0.5556	n/a	Yes	2.676	n/a	n/a	GoodResponse	0	0.0	n/a	0	35	ISIslide	AvoidedLoss	True
345.821	0.25	Control	0.5676	0.0	Yes	2.679	0.021	n/a	GoodResponse	0	n/a	n/a	0	36	Cue	Neutral	True
346.071	4.0	Control	0.5676	0.0	Yes	2.679	0.0	n/a	GoodResponse	0	n/a	n/a	0	36	Fixation	Neutral	True
350.07	0.22	Control	0.5676	0.001	Yes	2.679	-0.001	3.0	GoodResponse	0	0.208	349.278	0	36	Target	Neutral	True
350.278	0.3	Control	0.5676	0.001	Yes	2.679	-0.001	3.0	GoodResponse	0	0.208	n/a	0	36	ButtonPress	Neutral	True
350.303	0.48	Control	0.5676	n/a	Yes	2.679	n/a	n/a	GoodResponse	0	n/a	n/a	0	36	Blank	Neutral	True
350.77	1.45	Control	0.5676	n/a	Yes	2.679	n/a	5.0	GoodResponse	0	0.033	349.803	0	36	Feedback	Neutral	True
352.219	2.679	Control	0.5676	n/a	Yes	2.679	n/a	n/a	GoodResponse	0	0.0	n/a	0	36	ISIslide	Neutral	True
354.918	0.25	Win2	0.5789	0.0	Yes	2.882	0.018	n/a	GoodResponse	1	n/a	n/a	1	37	Cue	Win	True
355.168	4.0	Win2	0.5789	0.0	Yes	2.882	0.0	n/a	GoodResponse	1	n/a	n/a	1	37	Fixation	Win	True
359.167	0.23	Win2	0.5789	0.001	Yes	2.882	-0.001	3.0	GoodResponse	1	0.164	358.331	1	37	Target	Win	True
359.331	0.3	Win2	0.5789	0.001	Yes	2.882	-0.001	3.0	GoodResponse	1	0.164	n/a	1	37	ButtonPress	Win	True
359.4	0.47	Win2	0.5789	n/a	Yes	2.882	n/a	n/a	GoodResponse	1	n/a	n/a	1	37	Blank	Win	True
359.866	1.45	Win2	0.5789	n/a	Yes	2.882	n/a	5.0	GoodResponse	1	0.01	358.876	1	37	Feedback	Win	True
361.316	2.882	Win2	0.5789	n/a	Yes	2.882	n/a	n/a	GoodResponse	1	0.0	n/a	1	37	ISIslide	Win	True
364.215	0.25	Lose2	0.5897	0.0	Yes	2.835	0.015	n/a	GoodResponse	0	n/a	n/a	1	38	Cue	AvoidedLoss	True
364.465	3.95	Lose2	0.5897	0.0	Yes	2.835	0.0	n/a	GoodResponse	0	n/a	n/a	1	38	Fixation	AvoidedLoss	True
368.413	0.24	Lose2	0.5897	0.002	Yes	2.835	-0.002	3.0	GoodResponse	0	0.239	367.652	1	38	Target	AvoidedLoss	True
368.652	0.3	Lose2	0.5897	0.002	Yes	2.835	-0.002	3.0	GoodResponse	0	0.239	n/a	1	38	ButtonPress	AvoidedLoss	True
368.663	0.46	Lose2	0.5897	n/a	Yes	2.835	n/a	n/a	GoodResponse	0	n/a	n/a	1	38	Blank	AvoidedLoss	True
369.113	1.45	Lose2	0.5897	n/a	Yes	2.835	n/a	5.0	GoodResponse	0	0.031	368.144	1	38	Feedback	AvoidedLoss	True
370.563	2.835	Lose2	0.5897	n/a	Yes	2.835	n/a	n/a	GoodResponse	0	0.0	n/a	1	38	ISIslide	AvoidedLoss	True
373.428	0.25	Win2	0.6	0.0	Yes	2.972	0.028	n/a	GoodResponse	1	n/a	n/a	2	39	Cue	Win	True
373.678	4.1	Win2	0.6	0.0	Yes	2.972	0.0	n/a	GoodResponse	1	n/a	n/a	2	39	Fixation	Win	True
377.777	0.25	Win2	0.6	0.001	Yes	2.972	-0.001	3.0	GoodResponse	1	0.203	376.98	2	39	Target	Win	True
377.98	0.3	Win2	0.6	0.001	Yes	2.972	-0.001	3.0	GoodResponse	1	0.203	n/a	2	39	ButtonPress	Win	True
378.027	0.45	Win2	0.6	n/a	Yes	2.972	n/a	n/a	GoodResponse	1	n/a	n/a	2	39	Blank	Win	True
378.477	1.45	Win2	0.6	n/a	Yes	2.972	n/a	5.0	GoodResponse	1	0.033	377.51	2	39	Feedback	Win	True
379.926	2.972	Win2	0.6	n/a	Yes	2.972	n/a	n/a	GoodResponse	1	0.0	n/a	2	39	ISIslide	Win	True
382.925	0.25	Win2	0.6098	0.0	Yes	2.725	0.025	n/a	GoodResponse	1	n/a	n/a	3	40	Cue	Win	True
383.175	3.95	Win2	0.6098	0.0	Yes	2.725	0.0	n/a	GoodResponse	1	n/a	n/a	3	40	Fixation	Win	True
387.124	0.26	Win2	0.6098	0.001	Yes	2.725	-0.001	3.0	GoodResponse	1	0.208	386.332	3	40	Target	Win	True
387.332	0.3	Win2	0.6098	0.001	Yes	2.725	-0.001	3.0	GoodResponse	1	0.208	n/a	3	40	ButtonPress	Win	True
387.39	0.44	Win2	0.6098	n/a	Yes	2.725	n/a	n/a	GoodResponse	1	n/a	n/a	3	40	Blank	Win	True
387.823	1.45	Win2	0.6098	n/a	Yes	2.725	n/a	5.0	GoodResponse	1	0.008	386.831	3	40	Feedback	Win	True
389.273	2.725	Win2	0.6098	n/a	Yes	2.725	n/a	n/a	GoodResponse	1	0.0	n/a	3	40	ISIslide	Win	True
392.022	0.25	Win2	0.619	0.0	Yes	2.778	0.022	n/a	GoodResponse	1	n/a	n/a	4	41	Cue	Win	True
392.272	3.9	Win2	0.619	0.0	Yes	2.778	0.0	n/a	GoodResponse	1	n/a	n/a	4	41	Fixation	Win	True
396.17	0.27	Win2	0.619	0.002	Yes	2.778	-0.002	3.0	GoodResponse	1	0.203	395.373	4	41	Target	Win	True
396.373	0.3	Win2	0.619	0.002	Yes	2.778	-0.002	3.0	GoodResponse	1	0.203	n/a	4	41	ButtonPress	Win	True
396.454	0.43	Win2	0.619	n/a	Yes	2.778	n/a	n/a	GoodResponse	1	n/a	n/a	4	41	Blank	Win	True
396.87	1.45	Win2	0.619	n/a	Yes	2.778	n/a	5.0	GoodResponse	1	0.03	395.9	4	41	Feedback	Win	True
398.32	2.778	Win2	0.619	n/a	Yes	2.778	n/a	n/a	GoodResponse	1	0.0	n/a	4	41	ISIslide	Win	True
401.119	0.25	Control	0.6279	0.0	Yes	2.931	0.019	n/a	GoodResponse	0	n/a	n/a	4	42	Cue	Neutral	True
401.369	3.85	Control	0.6279	0.0	Yes	2.931	0.0	n/a	GoodResponse	0	n/a	n/a	4	42	Fixation	Neutral	True
405.217	0.28	Control	0.6279	0.002	Yes	2.931	-0.002	3.0	GoodResponse	0	0.214	404.431	4	42	Target	Neutral	True
405.431	0.3	Control	0.6279	0.002	Yes	2.931	-0.002	3.0	GoodResponse	0	0.214	n/a	4	42	ButtonPress	Neutral	True
405.501	0.42	Control	0.6279	n/a	Yes	2.931	n/a	n/a	GoodResponse	0	n/a	n/a	4	42	Blank	Neutral	True
405.917	1.45	Control	0.6279	n/a	Yes	2.931	n/a	5.0	GoodResponse	0	0.008	404.925	4	42	Feedback	Neutral	True
407.367	2.931	Control	0.6279	n/a	Yes	2.931	n/a	n/a	GoodResponse	0	0.0	n/a	4	42	ISIslide	Neutral	True
410.316	0.25	Win2	0.6364	0.0	Yes	3.184	0.016	n/a	GoodResponse	1	n/a	n/a	5	43	Cue	Win	True
410.565	4.0	Win2	0.6364	0.001	Yes	3.184	-0.001	n/a	GoodResponse	1	n/a	n/a	5	43	Fixation	Win	True
414.564	0.29	Win2	0.6364	0.002	Yes	3.184	-0.002	3.0	GoodResponse	1	0.21	413.774	5	43	Target	Win	True
414.774	0.3	Win2	0.6364	0.002	Yes	3.184	-0.002	3.0	GoodResponse	1	0.21	n/a	5	43	ButtonPress	Win	True
414.864	0.41	Win2	0.6364	n/a	Yes	3.184	n/a	n/a	GoodResponse	1	n/a	n/a	5	43	Blank	Win	True
415.264	1.45	Win2	0.6364	n/a	Yes	3.184	n/a	5.0	GoodResponse	1	0.026	414.29	5	43	Feedback	Win	True
416.713	3.184	Win2	0.6364	n/a	Yes	3.184	n/a	n/a	GoodResponse	1	0.0	n/a	5	43	ISIslide	Win	True
419.929	0.25	Win2	0.6444	0.0	Yes	2.971	0.029	n/a	GoodResponse	1	n/a	n/a	6	44	Cue	Win	True
420.179	4.0	Win2	0.6444	0.0	Yes	2.971	0.0	n/a	GoodResponse	1	n/a	n/a	6	44	Fixation	Win	True
424.177	0.3	Win2	0.6444	0.002	Yes	2.971	-0.002	3.0	GoodResponse	1	0.201	423.378	6	44	Target	Win	True
424.378	0.3	Win2	0.6444	0.002	Yes	2.971	-0.002	3.0	GoodResponse	1	0.201	n/a	6	44	ButtonPress	Win	True
424.477	0.4	Win2	0.6444	n/a	Yes	2.971	n/a	n/a	GoodResponse	1	n/a	n/a	6	44	Blank	Win	True
424.877	1.45	Win2	0.6444	n/a	Yes	2.971	n/a	5.0	GoodResponse	1	0.023	423.9	6	44	Feedback	Win	True
426.327	2.971	Win2	0.6444	n/a	Yes	2.971	n/a	n/a	GoodResponse	1	0.0	n/a	6	44	ISIslide	Win	True
429.326	0.25	Control	0.6522	0.0	Yes	2.874	0.026	n/a	GoodResponse	0	n/a	n/a	6	45	Cue	Neutral	True
429.576	4.1	Control	0.6522	0.0	Yes	2.874	0.0	n/a	GoodResponse	0	n/a	n/a	6	45	Fixation	Neutral	True
433.674	0.31	Control	0.6522	0.002	Yes	2.874	-0.002	3.0	GoodResponse	0	0.125	432.799	6	45	Target	Neutral	True
433.799	0.3	Control	0.6522	0.002	Yes	2.874	-0.002	3.0	GoodResponse	0	0.125	n/a	6	45	ButtonPress	Neutral	True
433.991	0.39	Control	0.6522	n/a	Yes	2.874	n/a	n/a	GoodResponse	0	n/a	n/a	6	45	Blank	Neutral	True
434.374	1.45	Control	0.6522	n/a	Yes	2.874	n/a	5.0	GoodResponse	0	0.039	433.413	6	45	Feedback	Neutral	True
435.823	2.874	Control	0.6522	n/a	Yes	2.874	n/a	n/a	GoodResponse	0	0.0	n/a	6	45	ISIslide	Neutral	True
438.722	0.25	Lose2	0.6596	0.001	Yes	3.378	0.022	n/a	GoodResponse	0	n/a	n/a	6	46	Cue	AvoidedLoss	True
438.972	4.0	Lose2	0.6596	0.0	Yes	3.378	0.0	n/a	GoodResponse	0	n/a	n/a	6	46	Fixation	AvoidedLoss	True
442.971	0.32	Lose2	0.6596	0.001	Yes	3.378	-0.001	3.0	GoodResponse	0	0.204	442.175	6	46	Target	AvoidedLoss	True
443.175	0.3	Lose2	0.6596	0.001	Yes	3.378	-0.001	3.0	GoodResponse	0	0.204	n/a	6	46	ButtonPress	AvoidedLoss	True
443.288	0.38	Lose2	0.6596	n/a	Yes	3.378	n/a	n/a	GoodResponse	0	n/a	n/a	6	46	Blank	AvoidedLoss	True
443.671	1.45	Lose2	0.6596	n/a	Yes	3.378	n/a	5.0	GoodResponse	0	0.009	442.68	6	46	Feedback	AvoidedLoss	True
445.12	3.378	Lose2	0.6596	n/a	Yes	3.378	n/a	n/a	GoodResponse	0	0.0	n/a	6	46	ISIslide	AvoidedLoss	True
448.519	0.25	Lose2	0.6667000000000001	0.0	Yes	2.681	0.019	n/a	GoodResponse	0	n/a	n/a	6	47	Cue	AvoidedLoss	True
448.769	4.0	Lose2	0.6667000000000001	0.0	Yes	2.681	0.0	n/a	GoodResponse	0	n/a	n/a	6	47	Fixation	AvoidedLoss	True
452.768	0.32	Lose2	0.6667000000000001	0.001	Yes	2.681	-0.001	3.0	GoodResponse	0	0.197	451.965	6	47	Target	AvoidedLoss	True
452.965	0.3	Lose2	0.6667000000000001	0.001	Yes	2.681	-0.001	3.0	GoodResponse	0	0.197	n/a	6	47	ButtonPress	AvoidedLoss	True
453.101	0.38	Lose2	0.6667000000000001	n/a	Yes	2.681	n/a	n/a	GoodResponse	0	n/a	n/a	6	47	Blank	AvoidedLoss	True
453.467	1.45	Lose2	0.6667000000000001	n/a	Yes	2.681	n/a	5.0	GoodResponse	0	0.018	452.485	6	47	Feedback	AvoidedLoss	True
454.917	2.681	Lose2	0.6667000000000001	n/a	Yes	2.681	n/a	n/a	GoodResponse	0	0.0	n/a	6	47	ISIslide	AvoidedLoss	True
457.616	0.25	Lose2	0.6735	0.0	Yes	3.034	0.016	n/a	GoodResponse	0	n/a	n/a	6	48	Cue	AvoidedLoss	True
457.866	3.95	Lose2	0.6735	0.0	Yes	3.034	0.0	n/a	GoodResponse	0	n/a	n/a	6	48	Fixation	AvoidedLoss	True
461.814	0.31	Lose2	0.6735	0.002	Yes	3.034	-0.002	3.0	GoodResponse	0	0.199	461.013	6	48	Target	AvoidedLoss	True
462.013	0.3	Lose2	0.6735	0.002	Yes	3.034	-0.002	3.0	GoodResponse	0	0.199	n/a	6	48	ButtonPress	AvoidedLoss	True
462.131	0.39	Lose2	0.6735	n/a	Yes	3.034	n/a	n/a	GoodResponse	0	n/a	n/a	6	48	Blank	AvoidedLoss	True
462.514	1.45	Lose2	0.6735	n/a	Yes	3.034	n/a	5.0	GoodResponse	0	0.044	461.558	6	48	Feedback	AvoidedLoss	True
463.964	3.034	Lose2	0.6735	n/a	Yes	3.034	n/a	n/a	GoodResponse	0	0.0	n/a	6	48	ISIslide	AvoidedLoss	True
467.013	0.25	Control	0.68	0.0	Yes	2.887	0.013	n/a	GoodResponse	0	n/a	n/a	6	49	Cue	Neutral	True
467.263	4.0	Control	0.68	0.0	Yes	2.887	0.0	n/a	GoodResponse	0	n/a	n/a	6	49	Fixation	Neutral	True
471.261	0.3	Control	0.68	0.002	Yes	2.887	-0.002	3.0	GoodResponse	0	0.202	470.463	6	49	Target	Neutral	True
471.463	0.3	Control	0.68	0.002	Yes	2.887	-0.002	3.0	GoodResponse	0	0.202	n/a	6	49	ButtonPress	Neutral	True
471.561	0.4	Control	0.68	n/a	Yes	2.887	n/a	n/a	GoodResponse	0	n/a	n/a	6	49	Blank	Neutral	True
471.961	1.45	Control	0.68	n/a	Yes	2.887	n/a	5.0	GoodResponse	0	0.012	470.973	6	49	Feedback	Neutral	True
473.41	2.887	Control	0.68	n/a	Yes	2.887	n/a	n/a	GoodResponse	0	0.0	n/a	6	49	ISIslide	Neutral	True
476.326	0.25	Control	0.6862999999999999	0.0	Yes	2.774	0.026	n/a	GoodResponse	0	n/a	n/a	6	50	Cue	Neutral	True
476.576	4.0	Control	0.6862999999999999	0.0	Yes	2.774	0.0	n/a	GoodResponse	0	n/a	n/a	6	50	Fixation	Neutral	True
480.575	0.29	Control	0.6862999999999999	0.001	Yes	2.774	-0.001	3.0	GoodResponse	0	0.213	479.788	6	50	Target	Neutral	True
480.788	0.3	Control	0.6862999999999999	0.001	Yes	2.774	-0.001	3.0	GoodResponse	0	0.213	n/a	6	50	ButtonPress	Neutral	True
480.875	0.41	Control	0.6862999999999999	n/a	Yes	2.774	n/a	n/a	GoodResponse	0	n/a	n/a	6	50	Blank	Neutral	True
481.274	1.45	Control	0.6862999999999999	n/a	Yes	2.774	n/a	5.0	GoodResponse	0	0.016	480.29	6	50	Feedback	Neutral	True
482.724	2.774	Control	0.6862999999999999	n/a	Yes	2.774	n/a	n/a	GoodResponse	0	0.0	n/a	6	50	ISIslide	Neutral	True
485.523	0.25	Control	0.6923	0.0	Yes	2.727	0.023	n/a	GoodResponse	0	n/a	n/a	6	51	Cue	Neutral	True
485.773	3.95	Control	0.6923	0.0	Yes	2.727	0.0	n/a	GoodResponse	0	n/a	n/a	6	51	Fixation	Neutral	True
489.721	0.28	Control	0.6923	0.002	Yes	2.727	-0.002	3.0	GoodResponse	0	0.242	488.963	6	51	Target	Neutral	True
489.963	0.3	Control	0.6923	0.002	Yes	2.727	-0.002	3.0	GoodResponse	0	0.242	n/a	6	51	ButtonPress	Neutral	True
490.005	0.42	Control	0.6923	n/a	Yes	2.727	n/a	n/a	GoodResponse	0	n/a	n/a	6	51	Blank	Neutral	True
490.421	1.45	Control	0.6923	n/a	Yes	2.727	n/a	5.0	GoodResponse	0	0.04	489.461	6	51	Feedback	Neutral	True
491.871	2.727	Control	0.6923	n/a	Yes	2.727	n/a	n/a	GoodResponse	0	0.0	n/a	6	51	ISIslide	Neutral	True
494.62	0.25	Control	0.6981	0.0	Yes	2.63	0.02	n/a	GoodResponse	0	n/a	n/a	6	52	Cue	Neutral	True
494.87	4.05	Control	0.6981	0.0	Yes	2.63	0.0	n/a	GoodResponse	0	n/a	n/a	6	52	Fixation	Neutral	True
498.918	0.27	Control	0.6981	0.002	Yes	2.63	-0.002	3.0	GoodResponse	0	0.236	498.154	6	52	Target	Neutral	True
499.154	0.3	Control	0.6981	0.002	Yes	2.63	-0.002	3.0	GoodResponse	0	0.236	n/a	6	52	ButtonPress	Neutral	True
499.201	0.43	Control	0.6981	n/a	Yes	2.63	n/a	n/a	GoodResponse	0	n/a	n/a	6	52	Blank	Neutral	True
499.618	1.45	Control	0.6981	n/a	Yes	2.63	n/a	5.0	GoodResponse	0	0.014	498.632	6	52	Feedback	Neutral	True
501.068	2.63	Control	0.6981	n/a	Yes	2.63	n/a	n/a	GoodResponse	0	0.0	n/a	6	52	ISIslide	Neutral	True
503.717	0.25	Win2	0.7037	0.0	Yes	2.933	0.017	n/a	GoodResponse	1	n/a	n/a	7	53	Cue	Win	True
503.967	4.05	Win2	0.7037	0.0	Yes	2.933	0.0	n/a	GoodResponse	1	n/a	n/a	7	53	Fixation	Win	True
508.015	0.26	Win2	0.7037	0.002	Yes	2.933	-0.002	3.0	GoodResponse	1	0.193	507.208	7	53	Target	Win	True
508.208	0.3	Win2	0.7037	0.002	Yes	2.933	-0.002	3.0	GoodResponse	1	0.193	n/a	7	53	ButtonPress	Win	True
508.282	0.44	Win2	0.7037	n/a	Yes	2.933	n/a	n/a	GoodResponse	1	n/a	n/a	7	53	Blank	Win	True
508.715	1.45	Win2	0.7037	n/a	Yes	2.933	n/a	5.0	GoodResponse	1	0.038	507.753	7	53	Feedback	Win	True
510.164	2.933	Win2	0.7037	n/a	Yes	2.933	n/a	n/a	GoodResponse	1	0.0	n/a	7	53	ISIslide	Win	True
513.13	0.25	Win2	0.7091	0.0	Yes	2.72	0.03	n/a	GoodResponse	1	n/a	n/a	8	54	Cue	Win	True
513.38	3.95	Win2	0.7091	0.0	Yes	2.72	0.0	n/a	GoodResponse	1	n/a	n/a	8	54	Fixation	Win	True
517.329	0.25	Win2	0.7091	0.001	Yes	2.72	-0.001	3.0	GoodResponse	1	0.188	516.517	8	54	Target	Win	True
517.517	0.3	Win2	0.7091	0.001	Yes	2.72	-0.001	3.0	GoodResponse	1	0.188	n/a	8	54	ButtonPress	Win	True
517.578	0.45	Win2	0.7091	n/a	Yes	2.72	n/a	n/a	GoodResponse	1	n/a	n/a	8	54	Blank	Win	True
518.028	1.45	Win2	0.7091	n/a	Yes	2.72	n/a	5.0	GoodResponse	1	0.042	517.07	8	54	Feedback	Win	True
519.478	2.72	Win2	0.7091	n/a	Yes	2.72	n/a	n/a	GoodResponse	1	0.0	n/a	8	54	ISIslide	Win	True
522.227	0.25	Control	0.7143	0.0	Yes	3.023	0.027	n/a	GoodResponse	0	n/a	n/a	8	55	Cue	Neutral	True
522.477	3.95	Control	0.7143	0.0	Yes	3.023	0.0	n/a	GoodResponse	0	n/a	n/a	8	55	Fixation	Neutral	True
526.425	0.24	Control	0.7143	0.002	Yes	3.023	-0.002	3.0	GoodResponse	0	0.188	525.613	8	55	Target	Neutral	True
526.613	0.3	Control	0.7143	0.002	Yes	3.023	-0.002	3.0	GoodResponse	0	0.188	n/a	8	55	ButtonPress	Neutral	True
526.675	0.46	Control	0.7143	n/a	Yes	3.023	n/a	n/a	GoodResponse	0	n/a	n/a	8	55	Blank	Neutral	True
527.125	1.45	Control	0.7143	n/a	Yes	3.023	n/a	5.0	GoodResponse	0	0.018	526.143	8	55	Feedback	Neutral	True
528.575	3.023	Control	0.7143	n/a	Yes	3.023	n/a	n/a	GoodResponse	0	0.0	n/a	8	55	ISIslide	Neutral	True
531.624	0.25	Control	0.7193	0.0	Yes	2.826	0.024	n/a	GoodResponse	0	n/a	n/a	8	56	Cue	Neutral	True
531.874	3.95	Control	0.7193	0.0	Yes	2.826	0.0	n/a	GoodResponse	0	n/a	n/a	8	56	Fixation	Neutral	True
535.822	0.23	Control	0.7193	0.002	Yes	2.826	-0.002	3.0	GoodResponse	0	0.202	535.024	8	56	Target	Neutral	True
536.024	0.3	Control	0.7193	0.002	Yes	2.826	-0.002	3.0	GoodResponse	0	0.202	n/a	8	56	ButtonPress	Neutral	True
536.055	0.47	Control	0.7193	n/a	Yes	2.826	n/a	n/a	GoodResponse	0	n/a	n/a	8	56	Blank	Neutral	True
536.522	1.45	Control	0.7193	n/a	Yes	2.826	n/a	5.0	GoodResponse	0	0.036	535.558	8	56	Feedback	Neutral	True
537.971	2.826	Control	0.7193	n/a	Yes	2.826	n/a	n/a	GoodResponse	0	0.0	n/a	8	56	ISIslide	Neutral	True
540.82	0.25	Control	0.7241	0.001	Yes	3.48	0.02	n/a	GoodResponse	0	n/a	n/a	8	57	Cue	Neutral	True
541.07	4.0	Control	0.7241	0.0	Yes	3.48	0.0	n/a	GoodResponse	0	n/a	n/a	8	57	Fixation	Neutral	True
545.069	0.22	Control	0.7241	0.001	Yes	3.48	-0.001	3.0	GoodResponse	0	0.19	544.259	8	57	Target	Neutral	True
545.259	0.3	Control	0.7241	0.001	Yes	3.48	-0.001	3.0	GoodResponse	0	0.19	n/a	8	57	ButtonPress	Neutral	True
545.286	0.48	Control	0.7241	n/a	Yes	3.48	n/a	n/a	GoodResponse	0	n/a	n/a	8	57	Blank	Neutral	True
545.769	1.45	Control	0.7241	n/a	Yes	3.48	n/a	5.0	GoodResponse	0	0.009	544.778	8	57	Feedback	Neutral	True
547.218	3.48	Control	0.7241	n/a	Yes	3.48	n/a	n/a	GoodResponse	0	0.0	n/a	8	57	ISIslide	Neutral	True
550.717	0.25	Win2	0.7288	0.0	Yes	2.733	0.017	n/a	GoodResponse	1	n/a	n/a	9	58	Cue	Win	True
550.967	4.05	Win2	0.7288	0.0	Yes	2.733	0.0	n/a	GoodResponse	1	n/a	n/a	9	58	Fixation	Win	True
555.016	0.21	Win2	0.7288	0.001	Yes	2.733	-0.001	3.0	GoodResponse	1	0.189	554.205	9	58	Target	Win	True
555.205	0.3	Win2	0.7288	0.001	Yes	2.733	-0.001	3.0	GoodResponse	1	0.189	n/a	9	58	ButtonPress	Win	True
555.232	0.49	Win2	0.7288	n/a	Yes	2.733	n/a	n/a	GoodResponse	1	n/a	n/a	9	58	Blank	Win	True
555.715	1.45	Win2	0.7288	n/a	Yes	2.733	n/a	5.0	GoodResponse	1	0.014	554.729	9	58	Feedback	Win	True
557.165	2.733	Win2	0.7288	n/a	Yes	2.733	n/a	n/a	GoodResponse	1	0.0	n/a	9	58	ISIslide	Win	True
559.914	0.25	Lose2	0.7333	0.0	Yes	2.686	0.014	n/a	GoodResponse	0	n/a	n/a	9	59	Cue	AvoidedLoss	True
560.164	4.0	Lose2	0.7333	0.0	Yes	2.686	0.0	n/a	GoodResponse	0	n/a	n/a	9	59	Fixation	AvoidedLoss	True
564.162	0.2	Lose2	0.7333	0.002	Yes	2.686	-0.002	3.0	GoodResponse	0	0.187	563.349	9	59	Target	AvoidedLoss	True
564.349	0.3	Lose2	0.7333	0.002	Yes	2.686	-0.002	3.0	GoodResponse	0	0.187	n/a	9	59	ButtonPress	AvoidedLoss	True
564.362	0.5	Lose2	0.7333	n/a	Yes	2.686	n/a	n/a	GoodResponse	0	n/a	n/a	9	59	Blank	AvoidedLoss	True
564.862	1.45	Lose2	0.7333	n/a	Yes	2.686	n/a	5.0	GoodResponse	0	0.037	563.899	9	59	Feedback	AvoidedLoss	True
566.312	2.686	Lose2	0.7333	n/a	Yes	2.686	n/a	n/a	GoodResponse	0	0.0	n/a	9	59	ISIslide	AvoidedLoss	True
569.027	0.25	Control	0.7212999999999999	0.0	No	2.673	0.027	n/a	NoResponse	0	n/a	n/a	9	60	Cue	Neutral	True
569.277	4.0	Control	0.7212999999999999	0.0	No	2.673	0.0	n/a	NoResponse	0	n/a	n/a	9	60	Fixation	Neutral	True
573.276	0.19	Control	0.7212999999999999	0.001	No	2.673	-0.001	3.0	NoResponse	0	0.235	572.511	9	60	Target	Neutral	True
573.476	0.51	Control	0.7212999999999999	n/a	No	2.673	n/a	n/a	NoResponse	0	n/a	n/a	9	60	Blank	Neutral	True
573.511	0.3	Control	0.7212999999999999	0.001	No	2.673	-0.001	3.0	NoResponse	0	0.235	n/a	9	60	ButtonPress	Neutral	True
573.976	1.45	Control	0.7212999999999999	n/a	No	2.673	n/a	5.0	NoResponse	0	0.045	573.021	9	60	Feedback	Neutral	True
575.425	2.673	Control	0.7212999999999999	n/a	No	2.673	n/a	n/a	NoResponse	0	0.0	n/a	9	60	ISIslide	Neutral	True
578.124	0.25	Lose2	0.7097	0.0	No	2.976	0.024	n/a	NoResponse	-1	n/a	n/a	8	61	Cue	Loss	True
578.374	4.0	Lose2	0.7097	0.0	No	2.976	0.0	n/a	NoResponse	-1	n/a	n/a	8	61	Fixation	Loss	True
582.373	0.18	Lose2	0.7097	0.001	No	2.976	-0.001	3.0	NoResponse	-1	0.191	581.564	8	61	Target	Loss	True
582.556	0.52	Lose2	0.7097	n/a	No	2.976	n/a	n/a	NoResponse	-1	n/a	n/a	8	61	Blank	Loss	True
582.564	0.3	Lose2	0.7097	0.001	No	2.976	-0.001	3.0	NoResponse	-1	0.191	n/a	8	61	ButtonPress	Loss	True
583.073	1.45	Lose2	0.7097	n/a	No	2.976	n/a	5.0	NoResponse	-1	0.021	582.094	8	61	Feedback	Loss	True
584.522	2.976	Lose2	0.7097	n/a	No	2.976	n/a	n/a	NoResponse	-1	0.0	n/a	8	61	ISIslide	Loss	True
587.521	0.25	Lose2	0.6984	0.0	No	2.879	0.021	n/a	LatePress	-1	n/a	n/a	7	62	Cue	Loss	True
587.771	3.9	Lose2	0.6984	0.0	No	2.879	0.0	n/a	LatePress	-1	n/a	n/a	7	62	Fixation	Loss	True
591.67	0.17	Lose2	0.6984	0.001	No	2.879	-0.001	3.0	LatePress	-1	0.182	590.852	7	62	Target	Loss	True
591.852	0.3	Lose2	0.6984	0.001	No	2.879	-0.001	3.0	LatePress	-1	0.182	n/a	7	62	ButtonPress	Loss	True
591.853	0.53	Lose2	0.6984	n/a	No	2.879	n/a	n/a	LatePress	-1	n/a	n/a	7	62	Blank	Loss	True
592.369	1.45	Lose2	0.6984	n/a	No	2.879	n/a	5.0	LatePress	-1	0.043	591.412	7	62	Feedback	Loss	True
593.819	2.879	Lose2	0.6984	n/a	No	2.879	n/a	n/a	LatePress	-1	0.0	n/a	7	62	ISIslide	Loss	True
596.718	0.25	Lose2	0.6875	0.0	No	2.632	0.018	n/a	NoResponse	-1	n/a	n/a	6	63	Cue	Loss	True
596.968	4.05	Lose2	0.6875	0.0	No	2.632	0.0	n/a	NoResponse	-1	n/a	n/a	6	63	Fixation	Loss	True
601.016	0.16	Lose2	0.6875	0.002	No	2.632	-0.002	3.0	NoResponse	-1	0.179	600.195	6	63	Target	Loss	True
601.183	0.54	Lose2	0.6875	n/a	No	2.632	n/a	n/a	NoResponse	-1	n/a	n/a	6	63	Blank	Loss	True
601.195	0.3	Lose2	0.6875	0.002	No	2.632	-0.002	3.0	NoResponse	-1	0.179	n/a	6	63	ButtonPress	Loss	True
601.716	1.45	Lose2	0.6875	n/a	No	2.632	n/a	5.0	NoResponse	-1	0.013	600.729	6	63	Feedback	Loss	True
603.166	2.632	Lose2	0.6875	n/a	No	2.632	n/a	n/a	NoResponse	-1	0.0	n/a	6	63	ISIslide	Loss	True
605.815	0.25	Win2	0.6769	0.0	No	3.135	0.015	n/a	NoResponse	0	n/a	n/a	6	64	Cue	MissedWin	True
606.065	4.15	Win2	0.6769	0.0	No	3.135	0.0	n/a	NoResponse	0	n/a	n/a	6	64	Fixation	MissedWin	True
610.213	0.15	Win2	0.6769	0.002	No	3.135	-0.002	3.0	NoResponse	0	0.184	609.397	6	64	Target	MissedWin	True
610.363	0.55	Win2	0.6769	n/a	No	3.135	n/a	n/a	NoResponse	0	n/a	n/a	6	64	Blank	MissedWin	True
610.397	0.3	Win2	0.6769	0.002	No	3.135	-0.002	3.0	NoResponse	0	0.184	n/a	6	64	ButtonPress	MissedWin	True
610.913	1.45	Win2	0.6769	n/a	No	3.135	n/a	5.0	NoResponse	0	0.035	609.948	6	64	Feedback	MissedWin	True
612.362	3.135	Win2	0.6769	n/a	No	3.135	n/a	n/a	NoResponse	0	0.0	n/a	6	64	ISIslide	MissedWin	True
615.528	0.25	Control	0.6667000000000001	0.0	No	2.772	0.028	n/a	NoResponse	0	n/a	n/a	6	65	Cue	Neutral	True
615.778	4.0	Control	0.6667000000000001	0.0	No	2.772	0.0	n/a	NoResponse	0	n/a	n/a	6	65	Fixation	Neutral	True
619.776	0.15	Control	0.6667000000000001	0.002	No	2.772	-0.002	3.0	NoResponse	0	0.175	618.951	6	65	Target	Neutral	True
619.926	0.55	Control	0.6667000000000001	n/a	No	2.772	n/a	n/a	NoResponse	0	n/a	n/a	6	65	Blank	Neutral	True
619.951	0.3	Control	0.6667000000000001	0.002	No	2.772	-0.002	3.0	NoResponse	0	0.175	n/a	6	65	ButtonPress	Neutral	True
620.476	1.45	Control	0.6667000000000001	n/a	No	2.772	n/a	5.0	NoResponse	0	0.033	619.509	6	65	Feedback	Neutral	True
621.926	2.772	Control	0.6667000000000001	n/a	No	2.772	n/a	n/a	NoResponse	0	0.0	n/a	6	65	ISIslide	Neutral	True
624.725	0.25	Win2	0.6567000000000001	0.0	No	2.775	0.025	n/a	NoResponse	0	n/a	n/a	6	66	Cue	MissedWin	True
624.975	3.9	Win2	0.6567000000000001	0.0	No	2.775	0.0	n/a	NoResponse	0	n/a	n/a	6	66	Fixation	MissedWin	True
628.873	0.15	Win2	0.6567000000000001	0.002	No	2.775	-0.002	3.0	NoResponse	0	0.203	628.076	6	66	Target	MissedWin	True
629.023	0.55	Win2	0.6567000000000001	n/a	No	2.775	n/a	n/a	NoResponse	0	n/a	n/a	6	66	Blank	MissedWin	True
629.076	0.3	Win2	0.6567000000000001	0.002	No	2.775	-0.002	3.0	NoResponse	0	0.203	n/a	6	66	ButtonPress	MissedWin	True
629.573	1.45	Win2	0.6567000000000001	n/a	No	2.775	n/a	5.0	NoResponse	0	0.009	628.582	6	66	Feedback	MissedWin	True
631.023	2.775	Win2	0.6567000000000001	n/a	No	2.775	n/a	n/a	NoResponse	0	0.0	n/a	6	66	ISIslide	MissedWin	True
633.822	0.25	Control	0.6470999999999999	0.0	No	2.728	0.022	n/a	NoResponse	0	n/a	n/a	6	67	Cue	Neutral	True
634.072	3.95	Control	0.6470999999999999	0.0	No	2.728	0.0	n/a	NoResponse	0	n/a	n/a	6	67	Fixation	Neutral	True
638.02	0.15	Control	0.6470999999999999	0.002	No	2.728	-0.002	3.0	NoResponse	0	0.184	637.204	6	67	Target	Neutral	True
638.17	0.55	Control	0.6470999999999999	n/a	No	2.728	n/a	n/a	NoResponse	0	n/a	n/a	6	67	Blank	Neutral	True
638.204	0.3	Control	0.6470999999999999	0.002	No	2.728	-0.002	3.0	NoResponse	0	0.184	n/a	6	67	ButtonPress	Neutral	True
638.72	1.45	Control	0.6470999999999999	n/a	No	2.728	n/a	5.0	NoResponse	0	0.033	637.753	6	67	Feedback	Neutral	True
640.169	2.728	Control	0.6470999999999999	n/a	No	2.728	n/a	n/a	NoResponse	0	0.0	n/a	6	67	ISIslide	Neutral	True
642.918	0.25	Win2	0.6377	0.001	No	3.082	0.018	n/a	NoResponse	0	n/a	n/a	6	68	Cue	MissedWin	False
643.168	4.0	Win2	0.6377	0.0	No	3.082	0.0	3.0	NoResponse	0	3.892	646.06	6	68	Fixation	MissedWin	False
647.06	0.3	Win2	0.6377	0.0	No	3.082	0.0	3.0	NoResponse	0	3.892	n/a	6	68	ButtonPress	MissedWin	False
647.167	0.16	Win2	0.6377	0.001	No	3.082	-0.001	3.0	NoResponse	0	0.177	646.344	6	68	Target	MissedWin	False
647.334	0.54	Win2	0.6377	n/a	No	3.082	n/a	n/a	NoResponse	0	n/a	n/a	6	68	Blank	MissedWin	False
647.344	0.3	Win2	0.6377	0.001	No	3.082	-0.001	3.0	NoResponse	0	0.177	n/a	6	68	ButtonPress	MissedWin	False
647.867	1.45	Win2	0.6377	n/a	No	3.082	n/a	5.0	NoResponse	0	0.008	646.875	6	68	Feedback	MissedWin	False
649.316	3.082	Win2	0.6377	n/a	No	3.082	n/a	n/a	NoResponse	0	0.0	n/a	6	68	ISIslide	MissedWin	False
652.415	0.25	Win2	0.6286	0.0	No	3.235	0.015	n/a	NoResponse	0	n/a	n/a	6	69	Cue	MissedWin	True
652.665	3.95	Win2	0.6286	0.0	No	3.235	0.0	n/a	NoResponse	0	n/a	n/a	6	69	Fixation	MissedWin	True
656.614	0.17	Win2	0.6286	0.001	No	3.235	-0.001	3.0	NoResponse	0	0.196	655.81	6	69	Target	MissedWin	True
656.797	0.53	Win2	0.6286	n/a	No	3.235	n/a	n/a	NoResponse	0	n/a	n/a	6	69	Blank	MissedWin	True
656.81	0.3	Win2	0.6286	0.001	No	3.235	-0.001	3.0	NoResponse	0	0.196	n/a	6	69	ButtonPress	MissedWin	True
657.314	1.45	Win2	0.6286	n/a	No	3.235	n/a	5.0	NoResponse	0	0.024	656.338	6	69	Feedback	MissedWin	True
658.763	3.235	Win2	0.6286	n/a	No	3.235	n/a	n/a	NoResponse	0	0.0	n/a	6	69	ISIslide	MissedWin	True
662.029	0.25	Lose2	0.6197	0.0	No	3.021	0.029	n/a	NoResponse	-1	n/a	n/a	5	70	Cue	Loss	True
662.278	4.05	Lose2	0.6197	0.001	No	3.021	-0.001	n/a	NoResponse	-1	n/a	n/a	5	70	Fixation	Loss	True
666.327	0.18	Lose2	0.6197	0.002	No	3.021	-0.002	3.0	NoResponse	-1	0.191	665.518	5	70	Target	Loss	True
666.51	0.52	Lose2	0.6197	n/a	No	3.021	n/a	n/a	NoResponse	-1	n/a	n/a	5	70	Blank	Loss	True
666.518	0.3	Lose2	0.6197	0.002	No	3.021	-0.002	3.0	NoResponse	-1	0.191	n/a	5	70	ButtonPress	Loss	True
667.027	1.45	Lose2	0.6197	n/a	No	3.021	n/a	5.0	NoResponse	-1	0.019	666.046	5	70	Feedback	Loss	True
668.476	3.021	Lose2	0.6197	n/a	No	3.021	n/a	n/a	NoResponse	-1	0.0	n/a	5	70	ISIslide	Loss	True
671.525	0.25	Win2	0.6111	0.0	No	2.725	0.025	n/a	LatePress	0	n/a	n/a	5	71	Cue	MissedWin	True
671.775	4.05	Win2	0.6111	0.0	No	2.725	0.0	n/a	LatePress	0	n/a	n/a	5	71	Fixation	MissedWin	True
675.824	0.19	Win2	0.6111	0.001	No	2.725	-0.001	3.0	LatePress	0	0.19	675.014	5	71	Target	MissedWin	True
676.014	0.3	Win2	0.6111	0.001	No	2.725	-0.001	3.0	LatePress	0	0.19	n/a	5	71	ButtonPress	MissedWin	True
676.024	0.51	Win2	0.6111	n/a	No	2.725	n/a	n/a	LatePress	0	n/a	n/a	5	71	Blank	MissedWin	True
676.524	1.45	Win2	0.6111	n/a	No	2.725	n/a	5.0	LatePress	0	0.034	675.558	5	71	Feedback	MissedWin	True
677.973	2.725	Win2	0.6111	n/a	No	2.725	n/a	n/a	LatePress	0	0.0	n/a	5	71	ISIslide	MissedWin	True
680.722	0.25	Win2	0.6164000000000001	0.0	Yes	2.778	0.022	n/a	GoodResponse	1	n/a	n/a	6	72	Cue	Win	True
680.972	4.1	Win2	0.6164000000000001	0.0	Yes	2.778	0.0	n/a	GoodResponse	1	n/a	n/a	6	72	Fixation	Win	True
685.071	0.2	Win2	0.6164000000000001	0.001	Yes	2.778	-0.001	3.0	GoodResponse	1	0.182	684.253	6	72	Target	Win	True
685.253	0.3	Win2	0.6164000000000001	0.001	Yes	2.778	-0.001	3.0	GoodResponse	1	0.182	n/a	6	72	ButtonPress	Win	True
685.27	0.5	Win2	0.6164000000000001	n/a	Yes	2.778	n/a	n/a	GoodResponse	1	n/a	n/a	6	72	Blank	Win	True
685.77	1.45	Win2	0.6164000000000001	n/a	Yes	2.778	n/a	5.0	GoodResponse	1	0.008	684.778	6	72	Feedback	Win	True
687.22	2.778	Win2	0.6164000000000001	n/a	Yes	2.778	n/a	n/a	GoodResponse	1	0.0	n/a	6	72	ISIslide	Win	True
690.019	0.25	Win2	0.6215999999999999	0.0	Yes	2.681	0.019	n/a	GoodResponse	1	n/a	n/a	7	73	Cue	Win	True
690.269	4.0	Win2	0.6215999999999999	0.0	Yes	2.681	0.0	n/a	GoodResponse	1	n/a	n/a	7	73	Fixation	Win	True
694.267	0.21	Win2	0.6215999999999999	0.002	Yes	2.681	-0.002	3.0	GoodResponse	1	0.191	693.458	7	73	Target	Win	True
694.458	0.3	Win2	0.6215999999999999	0.002	Yes	2.681	-0.002	3.0	GoodResponse	1	0.191	n/a	7	73	ButtonPress	Win	True
694.484	0.49	Win2	0.6215999999999999	n/a	Yes	2.681	n/a	n/a	GoodResponse	1	n/a	n/a	7	73	Blank	Win	True
694.967	1.45	Win2	0.6215999999999999	n/a	Yes	2.681	n/a	5.0	GoodResponse	1	0.029	693.996	7	73	Feedback	Win	True
696.417	2.681	Win2	0.6215999999999999	n/a	Yes	2.681	n/a	n/a	GoodResponse	1	0.0	n/a	7	73	ISIslide	Win	True
699.116	0.25	Lose2	0.6267	0.0	Yes	2.634	0.016	n/a	GoodResponse	0	n/a	n/a	7	74	Cue	AvoidedLoss	True
699.366	4.05	Lose2	0.6267	0.0	Yes	2.634	0.0	n/a	GoodResponse	0	n/a	n/a	7	74	Fixation	AvoidedLoss	True
703.414	0.22	Lose2	0.6267	0.002	Yes	2.634	-0.002	3.0	GoodResponse	0	0.193	702.607	7	74	Target	AvoidedLoss	True
703.607	0.3	Lose2	0.6267	0.002	Yes	2.634	-0.002	3.0	GoodResponse	0	0.193	n/a	7	74	ButtonPress	AvoidedLoss	True
703.647	0.48	Lose2	0.6267	n/a	Yes	2.634	n/a	n/a	GoodResponse	0	n/a	n/a	7	74	Blank	AvoidedLoss	True
704.114	1.45	Lose2	0.6267	n/a	Yes	2.634	n/a	5.0	GoodResponse	0	0.008	703.122	7	74	Feedback	AvoidedLoss	True
705.563	2.634	Lose2	0.6267	n/a	Yes	2.634	n/a	n/a	GoodResponse	0	0.0	n/a	7	74	ISIslide	AvoidedLoss	True
708.229	0.25	Lose2	0.6315999999999999	0.0	Yes	2.921	0.029	n/a	GoodResponse	0	n/a	n/a	7	75	Cue	AvoidedLoss	True
708.479	3.95	Lose2	0.6315999999999999	0.0	Yes	2.921	0.0	n/a	GoodResponse	0	n/a	n/a	7	75	Fixation	AvoidedLoss	True
712.428	0.23	Lose2	0.6315999999999999	0.001	Yes	2.921	-0.001	3.0	GoodResponse	0	0.194	711.622	7	75	Target	AvoidedLoss	True
712.622	0.3	Lose2	0.6315999999999999	0.001	Yes	2.921	-0.001	3.0	GoodResponse	0	0.194	n/a	7	75	ButtonPress	AvoidedLoss	True
712.661	0.47	Lose2	0.6315999999999999	n/a	Yes	2.921	n/a	n/a	GoodResponse	0	n/a	n/a	7	75	Blank	AvoidedLoss	True
713.128	1.45	Lose2	0.6315999999999999	n/a	Yes	2.921	n/a	5.0	GoodResponse	0	0.015	712.143	7	75	Feedback	AvoidedLoss	True
714.577	2.921	Lose2	0.6315999999999999	n/a	Yes	2.921	n/a	n/a	GoodResponse	0	0.0	n/a	7	75	ISIslide	AvoidedLoss	True
717.526	0.25	Control	0.6364	0.0	Yes	3.224	0.026	n/a	GoodResponse	0	n/a	n/a	7	76	Cue	Neutral	True
717.776	4.05	Control	0.6364	0.0	Yes	3.224	0.0	n/a	GoodResponse	0	n/a	n/a	7	76	Fixation	Neutral	True
721.825	0.24	Control	0.6364	0.001	Yes	3.224	-0.001	3.0	GoodResponse	0	0.186	721.011	7	76	Target	Neutral	True
722.011	0.3	Control	0.6364	0.001	Yes	3.224	-0.001	3.0	GoodResponse	0	0.186	n/a	7	76	ButtonPress	Neutral	True
722.074	0.46	Control	0.6364	n/a	Yes	3.224	n/a	n/a	GoodResponse	0	n/a	n/a	7	76	Blank	Neutral	True
722.524	1.45	Control	0.6364	n/a	Yes	3.224	n/a	5.0	GoodResponse	0	0.034	721.558	7	76	Feedback	Neutral	True
723.974	3.224	Control	0.6364	n/a	Yes	3.224	n/a	n/a	GoodResponse	0	0.0	n/a	7	76	ISIslide	Neutral	True
727.223	0.25	Lose2	0.6409999999999999	0.0	Yes	2.577	0.023	n/a	GoodResponse	0	n/a	n/a	7	77	Cue	AvoidedLoss	True
727.473	3.95	Lose2	0.6409999999999999	0.0	Yes	2.577	0.0	n/a	GoodResponse	0	n/a	n/a	7	77	Fixation	AvoidedLoss	True
731.421	0.25	Lose2	0.6409999999999999	0.002	Yes	2.577	-0.002	3.0	GoodResponse	0	0.18	730.601	7	77	Target	AvoidedLoss	True
731.601	0.3	Lose2	0.6409999999999999	0.002	Yes	2.577	-0.002	3.0	GoodResponse	0	0.18	n/a	7	77	ButtonPress	AvoidedLoss	True
731.671	0.45	Lose2	0.6409999999999999	n/a	Yes	2.577	n/a	n/a	GoodResponse	0	n/a	n/a	7	77	Blank	AvoidedLoss	True
732.121	1.45	Lose2	0.6409999999999999	n/a	Yes	2.577	n/a	5.0	GoodResponse	0	0.047	731.168	7	77	Feedback	AvoidedLoss	True
733.57	2.577	Lose2	0.6409999999999999	n/a	Yes	2.577	n/a	n/a	GoodResponse	0	0.0	n/a	7	77	ISIslide	AvoidedLoss	True
