onset	duration	cue_type	current_mean_accuracy	duration_error	is_hit	isi_adjusted	onset_delay	response	response_type	reward	rt	rt_time	total_reward	trial_number	trial_phase	trial_type	one_press
11.108	0.25	Control	0.0	0.0	No	2.942	0.008	n/a	NoResponse	0	n/a	n/a	0	0	Cue	Neutral	False
11.358	3.85	Control	0.0	0.001	No	2.942	0.0	1.0	NoResponse	0	0.393	10.751	0	0	Fixation	Neutral	False
11.751	0.3	Control	0.0	0.001	No	2.942	0.0	1.0	NoResponse	0	0.393	n/a	0	0	ButtonPress	Neutral	False
15.22	0.4	Control	0.0	0.0	No	2.942	0.012	1.0	NoResponse	0	0.426	14.646	0	0	Target	Neutral	False
15.605	0.3	Control	0.0	n/a	No	2.942	n/a	n/a	NoResponse	0	n/a	n/a	0	0	Blank	Neutral	False
15.646	0.3	Control	0.0	0.0	No	2.942	0.012	1.0	NoResponse	0	0.426	n/a	0	0	ButtonPress	Neutral	False
15.905	1.45	Control	0.0	n/a	No	2.942	n/a	5.0	NoResponse	0	0.021	14.926	0	0	Feedback	Neutral	False
17.36	2.942	Control	0.0	n/a	No	2.942	n/a	n/a	NoResponse	0	0.0	n/a	0	0	ISIslide	Neutral	False
20.319	0.25	Lose2	0.5	0.0	Yes	2.781	0.019	n/a	GoodResponse	0	n/a	n/a	0	1	Cue	AvoidedLoss	True
20.569	4.0	Lose2	0.5	0.001	Yes	2.781	0.0	n/a	GoodResponse	0	n/a	n/a	0	1	Fixation	AvoidedLoss	True
24.565	0.41	Lose2	0.5	0.004	Yes	2.781	-0.004	1.0	GoodResponse	0	0.215	23.78	0	1	Target	AvoidedLoss	True
24.78	0.3	Lose2	0.5	0.004	Yes	2.781	-0.004	1.0	GoodResponse	0	0.215	n/a	0	1	ButtonPress	AvoidedLoss	True
24.983	0.29	Lose2	0.5	n/a	Yes	2.781	n/a	n/a	GoodResponse	0	n/a	n/a	0	1	Blank	AvoidedLoss	True
25.267	1.45	Lose2	0.5	n/a	Yes	2.781	n/a	5.0	GoodResponse	0	0.025	24.292	0	1	Feedback	AvoidedLoss	True
26.721	2.781	Lose2	0.5	n/a	Yes	2.781	n/a	n/a	GoodResponse	0	0.0	n/a	0	1	ISIslide	AvoidedLoss	True
29.53	0.25	Control	0.6667000000000001	0.0	Yes	2.57	0.03	n/a	GoodResponse	0	n/a	n/a	0	2	Cue	Neutral	True
29.78	4.1	Control	0.6667000000000001	0.0	Yes	2.57	0.0	n/a	GoodResponse	0	n/a	n/a	0	2	Fixation	Neutral	True
33.876	0.42	Control	0.6667000000000001	0.004	Yes	2.57	-0.004	1.0	GoodResponse	0	0.214	33.09	0	2	Target	Neutral	True
34.09	0.3	Control	0.6667000000000001	0.004	Yes	2.57	-0.004	1.0	GoodResponse	0	0.214	n/a	0	2	ButtonPress	Neutral	True
34.311	0.28	Control	0.6667000000000001	n/a	Yes	2.57	n/a	n/a	GoodResponse	0	n/a	n/a	0	2	Blank	Neutral	True
34.578	1.45	Control	0.6667000000000001	n/a	Yes	2.57	n/a	5.0	GoodResponse	0	0.031	33.609	0	2	Feedback	Neutral	True
36.032	2.57	Control	0.6667000000000001	n/a	Yes	2.57	n/a	n/a	GoodResponse	0	0.0	n/a	0	2	ISIslide	Neutral	True
38.624	0.25	Win2	0.75	0.0	Yes	2.826	0.024	n/a	GoodResponse	1	n/a	n/a	1	3	Cue	Win	True
38.874	3.95	Win2	0.75	0.0	Yes	2.826	0.0	n/a	GoodResponse	1	n/a	n/a	1	3	Fixation	Win	True
42.836	0.41	Win2	0.75	0.0	Yes	2.826	0.012	1.0	GoodResponse	1	0.194	42.03	1	3	Target	Win	True
43.03	0.3	Win2	0.75	0.0	Yes	2.826	0.012	1.0	GoodResponse	1	0.194	n/a	1	3	ButtonPress	Win	True
43.237	0.29	Win2	0.75	n/a	Yes	2.826	n/a	n/a	GoodResponse	1	n/a	n/a	1	3	Blank	Win	True
43.522	1.45	Win2	0.75	n/a	Yes	2.826	n/a	5.0	GoodResponse	1	0.014	42.536	1	3	Feedback	Win	True
44.976	2.826	Win2	0.75	n/a	Yes	2.826	n/a	n/a	GoodResponse	1	0.0	n/a	1	3	ISIslide	Win	True
47.818	0.25	Win2	0.8	0.0	Yes	3.282	0.018	n/a	GoodResponse	1	n/a	n/a	2	4	Cue	Win	True
48.069	4.0	Win2	0.8	0.0	Yes	3.282	0.001	n/a	GoodResponse	1	n/a	n/a	2	4	Fixation	Win	True
52.064	0.4	Win2	0.8	0.004	Yes	3.282	-0.004	1.0	GoodResponse	1	0.206	51.27	2	4	Target	Win	True
52.27	0.3	Win2	0.8	0.004	Yes	3.282	-0.004	1.0	GoodResponse	1	0.206	n/a	2	4	ButtonPress	Win	True
52.465	0.3	Win2	0.8	n/a	Yes	3.282	n/a	n/a	GoodResponse	1	n/a	n/a	2	4	Blank	Win	True
52.766	1.45	Win2	0.8	n/a	Yes	3.282	n/a	5.0	GoodResponse	1	0.038	51.804	2	4	Feedback	Win	True
54.22	3.282	Win2	0.8	n/a	Yes	3.282	n/a	n/a	GoodResponse	1	0.0	n/a	2	4	ISIslide	Win	True
57.53	0.25	Win2	0.6667000000000001	0.0	No	2.77	0.03	n/a	PrematurePress	0	n/a	n/a	2	5	Cue	MissedWin	True
57.781	4.0	Win2	0.6667000000000001	0.0	No	2.77	0.001	n/a	PrematurePress	0	n/a	n/a	2	5	Fixation	MissedWin	True
61.776	0.39	Win2	0.6667000000000001	0.004	No	2.77	-0.004	1.0	PrematurePress	0	0.058	60.834	2	5	Target	MissedWin	True
61.834	0.3	Win2	0.6667000000000001	0.004	No	2.77	-0.004	1.0	PrematurePress	0	0.058	n/a	2	5	ButtonPress	MissedWin	True
62.177	0.31	Win2	0.6667000000000001	n/a	No	2.77	n/a	n/a	PrematurePress	0	n/a	n/a	2	5	Blank	MissedWin	True
62.478	1.45	Win2	0.6667000000000001	n/a	No	2.77	n/a	5.0	PrematurePress	0	0.033	61.511	2	5	Feedback	MissedWin	True
63.933	2.77	Win2	0.6667000000000001	n/a	No	2.77	n/a	n/a	PrematurePress	0	0.0	n/a	2	5	ISIslide	MissedWin	True
66.724	0.25	Lose2	0.7143	0.0	Yes	2.726	0.024	n/a	GoodResponse	0	n/a	n/a	2	6	Cue	AvoidedLoss	True
66.975	3.95	Lose2	0.7143	0.0	Yes	2.726	0.001	n/a	GoodResponse	0	n/a	n/a	2	6	Fixation	AvoidedLoss	True
70.92	0.38	Lose2	0.7143	0.004	Yes	2.726	-0.004	1.0	GoodResponse	0	0.204	70.124	2	6	Target	AvoidedLoss	True
71.124	0.3	Lose2	0.7143	0.004	Yes	2.726	-0.004	1.0	GoodResponse	0	0.204	n/a	2	6	ButtonPress	AvoidedLoss	True
71.305	0.32	Lose2	0.7143	n/a	Yes	2.726	n/a	n/a	GoodResponse	0	n/a	n/a	2	6	Blank	AvoidedLoss	True
71.622	1.45	Lose2	0.7143	n/a	Yes	2.726	n/a	5.0	GoodResponse	0	0.011	70.633	2	6	Feedback	AvoidedLoss	True
73.077	2.726	Lose2	0.7143	n/a	Yes	2.726	n/a	n/a	GoodResponse	0	0.0	n/a	2	6	ISIslide	AvoidedLoss	True
75.818	0.25	Lose2	0.75	0.0	Yes	4.032	0.018	n/a	GoodResponse	0	n/a	n/a	2	7	Cue	AvoidedLoss	True
76.069	4.05	Lose2	0.75	0.0	Yes	4.032	0.001	n/a	GoodResponse	0	n/a	n/a	2	7	Fixation	AvoidedLoss	True
80.115	0.37	Lose2	0.75	0.003	Yes	4.032	-0.003	1.0	GoodResponse	0	0.235	79.35	2	7	Target	AvoidedLoss	True
80.35	0.3	Lose2	0.75	0.003	Yes	4.032	-0.003	1.0	GoodResponse	0	0.235	n/a	2	7	ButtonPress	AvoidedLoss	True
80.499	0.33	Lose2	0.75	n/a	Yes	4.032	n/a	n/a	GoodResponse	0	n/a	n/a	2	7	Blank	AvoidedLoss	True
80.817	1.45	Lose2	0.75	n/a	Yes	4.032	n/a	5.0	GoodResponse	0	0.035	79.852	2	7	Feedback	AvoidedLoss	True
82.271	4.032	Lose2	0.75	n/a	Yes	4.032	n/a	n/a	GoodResponse	0	0.0	n/a	2	7	ISIslide	AvoidedLoss	True
86.316	0.25	Lose2	0.7778	0.001	Yes	3.034	0.016	n/a	GoodResponse	0	n/a	n/a	2	8	Cue	AvoidedLoss	True
86.567	3.95	Lose2	0.7778	0.0	Yes	3.034	0.001	n/a	GoodResponse	0	n/a	n/a	2	8	Fixation	AvoidedLoss	True
90.512	0.36	Lose2	0.7778	0.004	Yes	3.034	-0.004	1.0	GoodResponse	0	0.199	89.711	2	8	Target	AvoidedLoss	True
90.711	0.3	Lose2	0.7778	0.004	Yes	3.034	-0.004	1.0	GoodResponse	0	0.199	n/a	2	8	ButtonPress	AvoidedLoss	True
90.88	0.34	Lose2	0.7778	n/a	Yes	3.034	n/a	n/a	GoodResponse	0	n/a	n/a	2	8	Blank	AvoidedLoss	True
91.214	1.45	Lose2	0.7778	n/a	Yes	3.034	n/a	5.0	GoodResponse	0	0.029	90.243	2	8	Feedback	AvoidedLoss	True
92.669	3.034	Lose2	0.7778	n/a	Yes	3.034	n/a	n/a	GoodResponse	0	0.0	n/a	2	8	ISIslide	AvoidedLoss	True
95.728	0.25	Lose2	0.8	0.0	Yes	3.122	0.028	n/a	GoodResponse	0	n/a	n/a	2	9	Cue	AvoidedLoss	True
95.979	3.95	Lose2	0.8	0.0	Yes	3.122	0.001	n/a	GoodResponse	0	n/a	n/a	2	9	Fixation	AvoidedLoss	True
99.924	0.35	Lose2	0.8	0.004	Yes	3.122	-0.004	1.0	GoodResponse	0	0.215	99.139	2	9	Target	AvoidedLoss	True
100.139	0.3	Lose2	0.8	0.004	Yes	3.122	-0.004	1.0	GoodResponse	0	0.215	n/a	2	9	ButtonPress	AvoidedLoss	True
100.275	0.35	Lose2	0.8	n/a	Yes	3.122	n/a	n/a	GoodResponse	0	n/a	n/a	2	9	Blank	AvoidedLoss	True
100.626	1.45	Lose2	0.8	n/a	Yes	3.122	n/a	5.0	GoodResponse	0	0.031	99.657	2	9	Feedback	AvoidedLoss	True
102.08	3.122	Lose2	0.8	n/a	Yes	3.122	n/a	n/a	GoodResponse	0	0.0	n/a	2	9	ISIslide	AvoidedLoss	True
105.223	0.25	Control	0.7273000000000001	0.0	No	3.277	0.023	n/a	PrematurePress	0	n/a	n/a	2	10	Cue	Neutral	False
105.474	4.0	Control	0.7273000000000001	0.0	No	3.277	0.001	1.0	PrematurePress	0	3.599	108.073	2	10	Fixation	Neutral	False
109.073	0.3	Control	0.7273000000000001	0.0	No	3.277	0.001	1.0	PrematurePress	0	3.599	n/a	2	10	ButtonPress	Neutral	False
109.469	0.34	Control	0.7273000000000001	0.004	No	3.277	-0.004	1.0	PrematurePress	0	0.042	108.511	2	10	Target	Neutral	False
109.511	0.3	Control	0.7273000000000001	0.004	No	3.277	-0.004	1.0	PrematurePress	0	0.042	n/a	2	10	ButtonPress	Neutral	False
109.82	0.36	Control	0.7273000000000001	n/a	No	3.277	n/a	n/a	PrematurePress	0	n/a	n/a	2	10	Blank	Neutral	False
110.171	1.45	Control	0.7273000000000001	n/a	No	3.277	n/a	5.0	PrematurePress	0	0.047	109.218	2	10	Feedback	Neutral	False
111.626	3.277	Control	0.7273000000000001	n/a	No	3.277	n/a	n/a	PrematurePress	0	0.0	n/a	2	10	ISIslide	Neutral	False
114.919	0.25	Lose2	0.75	0.0	Yes	2.731	0.019	n/a	GoodResponse	0	n/a	n/a	2	11	Cue	AvoidedLoss	True
115.17	4.05	Lose2	0.75	0.0	Yes	2.731	0.001	n/a	GoodResponse	0	n/a	n/a	2	11	Fixation	AvoidedLoss	True
119.215	0.33	Lose2	0.75	0.004	Yes	2.731	-0.004	1.0	GoodResponse	0	0.185	118.4	2	11	Target	AvoidedLoss	True
119.4	0.3	Lose2	0.75	0.004	Yes	2.731	-0.004	1.0	GoodResponse	0	0.185	n/a	2	11	ButtonPress	AvoidedLoss	True
119.549	0.37	Lose2	0.75	n/a	Yes	2.731	n/a	n/a	GoodResponse	0	n/a	n/a	2	11	Blank	AvoidedLoss	True
119.917	1.45	Lose2	0.75	n/a	Yes	2.731	n/a	5.0	GoodResponse	0	0.009	118.926	2	11	Feedback	AvoidedLoss	True
121.371	2.731	Lose2	0.75	n/a	Yes	2.731	n/a	n/a	GoodResponse	0	0.0	n/a	2	11	ISIslide	AvoidedLoss	True
124.13	0.25	Control	0.7692	0.0	Yes	2.97	0.03	n/a	GoodResponse	0	n/a	n/a	2	12	Cue	Neutral	True
124.38	3.9	Control	0.7692	0.001	Yes	2.97	0.0	n/a	GoodResponse	0	n/a	n/a	2	12	Fixation	Neutral	True
128.275	0.32	Control	0.7692	0.005	Yes	2.97	-0.005	1.0	GoodResponse	0	0.191	127.466	2	12	Target	Neutral	True
128.466	0.3	Control	0.7692	0.005	Yes	2.97	-0.005	1.0	GoodResponse	0	0.191	n/a	2	12	ButtonPress	Neutral	True
128.61	0.38	Control	0.7692	n/a	Yes	2.97	n/a	n/a	GoodResponse	0	n/a	n/a	2	12	Blank	Neutral	True
128.978	1.45	Control	0.7692	n/a	Yes	2.97	n/a	5.0	GoodResponse	0	0.02	127.998	2	12	Feedback	Neutral	True
130.432	2.97	Control	0.7692	n/a	Yes	2.97	n/a	n/a	GoodResponse	0	0.0	n/a	2	12	ISIslide	Neutral	True
133.424	0.25	Control	0.7857	0.0	Yes	2.776	0.024	n/a	GoodResponse	0	n/a	n/a	2	13	Cue	Neutral	True
133.675	4.0	Control	0.7857	0.0	Yes	2.776	0.001	n/a	GoodResponse	0	n/a	n/a	2	13	Fixation	Neutral	True
137.67	0.31	Control	0.7857	0.004	Yes	2.776	-0.004	1.0	GoodResponse	0	0.229	136.899	2	13	Target	Neutral	True
137.899	0.3	Control	0.7857	0.004	Yes	2.776	-0.004	1.0	GoodResponse	0	0.229	n/a	2	13	ButtonPress	Neutral	True
137.988	0.39	Control	0.7857	n/a	Yes	2.776	n/a	n/a	GoodResponse	0	n/a	n/a	2	13	Blank	Neutral	True
138.372	1.45	Control	0.7857	n/a	Yes	2.776	n/a	5.0	GoodResponse	0	0.041	137.413	2	13	Feedback	Neutral	True
139.827	2.776	Control	0.7857	n/a	Yes	2.776	n/a	n/a	GoodResponse	0	0.0	n/a	2	13	ISIslide	Neutral	True
142.618	0.25	Win2	0.8	0.001	Yes	2.682	0.018	n/a	GoodResponse	1	n/a	n/a	3	14	Cue	Win	True
142.869	4.1	Win2	0.8	0.0	Yes	2.682	0.001	n/a	GoodResponse	1	n/a	n/a	3	14	Fixation	Win	True
146.965	0.3	Win2	0.8	0.003	Yes	2.682	-0.003	1.0	GoodResponse	1	0.228	146.193	3	14	Target	Win	True
147.193	0.3	Win2	0.8	0.003	Yes	2.682	-0.003	1.0	GoodResponse	1	0.228	n/a	3	14	ButtonPress	Win	True
147.266	0.4	Win2	0.8	n/a	Yes	2.682	n/a	n/a	GoodResponse	1	n/a	n/a	3	14	Blank	Win	True
147.667	1.45	Win2	0.8	n/a	Yes	2.682	n/a	5.0	GoodResponse	1	0.014	146.681	3	14	Feedback	Win	True
149.121	2.682	Win2	0.8	n/a	Yes	2.682	n/a	n/a	GoodResponse	1	0.0	n/a	3	14	ISIslide	Win	True
151.829	0.25	Control	0.8125	0.001	Yes	2.971	0.029	n/a	GoodResponse	0	n/a	n/a	3	15	Cue	Neutral	True
152.08	4.0	Control	0.8125	0.0	Yes	2.971	0.001	n/a	GoodResponse	0	n/a	n/a	3	15	Fixation	Neutral	True
156.075	0.29	Control	0.8125	0.004	Yes	2.971	-0.004	1.0	GoodResponse	0	0.199	155.274	3	15	Target	Neutral	True
156.274	0.3	Control	0.8125	0.004	Yes	2.971	-0.004	1.0	GoodResponse	0	0.199	n/a	3	15	ButtonPress	Neutral	True
156.376	0.41	Control	0.8125	n/a	Yes	2.971	n/a	n/a	GoodResponse	0	n/a	n/a	3	15	Blank	Neutral	True
156.778	1.45	Control	0.8125	n/a	Yes	2.971	n/a	5.0	GoodResponse	0	0.025	155.803	3	15	Feedback	Neutral	True
158.232	2.971	Control	0.8125	n/a	Yes	2.971	n/a	n/a	GoodResponse	0	0.0	n/a	3	15	ISIslide	Neutral	True
161.224	0.25	Win2	0.8234999999999999	0.0	Yes	2.876	0.024	n/a	GoodResponse	1	n/a	n/a	4	16	Cue	Win	True
161.475	4.0	Win2	0.8234999999999999	0.0	Yes	2.876	0.001	n/a	GoodResponse	1	n/a	n/a	4	16	Fixation	Win	True
165.47	0.28	Win2	0.8234999999999999	0.004	Yes	2.876	-0.004	1.0	GoodResponse	1	0.23	164.7	4	16	Target	Win	True
165.7	0.3	Win2	0.8234999999999999	0.004	Yes	2.876	-0.004	1.0	GoodResponse	1	0.23	n/a	4	16	ButtonPress	Win	True
165.754	0.42	Win2	0.8234999999999999	n/a	Yes	2.876	n/a	n/a	GoodResponse	1	n/a	n/a	4	16	Blank	Win	True
166.172	1.45	Win2	0.8234999999999999	n/a	Yes	2.876	n/a	5.0	GoodResponse	1	0.046	165.218	4	16	Feedback	Win	True
167.627	2.876	Win2	0.8234999999999999	n/a	Yes	2.876	n/a	n/a	GoodResponse	1	0.0	n/a	4	16	ISIslide	Win	True
170.519	0.25	Lose2	0.8332999999999999	0.0	Yes	2.731	0.019	n/a	GoodResponse	0	n/a	n/a	4	17	Cue	AvoidedLoss	True
170.769	3.95	Lose2	0.8332999999999999	0.001	Yes	2.731	0.0	n/a	GoodResponse	0	n/a	n/a	4	17	Fixation	AvoidedLoss	True
174.715	0.27	Lose2	0.8332999999999999	0.004	Yes	2.731	-0.004	1.0	GoodResponse	0	0.231	173.946	4	17	Target	AvoidedLoss	True
174.946	0.3	Lose2	0.8332999999999999	0.004	Yes	2.731	-0.004	1.0	GoodResponse	0	0.231	n/a	4	17	ButtonPress	AvoidedLoss	True
174.999	0.43	Lose2	0.8332999999999999	n/a	Yes	2.731	n/a	n/a	GoodResponse	0	n/a	n/a	4	17	Blank	AvoidedLoss	True
175.417	1.45	Lose2	0.8332999999999999	n/a	Yes	2.731	n/a	5.0	GoodResponse	0	0.021	174.438	4	17	Feedback	AvoidedLoss	True
176.871	2.731	Lose2	0.8332999999999999	n/a	Yes	2.731	n/a	n/a	GoodResponse	0	0.0	n/a	4	17	ISIslide	AvoidedLoss	True
179.629	0.25	Lose2	0.8421	0.0	Yes	2.721	0.029	n/a	GoodResponse	0	n/a	n/a	4	18	Cue	AvoidedLoss	True
179.88	4.05	Lose2	0.8421	0.0	Yes	2.721	0.001	n/a	GoodResponse	0	n/a	n/a	4	18	Fixation	AvoidedLoss	True
183.926	0.26	Lose2	0.8421	0.003	Yes	2.721	-0.003	1.0	GoodResponse	0	0.24	183.166	4	18	Target	AvoidedLoss	True
184.166	0.3	Lose2	0.8421	0.003	Yes	2.721	-0.003	1.0	GoodResponse	0	0.24	n/a	4	18	ButtonPress	AvoidedLoss	True
184.193	0.44	Lose2	0.8421	n/a	Yes	2.721	n/a	n/a	GoodResponse	0	n/a	n/a	4	18	Blank	AvoidedLoss	True
184.628	1.45	Lose2	0.8421	n/a	Yes	2.721	n/a	5.0	GoodResponse	0	0.028	183.656	4	18	Feedback	AvoidedLoss	True
186.082	2.721	Lose2	0.8421	n/a	Yes	2.721	n/a	n/a	GoodResponse	0	0.0	n/a	4	18	ISIslide	AvoidedLoss	True
188.824	0.25	Control	0.8	0.0	No	2.926	0.024	n/a	NoResponse	0	n/a	n/a	4	19	Cue	Neutral	True
189.074	3.95	Control	0.8	0.0	No	2.926	0.0	n/a	NoResponse	0	n/a	n/a	4	19	Fixation	Neutral	True
193.036	0.25	Control	0.8	0.0	No	2.926	0.012	1.0	NoResponse	0	0.282	192.318	4	19	Target	Neutral	True
193.27	0.45	Control	0.8	n/a	No	2.926	n/a	n/a	NoResponse	0	n/a	n/a	4	19	Blank	Neutral	True
193.318	0.3	Control	0.8	0.0	No	2.926	0.012	1.0	NoResponse	0	0.282	n/a	4	19	ButtonPress	Neutral	True
193.722	1.45	Control	0.8	n/a	No	2.926	n/a	5.0	NoResponse	0	0.008	192.73	4	19	Feedback	Neutral	True
195.176	2.926	Control	0.8	n/a	No	2.926	n/a	n/a	NoResponse	0	0.0	n/a	4	19	ISIslide	Neutral	True
198.118	0.25	Control	0.8095	0.0	Yes	2.632	0.018	n/a	GoodResponse	0	n/a	n/a	4	20	Cue	Neutral	True
198.369	4.05	Control	0.8095	0.0	Yes	2.632	0.001	n/a	GoodResponse	0	n/a	n/a	4	20	Fixation	Neutral	True
202.414	0.24	Control	0.8095	0.004	Yes	2.632	-0.004	1.0	GoodResponse	0	0.102	201.516	4	20	Target	Neutral	True
202.516	0.3	Control	0.8095	0.004	Yes	2.632	-0.004	1.0	GoodResponse	0	0.102	n/a	4	20	ButtonPress	Neutral	True
202.665	0.46	Control	0.8095	n/a	Yes	2.632	n/a	n/a	GoodResponse	0	n/a	n/a	4	20	Blank	Neutral	True
203.116	1.45	Control	0.8095	n/a	Yes	2.632	n/a	5.0	GoodResponse	0	0.028	202.144	4	20	Feedback	Neutral	True
204.571	2.632	Control	0.8095	n/a	Yes	2.632	n/a	n/a	GoodResponse	0	0.0	n/a	4	20	ISIslide	Neutral	True
207.229	0.25	Control	0.8181999999999999	0.0	Yes	2.771	0.029	n/a	GoodResponse	0	n/a	n/a	4	21	Cue	Neutral	True
207.479	4.1	Control	0.8181999999999999	0.001	Yes	2.771	0.0	n/a	GoodResponse	0	n/a	n/a	4	21	Fixation	Neutral	True
211.575	0.23	Control	0.8181999999999999	0.004	Yes	2.771	-0.004	1.0	GoodResponse	0	0.215	210.79	4	21	Target	Neutral	True
211.79	0.3	Control	0.8181999999999999	0.004	Yes	2.771	-0.004	1.0	GoodResponse	0	0.215	n/a	4	21	ButtonPress	Neutral	True
211.809	0.47	Control	0.8181999999999999	n/a	Yes	2.771	n/a	n/a	GoodResponse	0	n/a	n/a	4	21	Blank	Neutral	True
212.277	1.45	Control	0.8181999999999999	n/a	Yes	2.771	n/a	5.0	GoodResponse	0	0.038	211.315	4	21	Feedback	Neutral	True
213.732	2.771	Control	0.8181999999999999	n/a	Yes	2.771	n/a	n/a	GoodResponse	0	0.0	n/a	4	21	ISIslide	Neutral	True
216.523	0.25	Control	0.7826000000000001	0.0	No	2.777	0.023	n/a	NoResponse	0	n/a	n/a	4	22	Cue	Neutral	True
216.774	4.0	Control	0.7826000000000001	0.0	No	2.777	0.001	n/a	NoResponse	0	n/a	n/a	4	22	Fixation	Neutral	True
220.769	0.22	Control	0.7826000000000001	0.004	No	2.777	-0.004	1.0	NoResponse	0	0.316	220.085	4	22	Target	Neutral	True
221.003	0.48	Control	0.7826000000000001	n/a	No	2.777	n/a	n/a	NoResponse	0	n/a	n/a	4	22	Blank	Neutral	True
221.085	0.3	Control	0.7826000000000001	0.004	No	2.777	-0.004	1.0	NoResponse	0	0.316	n/a	4	22	ButtonPress	Neutral	True
221.471	1.45	Control	0.7826000000000001	n/a	No	2.777	n/a	5.0	NoResponse	0	0.015	220.486	4	22	Feedback	Neutral	True
222.926	2.777	Control	0.7826000000000001	n/a	No	2.777	n/a	n/a	NoResponse	0	0.0	n/a	4	22	ISIslide	Neutral	True
225.717	0.25	Control	0.75	0.001	No	2.783	0.017	n/a	NoResponse	0	n/a	n/a	4	23	Cue	Neutral	True
225.968	3.9	Control	0.75	0.0	No	2.783	0.001	n/a	NoResponse	0	n/a	n/a	4	23	Fixation	Neutral	True
229.863	0.21	Control	0.75	0.004	No	2.783	-0.004	1.0	NoResponse	0	0.259	229.122	4	23	Target	Neutral	True
230.081	0.49	Control	0.75	n/a	No	2.783	n/a	n/a	NoResponse	0	n/a	n/a	4	23	Blank	Neutral	True
230.122	0.3	Control	0.75	0.004	No	2.783	-0.004	1.0	NoResponse	0	0.259	n/a	4	23	ButtonPress	Neutral	True
230.565	1.45	Control	0.75	n/a	No	2.783	n/a	5.0	NoResponse	0	0.043	229.608	4	23	Feedback	Neutral	True
232.02	2.783	Control	0.75	n/a	No	2.783	n/a	n/a	NoResponse	0	0.0	n/a	4	23	ISIslide	Neutral	True
234.828	0.25	Win2	0.76	0.0	Yes	3.122	0.028	n/a	GoodResponse	1	n/a	n/a	5	24	Cue	Win	True
235.079	3.95	Win2	0.76	0.0	Yes	3.122	0.001	n/a	GoodResponse	1	n/a	n/a	5	24	Fixation	Win	True
239.024	0.2	Win2	0.76	0.004	Yes	3.122	-0.004	1.0	GoodResponse	1	0.173	238.197	5	24	Target	Win	True
239.197	0.3	Win2	0.76	0.004	Yes	3.122	-0.004	1.0	GoodResponse	1	0.173	n/a	5	24	ButtonPress	Win	True
239.225	0.5	Win2	0.76	n/a	Yes	3.122	n/a	n/a	GoodResponse	1	n/a	n/a	5	24	Blank	Win	True
239.726	1.45	Win2	0.76	n/a	Yes	3.122	n/a	5.0	GoodResponse	1	0.007	238.733	5	24	Feedback	Win	True
241.18	3.122	Win2	0.76	n/a	Yes	3.122	n/a	n/a	GoodResponse	1	0.0	n/a	5	24	ISIslide	Win	True
244.323	0.25	Win2	0.7308	0.0	No	3.077	0.023	n/a	NoResponse	0	n/a	n/a	5	25	Cue	MissedWin	True
244.574	4.0	Win2	0.7308	0.0	No	3.077	0.001	n/a	NoResponse	0	n/a	n/a	5	25	Fixation	MissedWin	True
248.569	0.19	Win2	0.7308	0.004	No	3.077	-0.004	1.0	NoResponse	0	0.249	247.818	5	25	Target	MissedWin	True
248.77	0.51	Win2	0.7308	n/a	No	3.077	n/a	n/a	NoResponse	0	n/a	n/a	5	25	Blank	MissedWin	True
248.818	0.3	Win2	0.7308	0.004	No	3.077	-0.004	1.0	NoResponse	0	0.249	n/a	5	25	ButtonPress	MissedWin	True
249.271	1.45	Win2	0.7308	n/a	No	3.077	n/a	5.0	NoResponse	0	0.019	248.29	5	25	Feedback	MissedWin	True
250.726	3.077	Win2	0.7308	n/a	No	3.077	n/a	n/a	NoResponse	0	0.0	n/a	5	25	ISIslide	MissedWin	True
253.818	0.25	Win2	0.7037	0.0	No	2.932	0.018	n/a	NoResponse	0	n/a	n/a	5	26	Cue	MissedWin	True
254.069	3.95	Win2	0.7037	0.0	No	2.932	0.001	1.0	NoResponse	0	3.891	256.96	5	26	Fixation	MissedWin	True
257.96	0.3	Win2	0.7037	0.0	No	2.932	0.001	1.0	NoResponse	0	3.891	n/a	5	26	ButtonPress	MissedWin	True
258.014	0.18	Win2	0.7037	0.004	No	2.932	-0.004	n/a	NoResponse	0	n/a	n/a	5	26	Target	MissedWin	True
258.198	0.52	Win2	0.7037	n/a	No	2.932	n/a	n/a	NoResponse	0	n/a	n/a	5	26	Blank	MissedWin	True
258.716	1.45	Win2	0.7037	n/a	No	2.932	n/a	5.0	NoResponse	0	0.038	257.754	5	26	Feedback	MissedWin	True
260.171	2.932	Win2	0.7037	n/a	No	2.932	n/a	n/a	NoResponse	0	0.0	n/a	5	26	ISIslide	MissedWin	True
263.13	0.25	Lose2	0.6786	0.0	No	2.82	0.03	n/a	NoResponse	-1	n/a	n/a	4	27	Cue	Loss	True
263.38	4.05	Lose2	0.6786	0.0	No	2.82	0.0	n/a	NoResponse	-1	n/a	n/a	4	27	Fixation	Loss	True
267.426	0.17	Lose2	0.6786	0.004	No	2.82	-0.004	1.0	NoResponse	-1	0.266	266.692	4	27	Target	Loss	True
267.61	0.53	Lose2	0.6786	n/a	No	2.82	n/a	n/a	NoResponse	-1	n/a	n/a	4	27	Blank	Loss	True
267.692	0.3	Lose2	0.6786	0.004	No	2.82	-0.004	1.0	NoResponse	-1	0.266	n/a	4	27	ButtonPress	Loss	True
268.128	1.45	Lose2	0.6786	n/a	No	2.82	n/a	5.0	NoResponse	-1	0.04	267.168	4	27	Feedback	Loss	True
269.582	2.82	Lose2	0.6786	n/a	No	2.82	n/a	n/a	NoResponse	-1	0.0	n/a	4	27	ISIslide	Loss	True
272.424	0.25	Control	0.6552	0.0	No	2.826	0.024	n/a	NoResponse	0	n/a	n/a	4	28	Cue	Neutral	True
272.675	4.05	Control	0.6552	0.0	No	2.826	0.001	n/a	NoResponse	0	n/a	n/a	4	28	Fixation	Neutral	True
276.72	0.16	Control	0.6552	0.004	No	2.826	-0.004	1.0	NoResponse	0	0.338	276.058	4	28	Target	Neutral	True
276.887	0.54	Control	0.6552	n/a	No	2.826	n/a	n/a	NoResponse	0	n/a	n/a	4	28	Blank	Neutral	True
277.058	0.3	Control	0.6552	0.004	No	2.826	-0.004	1.0	NoResponse	0	0.338	n/a	4	28	ButtonPress	Neutral	True
277.422	1.45	Control	0.6552	n/a	No	2.826	n/a	5.0	NoResponse	0	0.015	276.437	4	28	Feedback	Neutral	True
278.877	2.826	Control	0.6552	n/a	No	2.826	n/a	n/a	NoResponse	0	0.0	n/a	4	28	ISIslide	Neutral	True
281.719	0.25	Lose2	0.6333	0.0	No	2.831	0.019	n/a	PrematurePress	-1	n/a	n/a	3	29	Cue	Loss	True
281.969	3.95	Lose2	0.6333	0.0	No	2.831	0.0	n/a	PrematurePress	-1	n/a	n/a	3	29	Fixation	Loss	True
285.915	0.16	Lose2	0.6333	0.004	No	2.831	-0.004	1.0	PrematurePress	-1	0.055	284.97	3	29	Target	Loss	True
285.97	0.3	Lose2	0.6333	0.004	No	2.831	-0.004	1.0	PrematurePress	-1	0.055	n/a	3	29	ButtonPress	Loss	True
286.082	0.54	Lose2	0.6333	n/a	No	2.831	n/a	n/a	PrematurePress	-1	n/a	n/a	3	29	Blank	Loss	True
286.617	1.45	Lose2	0.6333	n/a	No	2.831	n/a	5.0	PrematurePress	-1	0.039	285.656	3	29	Feedback	Loss	True
288.071	2.831	Lose2	0.6333	n/a	No	2.831	n/a	n/a	PrematurePress	-1	0.0	n/a	3	29	ISIslide	Loss	True
290.93	0.25	Win2	0.6129	0.0	No	2.77	0.03	n/a	NoResponse	0	n/a	n/a	3	30	Cue	MissedWin	True
291.18	3.9	Win2	0.6129	0.0	No	2.77	0.0	n/a	NoResponse	0	n/a	n/a	3	30	Fixation	MissedWin	True
295.092	0.17	Win2	0.6129	0.0	No	2.77	0.012	1.0	NoResponse	0	0.197	294.289	3	30	Target	MissedWin	True
295.259	0.53	Win2	0.6129	n/a	No	2.77	n/a	n/a	NoResponse	0	n/a	n/a	3	30	Blank	MissedWin	True
295.289	0.3	Win2	0.6129	0.0	No	2.77	0.012	1.0	NoResponse	0	0.197	n/a	3	30	ButtonPress	MissedWin	True
295.777	1.45	Win2	0.6129	n/a	No	2.77	n/a	5.0	NoResponse	0	0.001	294.778	3	30	Feedback	MissedWin	True
297.232	2.77	Win2	0.6129	n/a	No	2.77	n/a	n/a	NoResponse	0	0.0	n/a	3	30	ISIslide	MissedWin	True
300.023	0.25	Lose2	0.5938	0.001	No	2.827	0.023	n/a	NoResponse	-1	n/a	n/a	2	31	Cue	Loss	False
300.274	4.05	Lose2	0.5938	0.0	No	2.827	0.001	1.0	NoResponse	-1	3.447	302.721	2	31	Fixation	Loss	False
303.721	0.3	Lose2	0.5938	0.0	No	2.827	0.001	1.0	NoResponse	-1	3.447	n/a	2	31	ButtonPress	Loss	False
304.32	0.18	Lose2	0.5938	0.003	No	2.827	-0.003	1.0	NoResponse	-1	0.196	303.516	2	31	Target	Loss	False
304.504	0.52	Lose2	0.5938	n/a	No	2.827	n/a	n/a	NoResponse	-1	n/a	n/a	2	31	Blank	Loss	False
304.516	0.3	Lose2	0.5938	0.003	No	2.827	-0.003	1.0	NoResponse	-1	0.196	n/a	2	31	ButtonPress	Loss	False
305.022	1.45	Lose2	0.5938	n/a	No	2.827	n/a	5.0	NoResponse	-1	0.024	304.046	2	31	Feedback	Loss	False
306.476	2.827	Lose2	0.5938	n/a	No	2.827	n/a	n/a	NoResponse	-1	0.0	n/a	2	31	ISIslide	Loss	False
309.318	0.25	Lose2	0.5758	0.0	No	2.632	0.018	n/a	NoResponse	-1	n/a	n/a	1	32	Cue	Loss	False
309.569	4.15	Lose2	0.5758	0.0	No	2.632	0.001	1.0	NoResponse	-1	1.383	309.952	1	32	Fixation	Loss	False
310.952	0.3	Lose2	0.5758	0.0	No	2.632	0.001	1.0	NoResponse	-1	1.383	n/a	1	32	ButtonPress	Loss	False
313.714	0.19	Lose2	0.5758	0.004	No	2.632	-0.004	1.0	NoResponse	-1	0.314	313.028	1	32	Target	Loss	False
313.915	0.51	Lose2	0.5758	n/a	No	2.632	n/a	n/a	NoResponse	-1	n/a	n/a	1	32	Blank	Loss	False
314.028	0.3	Lose2	0.5758	0.004	No	2.632	-0.004	1.0	NoResponse	-1	0.314	n/a	1	32	ButtonPress	Loss	False
314.417	1.45	Lose2	0.5758	n/a	No	2.632	n/a	5.0	NoResponse	-1	0.044	313.461	1	32	Feedback	Loss	False
315.871	2.632	Lose2	0.5758	n/a	No	2.632	n/a	n/a	NoResponse	-1	0.0	n/a	1	32	ISIslide	Loss	False
318.529	0.25	Win2	0.5588000000000001	0.0	No	2.671	0.029	n/a	NoResponse	0	n/a	n/a	1	33	Cue	MissedWin	True
318.78	4.0	Win2	0.5588000000000001	0.0	No	2.671	0.001	n/a	NoResponse	0	n/a	n/a	1	33	Fixation	MissedWin	True
322.775	0.2	Win2	0.5588000000000001	0.004	No	2.671	-0.004	1.0	NoResponse	0	0.223	321.998	1	33	Target	MissedWin	True
322.976	0.5	Win2	0.5588000000000001	n/a	No	2.671	n/a	n/a	NoResponse	0	n/a	n/a	1	33	Blank	MissedWin	True
322.998	0.3	Win2	0.5588000000000001	0.004	No	2.671	-0.004	1.0	NoResponse	0	0.223	n/a	1	33	ButtonPress	MissedWin	True
323.477	1.45	Win2	0.5588000000000001	n/a	No	2.671	n/a	5.0	NoResponse	0	0.008	322.485	1	33	Feedback	MissedWin	True
324.931	2.671	Win2	0.5588000000000001	n/a	No	2.671	n/a	n/a	NoResponse	0	0.0	n/a	1	33	ISIslide	MissedWin	True
327.623	0.25	Lose2	0.5714	0.0	Yes	2.627	0.023	n/a	GoodResponse	0	n/a	n/a	1	34	Cue	AvoidedLoss	True
327.874	4.05	Lose2	0.5714	0.0	Yes	2.627	0.001	n/a	GoodResponse	0	n/a	n/a	1	34	Fixation	AvoidedLoss	True
331.919	0.21	Lose2	0.5714	0.004	Yes	2.627	-0.004	1.0	GoodResponse	0	0.154	331.073	1	34	Target	AvoidedLoss	True
332.073	0.3	Lose2	0.5714	0.004	Yes	2.627	-0.004	1.0	GoodResponse	0	0.154	n/a	1	34	ButtonPress	AvoidedLoss	True
332.136	0.49	Lose2	0.5714	n/a	Yes	2.627	n/a	n/a	GoodResponse	0	n/a	n/a	1	34	Blank	AvoidedLoss	True
332.621	1.45	Lose2	0.5714	n/a	Yes	2.627	n/a	5.0	GoodResponse	0	0.035	331.656	1	34	Feedback	AvoidedLoss	True
334.075	2.627	Lose2	0.5714	n/a	Yes	2.627	n/a	n/a	GoodResponse	0	0.0	n/a	1	34	ISIslide	AvoidedLoss	True
336.717	0.25	Lose2	0.5832999999999999	0.0	Yes	2.683	0.017	n/a	GoodResponse	0	n/a	n/a	1	35	Cue	AvoidedLoss	True
336.967	4.0	Lose2	0.5832999999999999	0.001	Yes	2.683	0.0	n/a	GoodResponse	0	n/a	n/a	1	35	Fixation	AvoidedLoss	True
340.963	0.22	Lose2	0.5832999999999999	0.004	Yes	2.683	-0.004	1.0	GoodResponse	0	0.191	340.154	1	35	Target	AvoidedLoss	True
341.154	0.3	Lose2	0.5832999999999999	0.004	Yes	2.683	-0.004	1.0	GoodResponse	0	0.191	n/a	1	35	ButtonPress	AvoidedLoss	True
341.197	0.48	Lose2	0.5832999999999999	n/a	Yes	2.683	n/a	n/a	GoodResponse	0	n/a	n/a	1	35	Blank	AvoidedLoss	True
341.665	1.45	Lose2	0.5832999999999999	n/a	Yes	2.683	n/a	5.0	GoodResponse	0	0.015	340.68	1	35	Feedback	AvoidedLoss	True
343.119	2.683	Lose2	0.5832999999999999	n/a	Yes	2.683	n/a	n/a	GoodResponse	0	0.0	n/a	1	35	ISIslide	AvoidedLoss	True
345.827	0.25	Control	0.5946	0.0	Yes	2.673	0.027	n/a	GoodResponse	0	n/a	n/a	1	36	Cue	Neutral	True
346.078	4.0	Control	0.5946	0.0	Yes	2.673	0.001	n/a	GoodResponse	0	n/a	n/a	1	36	Fixation	Neutral	True
350.073	0.23	Control	0.5946	0.004	Yes	2.673	-0.004	1.0	GoodResponse	0	0.228	349.301	1	36	Target	Neutral	True
350.301	0.3	Control	0.5946	0.004	Yes	2.673	-0.004	1.0	GoodResponse	0	0.228	n/a	1	36	ButtonPress	Neutral	True
350.307	0.47	Control	0.5946	n/a	Yes	2.673	n/a	n/a	GoodResponse	0	n/a	n/a	1	36	Blank	Neutral	True
350.776	1.45	Control	0.5946	n/a	Yes	2.673	n/a	5.0	GoodResponse	0	0.027	349.803	1	36	Feedback	Neutral	True
352.23	2.673	Control	0.5946	n/a	Yes	2.673	n/a	n/a	GoodResponse	0	0.0	n/a	1	36	ISIslide	Neutral	True
354.921	0.25	Win2	0.6053000000000001	0.0	Yes	2.879	0.021	n/a	GoodResponse	1	n/a	n/a	2	37	Cue	Win	True
355.172	4.0	Win2	0.6053000000000001	0.0	Yes	2.879	0.001	n/a	GoodResponse	1	n/a	n/a	2	37	Fixation	Win	True
359.167	0.24	Win2	0.6053000000000001	0.004	Yes	2.879	-0.004	1.0	GoodResponse	1	0.201	358.368	2	37	Target	Win	True
359.368	0.3	Win2	0.6053000000000001	0.004	Yes	2.879	-0.004	1.0	GoodResponse	1	0.201	n/a	2	37	ButtonPress	Win	True
359.418	0.46	Win2	0.6053000000000001	n/a	Yes	2.879	n/a	n/a	GoodResponse	1	n/a	n/a	2	37	Blank	Win	True
359.869	1.45	Win2	0.6053000000000001	n/a	Yes	2.879	n/a	5.0	GoodResponse	1	0.007	358.876	2	37	Feedback	Win	True
361.324	2.879	Win2	0.6053000000000001	n/a	Yes	2.879	n/a	n/a	GoodResponse	1	0.0	n/a	2	37	ISIslide	Win	True
364.216	0.25	Lose2	0.5897	0.0	No	2.834	0.016	n/a	NoResponse	-1	n/a	n/a	1	38	Cue	Loss	True
364.467	3.95	Lose2	0.5897	0.0	No	2.834	0.001	n/a	NoResponse	-1	n/a	n/a	1	38	Fixation	Loss	True
368.412	0.25	Lose2	0.5897	0.004	No	2.834	-0.004	1.0	NoResponse	-1	0.329	367.741	1	38	Target	Loss	True
368.662	0.45	Lose2	0.5897	n/a	No	2.834	n/a	n/a	NoResponse	-1	n/a	n/a	1	38	Blank	Loss	True
368.741	0.3	Lose2	0.5897	0.004	No	2.834	-0.004	1.0	NoResponse	-1	0.329	n/a	1	38	ButtonPress	Loss	True
369.114	1.45	Lose2	0.5897	n/a	No	2.834	n/a	5.0	NoResponse	-1	0.029	368.143	1	38	Feedback	Loss	True
370.568	2.834	Lose2	0.5897	n/a	No	2.834	n/a	n/a	NoResponse	-1	0.0	n/a	1	38	ISIslide	Loss	True
373.427	0.25	Win2	0.575	0.0	No	2.973	0.027	n/a	NoResponse	0	n/a	n/a	1	39	Cue	MissedWin	True
373.677	4.1	Win2	0.575	0.001	No	2.973	0.0	1.0	NoResponse	0	3.741	376.418	1	39	Fixation	MissedWin	True
377.418	0.3	Win2	0.575	0.001	No	2.973	0.0	1.0	NoResponse	0	3.741	n/a	1	39	ButtonPress	MissedWin	True
377.773	0.26	Win2	0.575	0.004	No	2.973	-0.004	n/a	NoResponse	0	n/a	n/a	1	39	Target	MissedWin	True
378.041	0.44	Win2	0.575	n/a	No	2.973	n/a	n/a	NoResponse	0	n/a	n/a	1	39	Blank	MissedWin	True
378.475	1.45	Win2	0.575	n/a	No	2.973	n/a	5.0	NoResponse	0	0.034	377.509	1	39	Feedback	MissedWin	True
379.93	2.973	Win2	0.575	n/a	No	2.973	n/a	n/a	NoResponse	0	0.0	n/a	1	39	ISIslide	MissedWin	True
382.922	0.25	Win2	0.5854	0.0	Yes	2.728	0.022	n/a	GoodResponse	1	n/a	n/a	2	40	Cue	Win	True
383.173	3.95	Win2	0.5854	0.0	Yes	2.728	0.001	n/a	GoodResponse	1	n/a	n/a	2	40	Fixation	Win	True
387.118	0.27	Win2	0.5854	0.004	Yes	2.728	-0.004	1.0	GoodResponse	1	0.197	386.315	2	40	Target	Win	True
387.315	0.3	Win2	0.5854	0.004	Yes	2.728	-0.004	1.0	GoodResponse	1	0.197	n/a	2	40	ButtonPress	Win	True
387.402	0.43	Win2	0.5854	n/a	Yes	2.728	n/a	n/a	GoodResponse	1	n/a	n/a	2	40	Blank	Win	True
387.82	1.45	Win2	0.5854	n/a	Yes	2.728	n/a	5.0	GoodResponse	1	0.007	386.827	2	40	Feedback	Win	True
389.274	2.728	Win2	0.5854	n/a	Yes	2.728	n/a	n/a	GoodResponse	1	0.0	n/a	2	40	ISIslide	Win	True
392.016	0.25	Win2	0.5952000000000001	0.0	Yes	2.784	0.016	n/a	GoodResponse	1	n/a	n/a	3	41	Cue	Win	True
392.267	3.9	Win2	0.5952000000000001	0.0	Yes	2.784	0.001	n/a	GoodResponse	1	n/a	n/a	3	41	Fixation	Win	True
396.162	0.28	Win2	0.5952000000000001	0.004	Yes	2.784	-0.004	1.0	GoodResponse	1	0.213	395.375	3	41	Target	Win	True
396.375	0.3	Win2	0.5952000000000001	0.004	Yes	2.784	-0.004	1.0	GoodResponse	1	0.213	n/a	3	41	ButtonPress	Win	True
396.446	0.42	Win2	0.5952000000000001	n/a	Yes	2.784	n/a	n/a	GoodResponse	1	n/a	n/a	3	41	Blank	Win	True
396.864	1.45	Win2	0.5952000000000001	n/a	Yes	2.784	n/a	5.0	GoodResponse	1	0.036	395.9	3	41	Feedback	Win	True
398.318	2.784	Win2	0.5952000000000001	n/a	Yes	2.784	n/a	n/a	GoodResponse	1	0.0	n/a	3	41	ISIslide	Win	True
401.126	0.25	Control	0.6047	0.0	Yes	2.924	0.026	n/a	GoodResponse	0	n/a	n/a	3	42	Cue	Neutral	True
401.377	3.85	Control	0.6047	0.0	Yes	2.924	0.001	n/a	GoodResponse	0	n/a	n/a	3	42	Fixation	Neutral	True
405.222	0.29	Control	0.6047	0.004	Yes	2.924	-0.004	1.0	GoodResponse	0	0.276	404.498	3	42	Target	Neutral	True
405.498	0.3	Control	0.6047	0.004	Yes	2.924	-0.004	1.0	GoodResponse	0	0.276	n/a	3	42	ButtonPress	Neutral	True
405.523	0.41	Control	0.6047	n/a	Yes	2.924	n/a	n/a	GoodResponse	0	n/a	n/a	3	42	Blank	Neutral	True
405.924	1.45	Control	0.6047	n/a	Yes	2.924	n/a	5.0	GoodResponse	0	0.049	404.973	3	42	Feedback	Neutral	True
407.378	2.924	Control	0.6047	n/a	Yes	2.924	n/a	4.0	GoodResponse	0	0.036	n/a	3	42	ISIslide	Neutral	True
410.304	0.25	Win2	0.6136	0.0	Yes	3.196	0.004	n/a	GoodResponse	1	n/a	n/a	4	43	Cue	Win	True
410.555	4.0	Win2	0.6136	0.0	Yes	3.196	0.001	n/a	GoodResponse	1	n/a	n/a	4	43	Fixation	Win	True
414.55	0.3	Win2	0.6136	0.004	Yes	3.196	-0.004	1.0	GoodResponse	1	0.181	413.731	4	43	Target	Win	True
414.731	0.3	Win2	0.6136	0.004	Yes	3.196	-0.004	1.0	GoodResponse	1	0.181	n/a	4	43	ButtonPress	Win	True
414.851	0.4	Win2	0.6136	n/a	Yes	3.196	n/a	n/a	GoodResponse	1	n/a	n/a	4	43	Blank	Win	True
415.252	1.45	Win2	0.6136	n/a	Yes	3.196	n/a	5.0	GoodResponse	1	0.038	414.29	4	43	Feedback	Win	True
416.706	3.196	Win2	0.6136	n/a	Yes	3.196	n/a	n/a	GoodResponse	1	0.0	n/a	4	43	ISIslide	Win	True
419.916	0.25	Win2	0.6222	0.0	Yes	2.984	0.016	n/a	GoodResponse	1	n/a	n/a	5	44	Cue	Win	True
420.167	4.0	Win2	0.6222	0.0	Yes	2.984	0.001	n/a	GoodResponse	1	n/a	n/a	5	44	Fixation	Win	True
424.162	0.31	Win2	0.6222	0.004	Yes	2.984	-0.004	1.0	GoodResponse	1	0.265	423.427	5	44	Target	Win	True
424.427	0.3	Win2	0.6222	0.004	Yes	2.984	-0.004	1.0	GoodResponse	1	0.265	n/a	5	44	ButtonPress	Win	True
424.48	0.39	Win2	0.6222	n/a	Yes	2.984	n/a	n/a	GoodResponse	1	n/a	n/a	5	44	Blank	Win	True
424.864	1.45	Win2	0.6222	n/a	Yes	2.984	n/a	5.0	GoodResponse	1	0.035	423.899	5	44	Feedback	Win	True
426.319	2.984	Win2	0.6222	n/a	Yes	2.984	n/a	n/a	GoodResponse	1	0.0	n/a	5	44	ISIslide	Win	True
429.328	0.25	Control	0.6304	0.0	Yes	2.872	0.028	n/a	GoodResponse	0	n/a	n/a	5	45	Cue	Neutral	True
429.578	4.1	Control	0.6304	0.0	Yes	2.872	0.0	n/a	GoodResponse	0	n/a	n/a	5	45	Fixation	Neutral	True
433.674	0.32	Control	0.6304	0.004	Yes	2.872	-0.004	1.0	GoodResponse	0	0.2	432.874	5	45	Target	Neutral	True
433.874	0.3	Control	0.6304	0.004	Yes	2.872	-0.004	1.0	GoodResponse	0	0.2	n/a	5	45	ButtonPress	Neutral	True
434.008	0.38	Control	0.6304	n/a	Yes	2.872	n/a	n/a	GoodResponse	0	n/a	n/a	5	45	Blank	Neutral	True
434.376	1.45	Control	0.6304	n/a	Yes	2.872	n/a	5.0	GoodResponse	0	0.035	433.411	5	45	Feedback	Neutral	True
435.83	2.872	Control	0.6304	n/a	Yes	2.872	n/a	n/a	GoodResponse	0	0.0	n/a	5	45	ISIslide	Neutral	True
438.722	0.25	Lose2	0.6383	0.0	Yes	3.378	0.022	n/a	GoodResponse	0	n/a	n/a	5	46	Cue	AvoidedLoss	False
438.973	4.0	Lose2	0.6383	0.0	Yes	3.378	0.001	1.0	GoodResponse	0	3.956	441.929	5	46	Fixation	AvoidedLoss	False
442.929	0.3	Lose2	0.6383	0.0	Yes	3.378	0.001	1.0	GoodResponse	0	3.956	n/a	5	46	ButtonPress	AvoidedLoss	False
442.968	0.33	Lose2	0.6383	0.004	Yes	3.378	-0.004	1.0	GoodResponse	0	0.222	442.19	5	46	Target	AvoidedLoss	False
443.19	0.3	Lose2	0.6383	0.004	Yes	3.378	-0.004	1.0	GoodResponse	0	0.222	n/a	5	46	ButtonPress	AvoidedLoss	False
443.303	0.37	Lose2	0.6383	n/a	Yes	3.378	n/a	n/a	GoodResponse	0	n/a	n/a	5	46	Blank	AvoidedLoss	False
443.671	1.45	Lose2	0.6383	n/a	Yes	3.378	n/a	5.0	GoodResponse	0	0.009	442.68	5	46	Feedback	AvoidedLoss	False
445.125	3.378	Lose2	0.6383	n/a	Yes	3.378	n/a	n/a	GoodResponse	0	0.0	n/a	5	46	ISIslide	AvoidedLoss	False
448.518	0.25	Lose2	0.6457999999999999	0.0	Yes	2.682	0.018	n/a	GoodResponse	0	n/a	n/a	5	47	Cue	AvoidedLoss	True
448.769	4.0	Lose2	0.6457999999999999	0.0	Yes	2.682	0.001	n/a	GoodResponse	0	n/a	n/a	5	47	Fixation	AvoidedLoss	True
452.764	0.34	Lose2	0.6457999999999999	0.004	Yes	2.682	-0.004	1.0	GoodResponse	0	0.272	452.036	5	47	Target	AvoidedLoss	True
453.036	0.3	Lose2	0.6457999999999999	0.004	Yes	2.682	-0.004	1.0	GoodResponse	0	0.272	n/a	5	47	ButtonPress	AvoidedLoss	True
453.116	0.36	Lose2	0.6457999999999999	n/a	Yes	2.682	n/a	n/a	GoodResponse	0	n/a	n/a	5	47	Blank	AvoidedLoss	True
453.467	1.45	Lose2	0.6457999999999999	n/a	Yes	2.682	n/a	5.0	GoodResponse	0	0.018	452.485	5	47	Feedback	AvoidedLoss	True
454.921	2.682	Lose2	0.6457999999999999	n/a	Yes	2.682	n/a	n/a	GoodResponse	0	0.0	n/a	5	47	ISIslide	AvoidedLoss	True
457.629	0.25	Lose2	0.6531	0.0	Yes	3.021	0.029	n/a	GoodResponse	0	n/a	n/a	5	48	Cue	AvoidedLoss	True
457.88	3.95	Lose2	0.6531	0.0	Yes	3.021	0.001	n/a	GoodResponse	0	n/a	n/a	5	48	Fixation	AvoidedLoss	True
461.825	0.35	Lose2	0.6531	0.004	Yes	3.021	-0.004	1.0	GoodResponse	0	0.23	461.055	5	48	Target	AvoidedLoss	True
462.055	0.3	Lose2	0.6531	0.004	Yes	3.021	-0.004	1.0	GoodResponse	0	0.23	n/a	5	48	ButtonPress	AvoidedLoss	True
462.176	0.35	Lose2	0.6531	n/a	Yes	3.021	n/a	n/a	GoodResponse	0	n/a	n/a	5	48	Blank	AvoidedLoss	True
462.527	1.45	Lose2	0.6531	n/a	Yes	3.021	n/a	5.0	GoodResponse	0	0.031	461.558	5	48	Feedback	AvoidedLoss	True
463.981	3.021	Lose2	0.6531	n/a	Yes	3.021	n/a	n/a	GoodResponse	0	0.0	n/a	5	48	ISIslide	AvoidedLoss	True
467.024	0.25	Control	0.66	0.0	Yes	2.876	0.024	n/a	GoodResponse	0	n/a	n/a	5	49	Cue	Neutral	True
467.275	4.0	Control	0.66	0.0	Yes	2.876	0.001	n/a	GoodResponse	0	n/a	n/a	5	49	Fixation	Neutral	True
471.27	0.36	Control	0.66	0.004	Yes	2.876	-0.004	1.0	GoodResponse	0	0.227	470.497	5	49	Target	Neutral	True
471.497	0.3	Control	0.66	0.004	Yes	2.876	-0.004	1.0	GoodResponse	0	0.227	n/a	5	49	ButtonPress	Neutral	True
471.638	0.34	Control	0.66	n/a	Yes	2.876	n/a	n/a	GoodResponse	0	n/a	n/a	5	49	Blank	Neutral	True
471.972	1.45	Control	0.66	n/a	Yes	2.876	n/a	5.0	GoodResponse	0	0.001	470.973	5	49	Feedback	Neutral	True
473.426	2.876	Control	0.66	n/a	Yes	2.876	n/a	n/a	GoodResponse	0	0.0	n/a	5	49	ISIslide	Neutral	True
476.318	0.25	Control	0.6667000000000001	0.0	Yes	2.782	0.018	n/a	GoodResponse	0	n/a	n/a	5	50	Cue	Neutral	True
476.569	4.0	Control	0.6667000000000001	0.0	Yes	2.782	0.001	n/a	GoodResponse	0	n/a	n/a	5	50	Fixation	Neutral	True
480.564	0.36	Control	0.6667000000000001	0.004	Yes	2.782	-0.004	1.0	GoodResponse	0	0.248	479.812	5	50	Target	Neutral	True
480.812	0.3	Control	0.6667000000000001	0.004	Yes	2.782	-0.004	1.0	GoodResponse	0	0.248	n/a	5	50	ButtonPress	Neutral	True
480.932	0.34	Control	0.6667000000000001	n/a	Yes	2.782	n/a	n/a	GoodResponse	0	n/a	n/a	5	50	Blank	Neutral	True
481.267	1.45	Control	0.6667000000000001	n/a	Yes	2.782	n/a	5.0	GoodResponse	0	0.022	480.289	5	50	Feedback	Neutral	True
482.721	2.782	Control	0.6667000000000001	n/a	Yes	2.782	n/a	n/a	GoodResponse	0	0.0	n/a	5	50	ISIslide	Neutral	True
485.529	0.25	Control	0.6731	0.0	Yes	2.721	0.029	n/a	GoodResponse	0	n/a	n/a	5	51	Cue	Neutral	True
485.78	3.95	Control	0.6731	0.0	Yes	2.721	0.001	n/a	GoodResponse	0	n/a	n/a	5	51	Fixation	Neutral	True
489.725	0.35	Control	0.6731	0.004	Yes	2.721	-0.004	1.0	GoodResponse	0	0.203	488.928	5	51	Target	Neutral	True
489.928	0.3	Control	0.6731	0.004	Yes	2.721	-0.004	1.0	GoodResponse	0	0.203	n/a	5	51	ButtonPress	Neutral	True
490.076	0.35	Control	0.6731	n/a	Yes	2.721	n/a	n/a	GoodResponse	0	n/a	n/a	5	51	Blank	Neutral	True
490.427	1.45	Control	0.6731	n/a	Yes	2.721	n/a	5.0	GoodResponse	0	0.033	489.46	5	51	Feedback	Neutral	True
491.882	2.721	Control	0.6731	n/a	Yes	2.721	n/a	n/a	GoodResponse	0	0.0	n/a	5	51	ISIslide	Neutral	True
494.623	0.25	Control	0.6792	0.0	Yes	2.627	0.023	n/a	GoodResponse	0	n/a	n/a	5	52	Cue	Neutral	True
494.874	4.05	Control	0.6792	0.0	Yes	2.627	0.001	n/a	GoodResponse	0	n/a	n/a	5	52	Fixation	Neutral	True
498.919	0.34	Control	0.6792	0.004	Yes	2.627	-0.004	1.0	GoodResponse	0	0.222	498.141	5	52	Target	Neutral	True
499.141	0.3	Control	0.6792	0.004	Yes	2.627	-0.004	1.0	GoodResponse	0	0.222	n/a	5	52	ButtonPress	Neutral	True
499.27	0.36	Control	0.6792	n/a	Yes	2.627	n/a	n/a	GoodResponse	0	n/a	n/a	5	52	Blank	Neutral	True
499.622	1.45	Control	0.6792	n/a	Yes	2.627	n/a	5.0	GoodResponse	0	0.008	498.63	5	52	Feedback	Neutral	True
501.076	2.627	Control	0.6792	n/a	Yes	2.627	n/a	n/a	GoodResponse	0	0.0	n/a	5	52	ISIslide	Neutral	True
503.717	0.25	Win2	0.6851999999999999	0.0	Yes	2.933	0.017	n/a	GoodResponse	1	n/a	n/a	6	53	Cue	Win	True
503.968	4.05	Win2	0.6851999999999999	0.0	Yes	2.933	0.001	n/a	GoodResponse	1	n/a	n/a	6	53	Fixation	Win	True
508.013	0.33	Win2	0.6851999999999999	0.004	Yes	2.933	-0.004	1.0	GoodResponse	1	0.205	507.218	6	53	Target	Win	True
508.218	0.3	Win2	0.6851999999999999	0.004	Yes	2.933	-0.004	1.0	GoodResponse	1	0.205	n/a	6	53	ButtonPress	Win	True
508.348	0.37	Win2	0.6851999999999999	n/a	Yes	2.933	n/a	n/a	GoodResponse	1	n/a	n/a	6	53	Blank	Win	True
508.715	1.45	Win2	0.6851999999999999	n/a	Yes	2.933	n/a	5.0	GoodResponse	1	0.037	507.752	6	53	Feedback	Win	True
510.17	2.933	Win2	0.6851999999999999	n/a	Yes	2.933	n/a	n/a	GoodResponse	1	0.0	n/a	6	53	ISIslide	Win	True
513.129	0.25	Win2	0.6909000000000001	0.0	Yes	2.721	0.029	n/a	GoodResponse	1	n/a	n/a	7	54	Cue	Win	True
513.379	3.95	Win2	0.6909000000000001	0.0	Yes	2.721	0.0	n/a	GoodResponse	1	n/a	n/a	7	54	Fixation	Win	True
517.325	0.32	Win2	0.6909000000000001	0.004	Yes	2.721	-0.004	1.0	GoodResponse	1	0.268	516.593	7	54	Target	Win	True
517.593	0.3	Win2	0.6909000000000001	0.004	Yes	2.721	-0.004	1.0	GoodResponse	1	0.268	n/a	7	54	ButtonPress	Win	True
517.659	0.38	Win2	0.6909000000000001	n/a	Yes	2.721	n/a	n/a	GoodResponse	1	n/a	n/a	7	54	Blank	Win	True
518.027	1.45	Win2	0.6909000000000001	n/a	Yes	2.721	n/a	5.0	GoodResponse	1	0.043	517.07	7	54	Feedback	Win	True
519.481	2.721	Win2	0.6909000000000001	n/a	Yes	2.721	n/a	n/a	GoodResponse	1	0.0	n/a	7	54	ISIslide	Win	True
522.223	0.25	Control	0.6786	0.0	No	3.027	0.023	n/a	NoResponse	0	n/a	n/a	7	55	Cue	Neutral	True
522.473	3.95	Control	0.6786	0.0	No	3.027	0.0	n/a	NoResponse	0	n/a	n/a	7	55	Fixation	Neutral	True
526.435	0.31	Control	0.6786	0.0	No	3.027	0.012	1.0	NoResponse	0	0.377	525.812	7	55	Target	Neutral	True
526.736	0.39	Control	0.6786	n/a	No	3.027	n/a	n/a	NoResponse	0	n/a	n/a	7	55	Blank	Neutral	True
526.812	0.3	Control	0.6786	0.0	No	3.027	0.012	1.0	NoResponse	0	0.377	n/a	7	55	ButtonPress	Neutral	True
527.121	1.45	Control	0.6786	n/a	No	3.027	n/a	5.0	NoResponse	0	0.022	526.143	7	55	Feedback	Neutral	True
528.575	3.027	Control	0.6786	n/a	No	3.027	n/a	n/a	NoResponse	0	0.0	n/a	7	55	ISIslide	Neutral	True
531.617	0.25	Control	0.6667000000000001	0.0	No	2.833	0.017	n/a	NoResponse	0	n/a	n/a	7	56	Cue	Neutral	True
531.868	3.95	Control	0.6667000000000001	0.0	No	2.833	0.001	n/a	NoResponse	0	n/a	n/a	7	56	Fixation	Neutral	True
535.813	0.3	Control	0.6667000000000001	0.004	No	2.833	-0.004	1.0	NoResponse	0	0.311	535.124	7	56	Target	Neutral	True
536.114	0.4	Control	0.6667000000000001	n/a	No	2.833	n/a	n/a	NoResponse	0	n/a	n/a	7	56	Blank	Neutral	True
536.124	0.3	Control	0.6667000000000001	0.004	No	2.833	-0.004	1.0	NoResponse	0	0.311	n/a	7	56	ButtonPress	Neutral	True
536.515	1.45	Control	0.6667000000000001	n/a	No	2.833	n/a	5.0	NoResponse	0	0.043	535.558	7	56	Feedback	Neutral	True
537.97	2.833	Control	0.6667000000000001	n/a	No	2.833	n/a	n/a	NoResponse	0	0.0	n/a	7	56	ISIslide	Neutral	True
540.828	0.25	Control	0.6724	0.0	Yes	3.472	0.028	n/a	GoodResponse	0	n/a	n/a	7	57	Cue	Neutral	True
541.079	4.0	Control	0.6724	0.0	Yes	3.472	0.001	n/a	GoodResponse	0	n/a	n/a	7	57	Fixation	Neutral	True
545.074	0.29	Control	0.6724	0.004	Yes	3.472	-0.004	1.0	GoodResponse	0	0.225	544.299	7	57	Target	Neutral	True
545.299	0.3	Control	0.6724	0.004	Yes	3.472	-0.004	1.0	GoodResponse	0	0.225	n/a	7	57	ButtonPress	Neutral	True
545.375	0.41	Control	0.6724	n/a	Yes	3.472	n/a	n/a	GoodResponse	0	n/a	n/a	7	57	Blank	Neutral	True
545.776	1.45	Control	0.6724	n/a	Yes	3.472	n/a	5.0	GoodResponse	0	0.049	544.825	7	57	Feedback	Neutral	True
547.231	3.472	Control	0.6724	n/a	Yes	3.472	n/a	n/a	GoodResponse	0	0.0	n/a	7	57	ISIslide	Neutral	True
550.725	0.25	Win2	0.6779999999999999	0.0	Yes	2.725	0.025	n/a	GoodResponse	1	n/a	n/a	8	58	Cue	Win	True
550.975	4.05	Win2	0.6779999999999999	0.0	Yes	2.725	0.0	n/a	GoodResponse	1	n/a	n/a	8	58	Fixation	Win	True
555.021	0.28	Win2	0.6779999999999999	0.004	Yes	2.725	-0.004	1.0	GoodResponse	1	0.191	554.212	8	58	Target	Win	True
555.212	0.3	Win2	0.6779999999999999	0.004	Yes	2.725	-0.004	1.0	GoodResponse	1	0.191	n/a	8	58	ButtonPress	Win	True
555.305	0.42	Win2	0.6779999999999999	n/a	Yes	2.725	n/a	n/a	GoodResponse	1	n/a	n/a	8	58	Blank	Win	True
555.723	1.45	Win2	0.6779999999999999	n/a	Yes	2.725	n/a	5.0	GoodResponse	1	0.006	554.729	8	58	Feedback	Win	True
557.177	2.725	Win2	0.6779999999999999	n/a	Yes	2.725	n/a	n/a	GoodResponse	1	0.0	n/a	8	58	ISIslide	Win	True
559.919	0.25	Lose2	0.6833	0.0	Yes	2.681	0.019	n/a	GoodResponse	0	n/a	n/a	8	59	Cue	AvoidedLoss	True
560.17	4.0	Lose2	0.6833	0.0	Yes	2.681	0.001	n/a	GoodResponse	0	n/a	n/a	8	59	Fixation	AvoidedLoss	True
564.165	0.27	Lose2	0.6833	0.004	Yes	2.681	-0.004	1.0	GoodResponse	0	0.266	563.431	8	59	Target	AvoidedLoss	True
564.431	0.3	Lose2	0.6833	0.004	Yes	2.681	-0.004	1.0	GoodResponse	0	0.266	n/a	8	59	ButtonPress	AvoidedLoss	True
564.449	0.43	Lose2	0.6833	n/a	Yes	2.681	n/a	n/a	GoodResponse	0	n/a	n/a	8	59	Blank	AvoidedLoss	True
564.867	1.45	Lose2	0.6833	n/a	Yes	2.681	n/a	5.0	GoodResponse	0	0.031	563.898	8	59	Feedback	AvoidedLoss	True
566.321	2.681	Lose2	0.6833	n/a	Yes	2.681	n/a	n/a	GoodResponse	0	0.0	n/a	8	59	ISIslide	AvoidedLoss	True
569.03	0.25	Control	0.6884999999999999	0.0	Yes	2.67	0.03	n/a	GoodResponse	0	n/a	n/a	8	60	Cue	Neutral	True
569.28	4.0	Control	0.6884999999999999	0.0	Yes	2.67	0.0	n/a	GoodResponse	0	n/a	n/a	8	60	Fixation	Neutral	True
573.276	0.26	Control	0.6884999999999999	0.004	Yes	2.67	-0.004	1.0	GoodResponse	0	0.209	572.485	8	60	Target	Neutral	True
573.485	0.3	Control	0.6884999999999999	0.004	Yes	2.67	-0.004	1.0	GoodResponse	0	0.209	n/a	8	60	ButtonPress	Neutral	True
573.543	0.44	Control	0.6884999999999999	n/a	Yes	2.67	n/a	n/a	GoodResponse	0	n/a	n/a	8	60	Blank	Neutral	True
573.978	1.45	Control	0.6884999999999999	n/a	Yes	2.67	n/a	5.0	GoodResponse	0	0.042	573.02	8	60	Feedback	Neutral	True
575.432	2.67	Control	0.6884999999999999	n/a	Yes	2.67	n/a	n/a	GoodResponse	0	0.0	n/a	8	60	ISIslide	Neutral	True
578.123	0.25	Lose2	0.6934999999999999	0.001	Yes	2.977	0.023	n/a	GoodResponse	0	n/a	n/a	8	61	Cue	AvoidedLoss	True
578.374	4.0	Lose2	0.6934999999999999	0.0	Yes	2.977	0.001	n/a	GoodResponse	0	n/a	n/a	8	61	Fixation	AvoidedLoss	True
582.369	0.25	Lose2	0.6934999999999999	0.004	Yes	2.977	-0.004	1.0	GoodResponse	0	0.225	581.594	8	61	Target	AvoidedLoss	True
582.594	0.3	Lose2	0.6934999999999999	0.004	Yes	2.977	-0.004	1.0	GoodResponse	0	0.225	n/a	8	61	ButtonPress	AvoidedLoss	True
582.62	0.45	Lose2	0.6934999999999999	n/a	Yes	2.977	n/a	n/a	GoodResponse	0	n/a	n/a	8	61	Blank	AvoidedLoss	True
583.072	1.45	Lose2	0.6934999999999999	n/a	Yes	2.977	n/a	5.0	GoodResponse	0	0.022	582.094	8	61	Feedback	AvoidedLoss	True
584.526	2.977	Lose2	0.6934999999999999	n/a	Yes	2.977	n/a	n/a	GoodResponse	0	0.0	n/a	8	61	ISIslide	AvoidedLoss	True
587.518	0.25	Lose2	0.6984	0.0	Yes	2.882	0.018	n/a	GoodResponse	0	n/a	n/a	8	62	Cue	AvoidedLoss	True
587.769	3.9	Lose2	0.6984	0.0	Yes	2.882	0.001	n/a	GoodResponse	0	n/a	n/a	8	62	Fixation	AvoidedLoss	True
591.664	0.24	Lose2	0.6984	0.004	Yes	2.882	-0.004	1.0	GoodResponse	0	0.217	590.881	8	62	Target	AvoidedLoss	True
591.881	0.3	Lose2	0.6984	0.004	Yes	2.882	-0.004	1.0	GoodResponse	0	0.217	n/a	8	62	ButtonPress	AvoidedLoss	True
591.915	0.46	Lose2	0.6984	n/a	Yes	2.882	n/a	n/a	GoodResponse	0	n/a	n/a	8	62	Blank	AvoidedLoss	True
592.366	1.45	Lose2	0.6984	n/a	Yes	2.882	n/a	5.0	GoodResponse	0	0.045	591.411	8	62	Feedback	AvoidedLoss	True
593.82	2.882	Lose2	0.6984	n/a	Yes	2.882	n/a	n/a	GoodResponse	0	0.0	n/a	8	62	ISIslide	AvoidedLoss	True
596.729	0.25	Lose2	0.7031000000000001	0.0	Yes	2.621	0.029	n/a	GoodResponse	0	n/a	n/a	8	63	Cue	AvoidedLoss	True
596.98	4.05	Lose2	0.7031000000000001	0.0	Yes	2.621	0.001	n/a	GoodResponse	0	n/a	n/a	8	63	Fixation	AvoidedLoss	True
601.025	0.23	Lose2	0.7031000000000001	0.004	Yes	2.621	-0.004	1.0	GoodResponse	0	0.204	600.229	8	63	Target	AvoidedLoss	True
601.229	0.3	Lose2	0.7031000000000001	0.004	Yes	2.621	-0.004	1.0	GoodResponse	0	0.204	n/a	8	63	ButtonPress	AvoidedLoss	True
601.259	0.47	Lose2	0.7031000000000001	n/a	Yes	2.621	n/a	n/a	GoodResponse	0	n/a	n/a	8	63	Blank	AvoidedLoss	True
601.727	1.45	Lose2	0.7031000000000001	n/a	Yes	2.621	n/a	5.0	GoodResponse	0	0.049	600.776	8	63	Feedback	AvoidedLoss	True
603.182	2.621	Lose2	0.7031000000000001	n/a	Yes	2.621	n/a	n/a	GoodResponse	0	0.0	n/a	8	63	ISIslide	AvoidedLoss	True
605.823	0.25	Win2	0.7077	0.0	Yes	3.127	0.023	n/a	GoodResponse	1	n/a	n/a	9	64	Cue	Win	True
606.074	4.15	Win2	0.7077	0.0	Yes	3.127	0.001	n/a	GoodResponse	1	n/a	n/a	9	64	Fixation	Win	True
610.22	0.22	Win2	0.7077	0.003	Yes	3.127	-0.003	1.0	GoodResponse	1	0.196	609.416	9	64	Target	Win	True
610.416	0.3	Win2	0.7077	0.003	Yes	3.127	-0.003	1.0	GoodResponse	1	0.196	n/a	9	64	ButtonPress	Win	True
610.454	0.48	Win2	0.7077	n/a	Yes	3.127	n/a	n/a	GoodResponse	1	n/a	n/a	9	64	Blank	Win	True
610.922	1.45	Win2	0.7077	n/a	Yes	3.127	n/a	5.0	GoodResponse	1	0.025	609.947	9	64	Feedback	Win	True
612.376	3.127	Win2	0.7077	n/a	Yes	3.127	n/a	n/a	GoodResponse	1	0.0	n/a	9	64	ISIslide	Win	True
615.519	0.25	Control	0.6970000000000001	0.0	No	2.781	0.019	n/a	NoResponse	0	n/a	n/a	9	65	Cue	Neutral	True
615.77	4.0	Control	0.6970000000000001	0.0	No	2.781	0.001	n/a	NoResponse	0	n/a	n/a	9	65	Fixation	Neutral	True
619.765	0.21	Control	0.6970000000000001	0.004	No	2.781	-0.004	1.0	NoResponse	0	0.283	619.048	9	65	Target	Neutral	True
619.982	0.49	Control	0.6970000000000001	n/a	No	2.781	n/a	n/a	NoResponse	0	n/a	n/a	9	65	Blank	Neutral	True
620.048	0.3	Control	0.6970000000000001	0.004	No	2.781	-0.004	1.0	NoResponse	0	0.283	n/a	9	65	ButtonPress	Neutral	True
620.467	1.45	Control	0.6970000000000001	n/a	No	2.781	n/a	5.0	NoResponse	0	0.041	619.508	9	65	Feedback	Neutral	True
621.921	2.781	Control	0.6970000000000001	n/a	No	2.781	n/a	n/a	NoResponse	0	0.0	n/a	9	65	ISIslide	Neutral	True
624.73	0.25	Win2	0.6866	0.0	No	2.77	0.03	n/a	NoResponse	0	n/a	n/a	9	66	Cue	MissedWin	True
624.98	3.9	Win2	0.6866	0.001	No	2.77	0.0	n/a	NoResponse	0	n/a	n/a	9	66	Fixation	MissedWin	True
628.892	0.2	Win2	0.6866	0.0	No	2.77	0.012	1.0	NoResponse	0	0.226	628.118	9	66	Target	MissedWin	True
629.076	0.5	Win2	0.6866	n/a	No	2.77	n/a	n/a	NoResponse	0	n/a	n/a	9	66	Blank	MissedWin	True
629.118	0.3	Win2	0.6866	0.0	No	2.77	0.012	1.0	NoResponse	0	0.226	n/a	9	66	ButtonPress	MissedWin	True
629.578	1.45	Win2	0.6866	n/a	No	2.77	n/a	5.0	NoResponse	0	0.007	628.585	9	66	Feedback	MissedWin	True
631.032	2.77	Win2	0.6866	n/a	No	2.77	n/a	1.0	NoResponse	0	1.724	n/a	9	66	ISIslide	MissedWin	True
633.807	0.25	Control	0.6912	0.0	Yes	2.743	0.007	n/a	GoodResponse	0	n/a	n/a	9	67	Cue	Neutral	True
634.058	3.95	Control	0.6912	0.0	Yes	2.743	0.001	n/a	GoodResponse	0	n/a	n/a	9	67	Fixation	Neutral	True
638.003	0.19	Control	0.6912	0.004	Yes	2.743	-0.004	1.0	GoodResponse	0	0.178	637.181	9	67	Target	Neutral	True
638.181	0.3	Control	0.6912	0.004	Yes	2.743	-0.004	1.0	GoodResponse	0	0.178	n/a	9	67	ButtonPress	Neutral	True
638.203	0.51	Control	0.6912	n/a	Yes	2.743	n/a	n/a	GoodResponse	0	n/a	n/a	9	67	Blank	Neutral	True
638.705	1.45	Control	0.6912	n/a	Yes	2.743	n/a	5.0	GoodResponse	0	0.047	637.752	9	67	Feedback	Neutral	True
640.159	2.743	Control	0.6912	n/a	Yes	2.743	n/a	n/a	GoodResponse	0	0.0	n/a	9	67	ISIslide	Neutral	True
642.918	0.25	Win2	0.6812	0.0	No	3.082	0.018	n/a	NoResponse	0	n/a	n/a	9	68	Cue	MissedWin	True
643.168	4.0	Win2	0.6812	0.0	No	3.082	0.0	n/a	NoResponse	0	n/a	n/a	9	68	Fixation	MissedWin	True
647.164	0.18	Win2	0.6812	0.004	No	3.082	-0.004	1.0	NoResponse	0	0.212	646.376	9	68	Target	MissedWin	True
647.348	0.52	Win2	0.6812	n/a	No	3.082	n/a	n/a	NoResponse	0	n/a	n/a	9	68	Blank	MissedWin	True
647.376	0.3	Win2	0.6812	0.004	No	3.082	-0.004	1.0	NoResponse	0	0.212	n/a	9	68	ButtonPress	MissedWin	True
647.866	1.45	Win2	0.6812	n/a	No	3.082	n/a	5.0	NoResponse	0	0.008	646.874	9	68	Feedback	MissedWin	True
649.32	3.082	Win2	0.6812	n/a	No	3.082	n/a	n/a	NoResponse	0	0.0	n/a	9	68	ISIslide	MissedWin	True
652.429	0.25	Win2	0.6857	0.0	Yes	3.221	0.029	n/a	GoodResponse	1	n/a	n/a	10	69	Cue	Win	True
652.68	3.95	Win2	0.6857	0.0	Yes	3.221	0.001	n/a	GoodResponse	1	n/a	n/a	10	69	Fixation	Win	True
656.625	0.17	Win2	0.6857	0.004	Yes	3.221	-0.004	1.0	GoodResponse	1	0.159	655.784	10	69	Target	Win	True
656.784	0.3	Win2	0.6857	0.004	Yes	3.221	-0.004	1.0	GoodResponse	1	0.159	n/a	10	69	ButtonPress	Win	True
656.809	0.53	Win2	0.6857	n/a	Yes	3.221	n/a	n/a	GoodResponse	1	n/a	n/a	10	69	Blank	Win	True
657.327	1.45	Win2	0.6857	n/a	Yes	3.221	n/a	5.0	GoodResponse	1	0.01	656.337	10	69	Feedback	Win	True
658.782	3.221	Win2	0.6857	n/a	Yes	3.221	n/a	n/a	GoodResponse	1	0.0	n/a	10	69	ISIslide	Win	True
662.025	0.25	Lose2	0.6761	0.0	No	3.025	0.025	n/a	NoResponse	-1	n/a	n/a	9	70	Cue	Loss	False
662.276	4.05	Lose2	0.6761	0.0	No	3.025	0.001	1.0	NoResponse	-1	1.758	663.034	9	70	Fixation	Loss	False
664.034	0.3	Lose2	0.6761	0.0	No	3.025	0.001	1.0	NoResponse	-1	1.758	n/a	9	70	ButtonPress	Loss	False
666.321	0.16	Lose2	0.6761	0.004	No	3.025	-0.004	1.0	NoResponse	-1	0.176	665.497	9	70	Target	Loss	False
666.488	0.54	Lose2	0.6761	n/a	No	3.025	n/a	n/a	NoResponse	-1	n/a	n/a	9	70	Blank	Loss	False
666.497	0.3	Lose2	0.6761	0.004	No	3.025	-0.004	1.0	NoResponse	-1	0.176	n/a	9	70	ButtonPress	Loss	False
667.023	1.45	Lose2	0.6761	n/a	No	3.025	n/a	5.0	NoResponse	-1	0.021	666.044	9	70	Feedback	Loss	False
668.477	3.025	Lose2	0.6761	n/a	No	3.025	n/a	n/a	NoResponse	-1	0.0	n/a	9	70	ISIslide	Loss	False
671.52	0.25	Win2	0.6667000000000001	0.0	No	2.73	0.02	n/a	NoResponse	0	n/a	n/a	9	71	Cue	MissedWin	True
671.771	4.05	Win2	0.6667000000000001	0.0	No	2.73	0.001	n/a	NoResponse	0	n/a	n/a	9	71	Fixation	MissedWin	True
675.816	0.15	Win2	0.6667000000000001	0.004	No	2.73	-0.004	1.0	NoResponse	0	0.162	674.978	9	71	Target	MissedWin	True
675.967	0.55	Win2	0.6667000000000001	n/a	No	2.73	n/a	n/a	NoResponse	0	n/a	n/a	9	71	Blank	MissedWin	True
675.978	0.3	Win2	0.6667000000000001	0.004	No	2.73	-0.004	1.0	NoResponse	0	0.162	n/a	9	71	ButtonPress	MissedWin	True
676.518	1.45	Win2	0.6667000000000001	n/a	No	2.73	n/a	5.0	NoResponse	0	0.038	675.556	9	71	Feedback	MissedWin	True
677.973	2.73	Win2	0.6667000000000001	n/a	No	2.73	n/a	n/a	NoResponse	0	0.0	n/a	9	71	ISIslide	MissedWin	True
680.731	0.25	Win2	0.6575	0.0	No	2.769	0.031	n/a	NoResponse	0	n/a	n/a	9	72	Cue	MissedWin	False
680.982	4.1	Win2	0.6575	0.0	No	2.769	0.001	1.0	NoResponse	0	0.009	679.991	9	72	Fixation	MissedWin	False
680.991	0.3	Win2	0.6575	0.0	No	2.769	0.001	1.0	NoResponse	0	0.009	n/a	9	72	ButtonPress	MissedWin	False
685.077	0.15	Win2	0.6575	0.004	No	2.769	-0.004	1.0	NoResponse	0	0.188	684.265	9	72	Target	MissedWin	False
685.228	0.55	Win2	0.6575	n/a	No	2.769	n/a	n/a	NoResponse	0	n/a	n/a	9	72	Blank	MissedWin	False
685.265	0.3	Win2	0.6575	0.004	No	2.769	-0.004	1.0	NoResponse	0	0.188	n/a	9	72	ButtonPress	MissedWin	False
685.779	1.45	Win2	0.6575	n/a	No	2.769	n/a	5.0	NoResponse	0	0.046	684.825	9	72	Feedback	MissedWin	False
687.234	2.769	Win2	0.6575	n/a	No	2.769	n/a	n/a	NoResponse	0	0.0	n/a	9	72	ISIslide	MissedWin	False
690.025	0.25	Win2	0.6486	0.0	No	2.675	0.025	n/a	NoResponse	0	n/a	n/a	9	73	Cue	MissedWin	True
690.276	4.0	Win2	0.6486	0.0	No	2.675	0.001	n/a	NoResponse	0	n/a	n/a	9	73	Fixation	MissedWin	True
694.271	0.15	Win2	0.6486	0.004	No	2.675	-0.004	1.0	NoResponse	0	0.21	693.481	9	73	Target	MissedWin	True
694.422	0.55	Win2	0.6486	n/a	No	2.675	n/a	n/a	NoResponse	0	n/a	n/a	9	73	Blank	MissedWin	True
694.481	0.3	Win2	0.6486	0.004	No	2.675	-0.004	1.0	NoResponse	0	0.21	n/a	9	73	ButtonPress	MissedWin	True
694.974	1.45	Win2	0.6486	n/a	No	2.675	n/a	5.0	NoResponse	0	0.021	693.995	9	73	Feedback	MissedWin	True
696.428	2.675	Win2	0.6486	n/a	No	2.675	n/a	n/a	NoResponse	0	0.0	n/a	9	73	ISIslide	MissedWin	True
699.119	0.25	Lose2	0.64	0.0	No	2.631	0.019	n/a	NoResponse	-1	n/a	n/a	8	74	Cue	Loss	True
699.37	4.05	Lose2	0.64	0.0	No	2.631	0.001	n/a	NoResponse	-1	n/a	n/a	8	74	Fixation	Loss	True
703.416	0.16	Lose2	0.64	0.003	No	2.631	-0.003	1.0	NoResponse	-1	0.189	702.605	8	74	Target	Loss	True
703.583	0.54	Lose2	0.64	n/a	No	2.631	n/a	n/a	NoResponse	-1	n/a	n/a	8	74	Blank	Loss	True
703.605	0.3	Lose2	0.64	0.003	No	2.631	-0.003	1.0	NoResponse	-1	0.189	n/a	8	74	ButtonPress	Loss	True
704.118	1.45	Lose2	0.64	n/a	No	2.631	n/a	5.0	NoResponse	-1	0.0	703.118	8	74	Feedback	Loss	True
705.572	2.631	Lose2	0.64	n/a	No	2.631	n/a	n/a	NoResponse	-1	0.0	n/a	8	74	ISIslide	Loss	True
708.23	0.25	Lose2	0.6315999999999999	0.0	No	2.92	0.03	n/a	NoResponse	-1	n/a	n/a	7	75	Cue	Loss	False
708.481	3.95	Lose2	0.6315999999999999	0.0	No	2.92	0.001	1.0	NoResponse	-1	3.459	710.94	7	75	Fixation	Loss	False
711.94	0.3	Lose2	0.6315999999999999	0.0	No	2.92	0.001	1.0	NoResponse	-1	3.459	n/a	7	75	ButtonPress	Loss	False
712.426	0.17	Lose2	0.6315999999999999	0.004	No	2.92	-0.004	1.0	NoResponse	-1	0.234	711.66	7	75	Target	Loss	False
712.61	0.53	Lose2	0.6315999999999999	n/a	No	2.92	n/a	n/a	NoResponse	-1	n/a	n/a	7	75	Blank	Loss	False
712.66	0.3	Lose2	0.6315999999999999	0.004	No	2.92	-0.004	1.0	NoResponse	-1	0.234	n/a	7	75	ButtonPress	Loss	False
713.128	1.45	Lose2	0.6315999999999999	n/a	No	2.92	n/a	5.0	NoResponse	-1	0.014	712.142	7	75	Feedback	Loss	False
714.582	2.92	Lose2	0.6315999999999999	n/a	No	2.92	n/a	n/a	NoResponse	-1	0.0	n/a	7	75	ISIslide	Loss	False
717.524	0.25	Control	0.6234000000000001	0.001	No	3.226	0.024	n/a	NoResponse	0	n/a	n/a	7	76	Cue	Neutral	True
717.775	4.05	Control	0.6234000000000001	0.0	No	3.226	0.001	n/a	NoResponse	0	n/a	n/a	7	76	Fixation	Neutral	True
721.821	0.18	Control	0.6234000000000001	0.003	No	3.226	-0.003	1.0	NoResponse	0	0.202	721.023	7	76	Target	Neutral	True
722.005	0.52	Control	0.6234000000000001	n/a	No	3.226	n/a	n/a	NoResponse	0	n/a	n/a	7	76	Blank	Neutral	True
722.023	0.3	Control	0.6234000000000001	0.003	No	3.226	-0.003	1.0	NoResponse	0	0.202	n/a	7	76	ButtonPress	Neutral	True
722.523	1.45	Control	0.6234000000000001	n/a	No	3.226	n/a	5.0	NoResponse	0	0.033	721.556	7	76	Feedback	Neutral	True
723.977	3.226	Control	0.6234000000000001	n/a	No	3.226	n/a	n/a	NoResponse	0	0.0	n/a	7	76	ISIslide	Neutral	True
727.22	0.25	Lose2	0.6154	0.0	No	2.58	0.02	n/a	NoResponse	-1	n/a	n/a	6	77	Cue	Loss	True
727.471	3.95	Lose2	0.6154	0.0	No	2.58	0.001	n/a	NoResponse	-1	n/a	n/a	6	77	Fixation	Loss	True
731.416	0.19	Lose2	0.6154	0.004	No	2.58	-0.004	1.0	NoResponse	-1	0.237	730.653	6	77	Target	Loss	True
731.617	0.51	Lose2	0.6154	n/a	No	2.58	n/a	n/a	NoResponse	-1	n/a	n/a	6	77	Blank	Loss	True
731.653	0.3	Lose2	0.6154	0.004	No	2.58	-0.004	1.0	NoResponse	-1	0.237	n/a	6	77	ButtonPress	Loss	True
732.118	1.45	Lose2	0.6154	n/a	No	2.58	n/a	5.0	NoResponse	-1	0.048	731.166	6	77	Feedback	Loss	True
733.573	2.58	Lose2	0.6154	n/a	No	2.58	n/a	n/a	NoResponse	-1	0.0	n/a	6	77	ISIslide	Loss	True
