onset	duration	cue_type	current_mean_accuracy	duration_error	is_hit	isi_adjusted	onset_delay	response	response_type	reward	rt	rt_time	total_reward	trial_number	trial_phase	trial_type	one_press
11.109	0.25	Control	0.0	0.001	No	2.941	0.009	n/a	NoResponse	0	n/a	n/a	0	0	Cue	Neutral	False
11.36	3.85	Control	0.0	0.0	No	2.941	0.001	n/a	NoResponse	0	n/a	n/a	0	0	Fixation	Neutral	False
15.205	0.4	Control	0.0	0.004	No	2.941	-0.004	n/a	NoResponse	0	n/a	n/a	0	0	Target	Neutral	False
15.606	0.3	Control	0.0	n/a	No	2.941	n/a	n/a	NoResponse	0	n/a	n/a	0	0	Blank	Neutral	False
15.907	1.45	Control	0.0	n/a	No	2.941	n/a	5.0	NoResponse	0	0.02	14.927	0	0	Feedback	Neutral	False
17.361	2.941	Control	0.0	n/a	No	2.941	n/a	n/a	NoResponse	0	0.0	n/a	0	0	ISIslide	Neutral	False
20.32	0.25	Lose2	0.5	0.0	Yes	2.78	0.02	n/a	GoodResponse	0	n/a	n/a	0	1	Cue	AvoidedLoss	True
20.571	4.0	Lose2	0.5	0.0	Yes	2.78	0.001	n/a	GoodResponse	0	n/a	n/a	0	1	Fixation	AvoidedLoss	True
24.566	0.41	Lose2	0.5	0.004	Yes	2.78	-0.004	1.0	GoodResponse	0	0.168	23.734	0	1	Target	AvoidedLoss	True
24.734	0.3	Lose2	0.5	0.004	Yes	2.78	-0.004	1.0	GoodResponse	0	0.168	n/a	0	1	ButtonPress	AvoidedLoss	True
24.984	0.29	Lose2	0.5	n/a	Yes	2.78	n/a	n/a	GoodResponse	0	n/a	n/a	0	1	Blank	AvoidedLoss	True
25.268	1.45	Lose2	0.5	n/a	Yes	2.78	n/a	5.0	GoodResponse	0	0.024	24.292	0	1	Feedback	AvoidedLoss	True
26.723	2.78	Lose2	0.5	n/a	Yes	2.78	n/a	n/a	GoodResponse	0	0.0	n/a	0	1	ISIslide	AvoidedLoss	True
29.515	0.25	Control	0.6667000000000001	0.0	Yes	2.585	0.015	n/a	GoodResponse	0	n/a	n/a	0	2	Cue	Neutral	True
29.765	4.1	Control	0.6667000000000001	0.0	Yes	2.585	0.0	n/a	GoodResponse	0	n/a	n/a	0	2	Fixation	Neutral	True
33.861	0.42	Control	0.6667000000000001	0.004	Yes	2.585	-0.004	1.0	GoodResponse	0	0.162	33.023	0	2	Target	Neutral	True
34.023	0.3	Control	0.6667000000000001	0.004	Yes	2.585	-0.004	1.0	GoodResponse	0	0.162	n/a	0	2	ButtonPress	Neutral	True
34.295	0.28	Control	0.6667000000000001	n/a	Yes	2.585	n/a	n/a	GoodResponse	0	n/a	n/a	0	2	Blank	Neutral	True
34.563	1.45	Control	0.6667000000000001	n/a	Yes	2.585	n/a	5.0	GoodResponse	0	0.046	33.609	0	2	Feedback	Neutral	True
36.017	2.585	Control	0.6667000000000001	n/a	Yes	2.585	n/a	n/a	GoodResponse	0	0.0	n/a	0	2	ISIslide	Neutral	True
38.625	0.25	Win2	0.75	0.0	Yes	2.825	0.025	n/a	GoodResponse	1	n/a	n/a	1	3	Cue	Win	False
38.876	3.95	Win2	0.75	0.0	Yes	2.825	0.001	1.0	GoodResponse	1	3.456	41.332	1	3	Fixation	Win	False
42.332	0.3	Win2	0.75	0.0	Yes	2.825	0.001	1.0	GoodResponse	1	3.456	n/a	1	3	ButtonPress	Win	False
42.821	0.41	Win2	0.75	0.004	Yes	2.825	-0.004	1.0	GoodResponse	1	0.119	41.94	1	3	Target	Win	False
42.94	0.3	Win2	0.75	0.004	Yes	2.825	-0.004	1.0	GoodResponse	1	0.119	n/a	1	3	ButtonPress	Win	False
43.239	0.29	Win2	0.75	n/a	Yes	2.825	n/a	n/a	GoodResponse	1	n/a	n/a	1	3	Blank	Win	False
43.523	1.45	Win2	0.75	n/a	Yes	2.825	n/a	5.0	GoodResponse	1	0.013	42.536	1	3	Feedback	Win	False
44.977	2.825	Win2	0.75	n/a	Yes	2.825	n/a	n/a	GoodResponse	1	0.0	n/a	1	3	ISIslide	Win	False
47.819	0.25	Win2	0.8	0.0	Yes	3.281	0.019	n/a	GoodResponse	1	n/a	n/a	2	4	Cue	Win	True
48.07	4.0	Win2	0.8	0.0	Yes	3.281	0.001	n/a	GoodResponse	1	n/a	n/a	2	4	Fixation	Win	True
52.065	0.4	Win2	0.8	0.004	Yes	3.281	-0.004	1.0	GoodResponse	1	0.284	51.349	2	4	Target	Win	True
52.349	0.3	Win2	0.8	0.004	Yes	3.281	-0.004	1.0	GoodResponse	1	0.284	n/a	2	4	ButtonPress	Win	True
52.467	0.3	Win2	0.8	n/a	Yes	3.281	n/a	n/a	GoodResponse	1	n/a	n/a	2	4	Blank	Win	True
52.767	1.45	Win2	0.8	n/a	Yes	3.281	n/a	5.0	GoodResponse	1	0.037	51.804	2	4	Feedback	Win	True
54.222	3.281	Win2	0.8	n/a	Yes	3.281	n/a	n/a	GoodResponse	1	0.0	n/a	2	4	ISIslide	Win	True
57.515	0.25	Win2	0.8332999999999999	0.0	Yes	2.785	0.015	n/a	GoodResponse	1	n/a	n/a	3	5	Cue	Win	True
57.766	4.0	Win2	0.8332999999999999	0.0	Yes	2.785	0.001	n/a	GoodResponse	1	n/a	n/a	3	5	Fixation	Win	True
61.761	0.39	Win2	0.8332999999999999	0.004	Yes	2.785	-0.004	1.0	GoodResponse	1	0.192	60.953	3	5	Target	Win	True
61.953	0.3	Win2	0.8332999999999999	0.004	Yes	2.785	-0.004	1.0	GoodResponse	1	0.192	n/a	3	5	ButtonPress	Win	True
62.162	0.31	Win2	0.8332999999999999	n/a	Yes	2.785	n/a	n/a	GoodResponse	1	n/a	n/a	3	5	Blank	Win	True
62.463	1.45	Win2	0.8332999999999999	n/a	Yes	2.785	n/a	5.0	GoodResponse	1	0.048	61.511	3	5	Feedback	Win	True
63.917	2.785	Win2	0.8332999999999999	n/a	Yes	2.785	n/a	n/a	GoodResponse	1	0.0	n/a	3	5	ISIslide	Win	True
66.726	0.25	Lose2	0.8571	0.0	Yes	2.724	0.026	n/a	GoodResponse	0	n/a	n/a	3	6	Cue	AvoidedLoss	False
66.977	3.95	Lose2	0.8571	0.0	Yes	2.724	0.001	1.0	GoodResponse	0	3.524	69.501	3	6	Fixation	AvoidedLoss	False
70.501	0.3	Lose2	0.8571	0.0	Yes	2.724	0.001	1.0	GoodResponse	0	3.524	n/a	3	6	ButtonPress	AvoidedLoss	False
70.922	0.38	Lose2	0.8571	0.004	Yes	2.724	-0.004	1.0	GoodResponse	0	0.153	70.075	3	6	Target	AvoidedLoss	False
71.075	0.3	Lose2	0.8571	0.004	Yes	2.724	-0.004	1.0	GoodResponse	0	0.153	n/a	3	6	ButtonPress	AvoidedLoss	False
71.306	0.32	Lose2	0.8571	n/a	Yes	2.724	n/a	n/a	GoodResponse	0	n/a	n/a	3	6	Blank	AvoidedLoss	False
71.624	1.45	Lose2	0.8571	n/a	Yes	2.724	n/a	5.0	GoodResponse	0	0.009	70.633	3	6	Feedback	AvoidedLoss	False
73.078	2.724	Lose2	0.8571	n/a	Yes	2.724	n/a	n/a	GoodResponse	0	0.0	n/a	3	6	ISIslide	AvoidedLoss	False
75.82	0.25	Lose2	0.875	0.0	Yes	4.03	0.02	n/a	GoodResponse	0	n/a	n/a	3	7	Cue	AvoidedLoss	True
76.071	4.05	Lose2	0.875	0.0	Yes	4.03	0.001	n/a	GoodResponse	0	n/a	n/a	3	7	Fixation	AvoidedLoss	True
80.116	0.37	Lose2	0.875	0.004	Yes	4.03	-0.004	1.0	GoodResponse	0	0.255	79.371	3	7	Target	AvoidedLoss	True
80.371	0.3	Lose2	0.875	0.004	Yes	4.03	-0.004	1.0	GoodResponse	0	0.255	n/a	3	7	ButtonPress	AvoidedLoss	True
80.5	0.33	Lose2	0.875	n/a	Yes	4.03	n/a	n/a	GoodResponse	0	n/a	n/a	3	7	Blank	AvoidedLoss	True
80.818	1.45	Lose2	0.875	n/a	Yes	4.03	n/a	5.0	GoodResponse	0	0.034	79.852	3	7	Feedback	AvoidedLoss	True
82.272	4.03	Lose2	0.875	n/a	Yes	4.03	n/a	n/a	GoodResponse	0	0.0	n/a	3	7	ISIslide	AvoidedLoss	True
86.318	0.25	Lose2	0.7778	0.0	No	3.032	0.018	n/a	NoResponse	-1	n/a	n/a	2	8	Cue	Loss	True
86.569	3.95	Lose2	0.7778	0.0	No	3.032	0.001	1.0	NoResponse	-1	3.388	88.957	2	8	Fixation	Loss	True
89.957	0.3	Lose2	0.7778	0.0	No	3.032	0.001	1.0	NoResponse	-1	3.388	n/a	2	8	ButtonPress	Loss	True
90.514	0.36	Lose2	0.7778	0.004	No	3.032	-0.004	n/a	NoResponse	-1	n/a	n/a	2	8	Target	Loss	True
90.882	0.34	Lose2	0.7778	n/a	No	3.032	n/a	n/a	NoResponse	-1	n/a	n/a	2	8	Blank	Loss	True
91.216	1.45	Lose2	0.7778	n/a	No	3.032	n/a	5.0	NoResponse	-1	0.027	90.243	2	8	Feedback	Loss	True
92.67	3.032	Lose2	0.7778	n/a	No	3.032	n/a	n/a	NoResponse	-1	0.0	n/a	2	8	ISIslide	Loss	True
95.729	0.25	Lose2	0.8	0.0	Yes	3.121	0.029	n/a	GoodResponse	0	n/a	n/a	2	9	Cue	AvoidedLoss	True
95.98	3.95	Lose2	0.8	0.0	Yes	3.121	0.001	n/a	GoodResponse	0	n/a	n/a	2	9	Fixation	AvoidedLoss	True
99.925	0.35	Lose2	0.8	0.004	Yes	3.121	-0.004	1.0	GoodResponse	0	0.19	99.115	2	9	Target	AvoidedLoss	True
100.115	0.3	Lose2	0.8	0.004	Yes	3.121	-0.004	1.0	GoodResponse	0	0.19	n/a	2	9	ButtonPress	AvoidedLoss	True
100.276	0.35	Lose2	0.8	n/a	Yes	3.121	n/a	n/a	GoodResponse	0	n/a	n/a	2	9	Blank	AvoidedLoss	True
100.627	1.45	Lose2	0.8	n/a	Yes	3.121	n/a	5.0	GoodResponse	0	0.03	99.657	2	9	Feedback	AvoidedLoss	True
102.082	3.121	Lose2	0.8	n/a	Yes	3.121	n/a	n/a	GoodResponse	0	0.0	n/a	2	9	ISIslide	AvoidedLoss	True
105.224	0.25	Control	0.8181999999999999	0.001	Yes	3.276	0.024	n/a	GoodResponse	0	n/a	n/a	2	10	Cue	Neutral	False
105.475	4.0	Control	0.8181999999999999	0.0	Yes	3.276	0.001	1.0	GoodResponse	0	3.664	108.139	2	10	Fixation	Neutral	False
109.139	0.3	Control	0.8181999999999999	0.0	Yes	3.276	0.001	1.0	GoodResponse	0	3.664	n/a	2	10	ButtonPress	Neutral	False
109.471	0.34	Control	0.8181999999999999	0.003	Yes	3.276	-0.003	1.0	GoodResponse	0	0.244	108.715	2	10	Target	Neutral	False
109.715	0.3	Control	0.8181999999999999	0.003	Yes	3.276	-0.003	1.0	GoodResponse	0	0.244	n/a	2	10	ButtonPress	Neutral	False
109.822	0.36	Control	0.8181999999999999	n/a	Yes	3.276	n/a	n/a	GoodResponse	0	n/a	n/a	2	10	Blank	Neutral	False
110.173	1.45	Control	0.8181999999999999	n/a	Yes	3.276	n/a	5.0	GoodResponse	0	0.045	109.218	2	10	Feedback	Neutral	False
111.627	3.276	Control	0.8181999999999999	n/a	Yes	3.276	n/a	n/a	GoodResponse	0	0.0	n/a	2	10	ISIslide	Neutral	False
114.92	0.25	Lose2	0.75	0.0	No	2.73	0.02	n/a	NoResponse	-1	n/a	n/a	1	11	Cue	Loss	True
115.171	4.05	Lose2	0.75	0.0	No	2.73	0.001	1.0	NoResponse	-1	0.992	115.163	1	11	Fixation	Loss	True
116.163	0.3	Lose2	0.75	0.0	No	2.73	0.001	1.0	NoResponse	-1	0.992	n/a	1	11	ButtonPress	Loss	True
119.216	0.33	Lose2	0.75	0.004	No	2.73	-0.004	n/a	NoResponse	-1	n/a	n/a	1	11	Target	Loss	True
119.551	0.37	Lose2	0.75	n/a	No	2.73	n/a	n/a	NoResponse	-1	n/a	n/a	1	11	Blank	Loss	True
119.918	1.45	Lose2	0.75	n/a	No	2.73	n/a	5.0	NoResponse	-1	0.008	118.926	1	11	Feedback	Loss	True
121.373	2.73	Lose2	0.75	n/a	No	2.73	n/a	n/a	NoResponse	-1	0.0	n/a	1	11	ISIslide	Loss	True
124.114	0.25	Control	0.7692	0.0	Yes	2.986	0.014	n/a	GoodResponse	0	n/a	n/a	1	12	Cue	Neutral	True
124.365	3.9	Control	0.7692	0.0	Yes	2.986	0.001	n/a	GoodResponse	0	n/a	n/a	1	12	Fixation	Neutral	True
128.26	0.32	Control	0.7692	0.004	Yes	2.986	-0.004	1.0	GoodResponse	0	0.196	127.456	1	12	Target	Neutral	True
128.456	0.3	Control	0.7692	0.004	Yes	2.986	-0.004	1.0	GoodResponse	0	0.196	n/a	1	12	ButtonPress	Neutral	True
128.594	0.38	Control	0.7692	n/a	Yes	2.986	n/a	n/a	GoodResponse	0	n/a	n/a	1	12	Blank	Neutral	True
128.962	1.45	Control	0.7692	n/a	Yes	2.986	n/a	5.0	GoodResponse	0	0.036	127.998	1	12	Feedback	Neutral	True
130.417	2.986	Control	0.7692	n/a	Yes	2.986	n/a	n/a	GoodResponse	0	0.0	n/a	1	12	ISIslide	Neutral	True
133.426	0.25	Control	0.7857	0.0	Yes	2.774	0.026	n/a	GoodResponse	0	n/a	n/a	1	13	Cue	Neutral	True
133.676	4.0	Control	0.7857	0.0	Yes	2.774	0.0	n/a	GoodResponse	0	n/a	n/a	1	13	Fixation	Neutral	True
137.672	0.31	Control	0.7857	0.004	Yes	2.774	-0.004	1.0	GoodResponse	0	0.177	136.849	1	13	Target	Neutral	True
137.849	0.3	Control	0.7857	0.004	Yes	2.774	-0.004	1.0	GoodResponse	0	0.177	n/a	1	13	ButtonPress	Neutral	True
137.989	0.39	Control	0.7857	n/a	Yes	2.774	n/a	n/a	GoodResponse	0	n/a	n/a	1	13	Blank	Neutral	True
138.374	1.45	Control	0.7857	n/a	Yes	2.774	n/a	5.0	GoodResponse	0	0.039	137.413	1	13	Feedback	Neutral	True
139.828	2.774	Control	0.7857	n/a	Yes	2.774	n/a	n/a	GoodResponse	0	0.0	n/a	1	13	ISIslide	Neutral	True
142.62	0.25	Win2	0.8	0.0	Yes	2.68	0.02	n/a	GoodResponse	1	n/a	n/a	2	14	Cue	Win	False
142.87	4.1	Win2	0.8	0.001	Yes	2.68	0.0	1.0	GoodResponse	1	3.834	145.704	2	14	Fixation	Win	False
146.704	0.3	Win2	0.8	0.001	Yes	2.68	0.0	1.0	GoodResponse	1	3.834	n/a	2	14	ButtonPress	Win	False
146.966	0.3	Win2	0.8	0.004	Yes	2.68	-0.004	1.0	GoodResponse	1	0.203	146.169	2	14	Target	Win	False
147.169	0.3	Win2	0.8	0.004	Yes	2.68	-0.004	1.0	GoodResponse	1	0.203	n/a	2	14	ButtonPress	Win	False
147.267	0.4	Win2	0.8	n/a	Yes	2.68	n/a	n/a	GoodResponse	1	n/a	n/a	2	14	Blank	Win	False
147.668	1.45	Win2	0.8	n/a	Yes	2.68	n/a	5.0	GoodResponse	1	0.013	146.681	2	14	Feedback	Win	False
149.123	2.68	Win2	0.8	n/a	Yes	2.68	n/a	n/a	GoodResponse	1	0.0	n/a	2	14	ISIslide	Win	False
151.814	0.25	Control	0.75	0.0	No	2.986	0.014	n/a	NoResponse	0	n/a	n/a	2	15	Cue	Neutral	True
152.065	4.0	Control	0.75	0.0	No	2.986	0.001	n/a	NoResponse	0	n/a	n/a	2	15	Fixation	Neutral	True
156.06	0.29	Control	0.75	0.004	No	2.986	-0.004	1.0	NoResponse	0	0.567	155.627	2	15	Target	Neutral	True
156.361	0.41	Control	0.75	n/a	No	2.986	n/a	n/a	NoResponse	0	n/a	n/a	2	15	Blank	Neutral	True
156.627	0.3	Control	0.75	0.004	No	2.986	-0.004	1.0	NoResponse	0	0.567	n/a	2	15	ButtonPress	Neutral	True
156.762	1.45	Control	0.75	n/a	No	2.986	n/a	5.0	NoResponse	0	0.041	155.803	2	15	Feedback	Neutral	True
158.216	2.986	Control	0.75	n/a	No	2.986	n/a	n/a	NoResponse	0	0.0	n/a	2	15	ISIslide	Neutral	True
161.225	0.25	Win2	0.7059000000000001	0.001	No	2.875	0.025	n/a	NoResponse	0	n/a	n/a	2	16	Cue	MissedWin	True
161.476	4.0	Win2	0.7059000000000001	0.0	No	2.875	0.001	n/a	NoResponse	0	n/a	n/a	2	16	Fixation	MissedWin	True
165.471	0.28	Win2	0.7059000000000001	0.004	No	2.875	-0.004	1.0	NoResponse	0	0.315	164.786	2	16	Target	MissedWin	True
165.756	0.42	Win2	0.7059000000000001	n/a	No	2.875	n/a	n/a	NoResponse	0	n/a	n/a	2	16	Blank	MissedWin	True
165.786	0.3	Win2	0.7059000000000001	0.004	No	2.875	-0.004	1.0	NoResponse	0	0.315	n/a	2	16	ButtonPress	MissedWin	True
166.174	1.45	Win2	0.7059000000000001	n/a	No	2.875	n/a	5.0	NoResponse	0	0.044	165.218	2	16	Feedback	MissedWin	True
167.628	2.875	Win2	0.7059000000000001	n/a	No	2.875	n/a	n/a	NoResponse	0	0.0	n/a	2	16	ISIslide	MissedWin	True
170.52	0.25	Lose2	0.7222	0.0	Yes	2.73	0.02	n/a	GoodResponse	0	n/a	n/a	2	17	Cue	AvoidedLoss	True
170.771	3.95	Lose2	0.7222	0.0	Yes	2.73	0.001	n/a	GoodResponse	0	n/a	n/a	2	17	Fixation	AvoidedLoss	True
174.716	0.27	Lose2	0.7222	0.004	Yes	2.73	-0.004	1.0	GoodResponse	0	0.18	173.896	2	17	Target	AvoidedLoss	True
174.896	0.3	Lose2	0.7222	0.004	Yes	2.73	-0.004	1.0	GoodResponse	0	0.18	n/a	2	17	ButtonPress	AvoidedLoss	True
175	0.43	Lose2	0.7222	n/a	Yes	2.73	n/a	n/a	GoodResponse	0	n/a	n/a	2	17	Blank	AvoidedLoss	True
175.418	1.45	Lose2	0.7222	n/a	Yes	2.73	n/a	5.0	GoodResponse	0	0.019	174.437	2	17	Feedback	AvoidedLoss	True
176.872	2.73	Lose2	0.7222	n/a	Yes	2.73	n/a	n/a	GoodResponse	0	0.0	n/a	2	17	ISIslide	AvoidedLoss	True
179.631	0.25	Lose2	0.7368000000000001	0.0	Yes	2.719	0.031	n/a	GoodResponse	0	n/a	n/a	2	18	Cue	AvoidedLoss	False
179.881	4.05	Lose2	0.7368000000000001	0.0	Yes	2.719	0.0	1.0	GoodResponse	0	3.62	182.501	2	18	Fixation	AvoidedLoss	False
183.501	0.3	Lose2	0.7368000000000001	0.0	Yes	2.719	0.0	1.0	GoodResponse	0	3.62	n/a	2	18	ButtonPress	AvoidedLoss	False
183.927	0.26	Lose2	0.7368000000000001	0.004	Yes	2.719	-0.004	1.0	GoodResponse	0	0.182	183.109	2	18	Target	AvoidedLoss	False
184.109	0.3	Lose2	0.7368000000000001	0.004	Yes	2.719	-0.004	1.0	GoodResponse	0	0.182	n/a	2	18	ButtonPress	AvoidedLoss	False
184.194	0.44	Lose2	0.7368000000000001	n/a	Yes	2.719	n/a	n/a	GoodResponse	0	n/a	n/a	2	18	Blank	AvoidedLoss	False
184.629	1.45	Lose2	0.7368000000000001	n/a	Yes	2.719	n/a	5.0	GoodResponse	0	0.027	183.656	2	18	Feedback	AvoidedLoss	False
186.083	2.719	Lose2	0.7368000000000001	n/a	Yes	2.719	n/a	n/a	GoodResponse	0	0.0	n/a	2	18	ISIslide	AvoidedLoss	False
188.825	0.25	Control	0.7	0.0	No	2.925	0.025	n/a	NoResponse	0	n/a	n/a	2	19	Cue	Neutral	True
189.075	3.95	Control	0.7	0.001	No	2.925	0.0	n/a	NoResponse	0	n/a	n/a	2	19	Fixation	Neutral	True
193.021	0.25	Control	0.7	0.004	No	2.925	-0.004	1.0	NoResponse	0	0.506	192.527	2	19	Target	Neutral	True
193.271	0.45	Control	0.7	n/a	No	2.925	n/a	n/a	NoResponse	0	n/a	n/a	2	19	Blank	Neutral	True
193.527	0.3	Control	0.7	0.004	No	2.925	-0.004	1.0	NoResponse	0	0.506	n/a	2	19	ButtonPress	Neutral	True
193.723	1.45	Control	0.7	n/a	No	2.925	n/a	5.0	NoResponse	0	0.006	192.729	2	19	Feedback	Neutral	True
195.177	2.925	Control	0.7	n/a	No	2.925	n/a	n/a	NoResponse	0	0.0	n/a	2	19	ISIslide	Neutral	True
198.119	0.25	Control	0.6667000000000001	0.0	No	2.631	0.019	n/a	NoResponse	0	n/a	n/a	2	20	Cue	Neutral	True
198.37	4.05	Control	0.6667000000000001	0.0	No	2.631	0.001	n/a	NoResponse	0	n/a	n/a	2	20	Fixation	Neutral	True
202.415	0.24	Control	0.6667000000000001	0.004	No	2.631	-0.004	1.0	NoResponse	0	0.397	201.812	2	20	Target	Neutral	True
202.666	0.46	Control	0.6667000000000001	n/a	No	2.631	n/a	n/a	NoResponse	0	n/a	n/a	2	20	Blank	Neutral	True
202.812	0.3	Control	0.6667000000000001	0.004	No	2.631	-0.004	1.0	NoResponse	0	0.397	n/a	2	20	ButtonPress	Neutral	True
203.118	1.45	Control	0.6667000000000001	n/a	No	2.631	n/a	5.0	NoResponse	0	0.026	202.144	2	20	Feedback	Neutral	True
204.572	2.631	Control	0.6667000000000001	n/a	No	2.631	n/a	n/a	NoResponse	0	0.0	n/a	2	20	ISIslide	Neutral	True
207.23	0.25	Control	0.6818000000000001	0.0	Yes	2.77	0.03	n/a	GoodResponse	0	n/a	n/a	2	21	Cue	Neutral	False
207.481	4.1	Control	0.6818000000000001	0.0	Yes	2.77	0.001	1.0	GoodResponse	0	0.369	206.85	2	21	Fixation	Neutral	False
207.85	0.3	Control	0.6818000000000001	0.0	Yes	2.77	0.001	1.0	GoodResponse	0	0.369	n/a	2	21	ButtonPress	Neutral	False
211.576	0.23	Control	0.6818000000000001	0.004	Yes	2.77	-0.004	1.0	GoodResponse	0	0.227	210.803	2	21	Target	Neutral	False
211.803	0.3	Control	0.6818000000000001	0.004	Yes	2.77	-0.004	1.0	GoodResponse	0	0.227	n/a	2	21	ButtonPress	Neutral	False
211.81	0.47	Control	0.6818000000000001	n/a	Yes	2.77	n/a	n/a	GoodResponse	0	n/a	n/a	2	21	Blank	Neutral	False
212.278	1.45	Control	0.6818000000000001	n/a	Yes	2.77	n/a	5.0	GoodResponse	0	0.037	211.315	2	21	Feedback	Neutral	False
213.733	2.77	Control	0.6818000000000001	n/a	Yes	2.77	n/a	n/a	GoodResponse	0	0.0	n/a	2	21	ISIslide	Neutral	False
216.524	0.25	Control	0.6522	0.0	No	2.776	0.024	n/a	NoResponse	0	n/a	n/a	2	22	Cue	Neutral	False
216.775	4.0	Control	0.6522	0.0	No	2.776	0.001	n/a	NoResponse	0	n/a	n/a	2	22	Fixation	Neutral	False
220.77	0.22	Control	0.6522	0.004	No	2.776	-0.004	n/a	NoResponse	0	n/a	n/a	2	22	Target	Neutral	False
221.004	0.48	Control	0.6522	n/a	No	2.776	n/a	n/a	NoResponse	0	n/a	n/a	2	22	Blank	Neutral	False
221.472	1.45	Control	0.6522	n/a	No	2.776	n/a	5.0	NoResponse	0	0.014	220.486	2	22	Feedback	Neutral	False
222.927	2.776	Control	0.6522	n/a	No	2.776	n/a	n/a	NoResponse	0	0.0	n/a	2	22	ISIslide	Neutral	False
225.718	0.25	Control	0.625	0.001	No	2.782	0.018	n/a	NoResponse	0	n/a	n/a	2	23	Cue	Neutral	True
225.969	3.9	Control	0.625	0.0	No	2.782	0.001	n/a	NoResponse	0	n/a	n/a	2	23	Fixation	Neutral	True
229.864	0.23	Control	0.625	0.004	No	2.782	-0.004	1.0	NoResponse	0	0.281	229.145	2	23	Target	Neutral	True
230.098	0.47	Control	0.625	n/a	No	2.782	n/a	n/a	NoResponse	0	n/a	n/a	2	23	Blank	Neutral	True
230.145	0.3	Control	0.625	0.004	No	2.782	-0.004	1.0	NoResponse	0	0.281	n/a	2	23	ButtonPress	Neutral	True
230.566	1.45	Control	0.625	n/a	No	2.782	n/a	5.0	NoResponse	0	0.041	229.607	2	23	Feedback	Neutral	True
232.021	2.782	Control	0.625	n/a	No	2.782	n/a	n/a	NoResponse	0	0.0	n/a	2	23	ISIslide	Neutral	True
234.829	0.25	Win2	0.6	0.0	No	3.121	0.029	n/a	NoResponse	0	n/a	n/a	2	24	Cue	MissedWin	True
235.08	3.95	Win2	0.6	0.0	No	3.121	0.001	n/a	NoResponse	0	n/a	n/a	2	24	Fixation	MissedWin	True
239.025	0.24	Win2	0.6	0.004	No	3.121	-0.004	1.0	NoResponse	0	0.28	238.305	2	24	Target	MissedWin	True
239.276	0.46	Win2	0.6	n/a	No	3.121	n/a	n/a	NoResponse	0	n/a	n/a	2	24	Blank	MissedWin	True
239.305	0.3	Win2	0.6	0.004	No	3.121	-0.004	1.0	NoResponse	0	0.28	n/a	2	24	ButtonPress	MissedWin	True
239.727	1.45	Win2	0.6	n/a	No	3.121	n/a	5.0	NoResponse	0	0.007	238.734	2	24	Feedback	MissedWin	True
241.181	3.121	Win2	0.6	n/a	No	3.121	n/a	n/a	NoResponse	0	0.0	n/a	2	24	ISIslide	MissedWin	True
244.324	0.25	Win2	0.5769	0.0	No	3.076	0.024	n/a	PrematurePress	0	n/a	n/a	2	25	Cue	MissedWin	True
244.575	4.0	Win2	0.5769	0.0	No	3.076	0.001	n/a	PrematurePress	0	n/a	n/a	2	25	Fixation	MissedWin	True
248.57	0.25	Win2	0.5769	0.004	No	3.076	-0.004	1.0	PrematurePress	0	0.017	247.587	2	25	Target	MissedWin	True
248.587	0.3	Win2	0.5769	0.004	No	3.076	-0.004	1.0	PrematurePress	0	0.017	n/a	2	25	ButtonPress	MissedWin	True
248.821	0.45	Win2	0.5769	n/a	No	3.076	n/a	n/a	PrematurePress	0	n/a	n/a	2	25	Blank	MissedWin	True
249.272	1.45	Win2	0.5769	n/a	No	3.076	n/a	5.0	PrematurePress	0	0.018	248.29	2	25	Feedback	MissedWin	True
250.727	3.076	Win2	0.5769	n/a	No	3.076	n/a	n/a	PrematurePress	0	0.0	n/a	2	25	ISIslide	MissedWin	True
253.819	0.25	Win2	0.5926	0.0	Yes	2.931	0.019	n/a	GoodResponse	1	n/a	n/a	3	26	Cue	Win	True
254.07	3.95	Win2	0.5926	0.0	Yes	2.931	0.001	n/a	GoodResponse	1	n/a	n/a	3	26	Fixation	Win	True
258.015	0.26	Win2	0.5926	0.004	Yes	2.931	-0.004	1.0	GoodResponse	1	0.144	257.159	3	26	Target	Win	True
258.159	0.3	Win2	0.5926	0.004	Yes	2.931	-0.004	1.0	GoodResponse	1	0.144	n/a	3	26	ButtonPress	Win	True
258.283	0.44	Win2	0.5926	n/a	Yes	2.931	n/a	n/a	GoodResponse	1	n/a	n/a	3	26	Blank	Win	True
258.717	1.45	Win2	0.5926	n/a	Yes	2.931	n/a	5.0	GoodResponse	1	0.037	257.754	3	26	Feedback	Win	True
260.172	2.931	Win2	0.5926	n/a	Yes	2.931	n/a	n/a	GoodResponse	1	0.0	n/a	3	26	ISIslide	Win	True
263.13	0.25	Lose2	0.6071	0.001	Yes	2.82	0.03	n/a	GoodResponse	0	n/a	n/a	3	27	Cue	AvoidedLoss	False
263.381	4.05	Lose2	0.6071	0.0	Yes	2.82	0.001	1.0	GoodResponse	0	3.862	266.243	3	27	Fixation	AvoidedLoss	False
267.243	0.3	Lose2	0.6071	0.0	Yes	2.82	0.001	1.0	GoodResponse	0	3.862	n/a	3	27	ButtonPress	AvoidedLoss	False
267.427	0.27	Lose2	0.6071	0.003	Yes	2.82	-0.003	1.0	GoodResponse	0	0.231	266.658	3	27	Target	AvoidedLoss	False
267.658	0.3	Lose2	0.6071	0.003	Yes	2.82	-0.003	1.0	GoodResponse	0	0.231	n/a	3	27	ButtonPress	AvoidedLoss	False
267.711	0.43	Lose2	0.6071	n/a	Yes	2.82	n/a	n/a	GoodResponse	0	n/a	n/a	3	27	Blank	AvoidedLoss	False
268.129	1.45	Lose2	0.6071	n/a	Yes	2.82	n/a	5.0	GoodResponse	0	0.039	267.168	3	27	Feedback	AvoidedLoss	False
269.583	2.82	Lose2	0.6071	n/a	Yes	2.82	n/a	n/a	GoodResponse	0	0.0	n/a	3	27	ISIslide	AvoidedLoss	False
272.425	0.25	Control	0.5861999999999999	0.0	No	2.825	0.025	n/a	NoResponse	0	n/a	n/a	3	28	Cue	Neutral	True
272.676	4.05	Control	0.5861999999999999	0.0	No	2.825	0.001	n/a	NoResponse	0	n/a	n/a	3	28	Fixation	Neutral	True
276.721	0.28	Control	0.5861999999999999	0.004	No	2.825	-0.004	1.0	NoResponse	0	0.358	276.079	3	28	Target	Neutral	True
277.005	0.42	Control	0.5861999999999999	n/a	No	2.825	n/a	n/a	NoResponse	0	n/a	n/a	3	28	Blank	Neutral	True
277.079	0.3	Control	0.5861999999999999	0.004	No	2.825	-0.004	1.0	NoResponse	0	0.358	n/a	3	28	ButtonPress	Neutral	True
277.423	1.45	Control	0.5861999999999999	n/a	No	2.825	n/a	5.0	NoResponse	0	0.013	276.436	3	28	Feedback	Neutral	True
278.878	2.825	Control	0.5861999999999999	n/a	No	2.825	n/a	n/a	NoResponse	0	0.0	n/a	3	28	ISIslide	Neutral	True
281.719	0.25	Lose2	0.5667	0.001	No	2.831	0.019	n/a	NoResponse	-1	n/a	n/a	2	29	Cue	Loss	True
281.97	3.95	Lose2	0.5667	0.0	No	2.831	0.001	1.0	NoResponse	-1	0.157	281.127	2	29	Fixation	Loss	True
282.127	0.3	Lose2	0.5667	0.0	No	2.831	0.001	1.0	NoResponse	-1	0.157	n/a	2	29	ButtonPress	Loss	True
285.915	0.29	Lose2	0.5667	0.004	No	2.831	-0.004	n/a	NoResponse	-1	n/a	n/a	2	29	Target	Loss	True
286.216	0.41	Lose2	0.5667	n/a	No	2.831	n/a	n/a	NoResponse	-1	n/a	n/a	2	29	Blank	Loss	True
286.617	1.45	Lose2	0.5667	n/a	No	2.831	n/a	5.0	NoResponse	-1	0.038	285.655	2	29	Feedback	Loss	True
288.072	2.831	Lose2	0.5667	n/a	No	2.831	n/a	n/a	NoResponse	-1	0.0	n/a	2	29	ISIslide	Loss	True
290.93	0.25	Win2	0.5484	0.0	No	2.77	0.03	n/a	NoResponse	0	n/a	n/a	2	30	Cue	MissedWin	True
291.181	3.9	Win2	0.5484	0.0	No	2.77	0.001	n/a	NoResponse	0	n/a	n/a	2	30	Fixation	MissedWin	True
295.076	0.3	Win2	0.5484	0.004	No	2.77	-0.004	1.0	NoResponse	0	0.448	294.524	2	30	Target	MissedWin	True
295.377	0.4	Win2	0.5484	n/a	No	2.77	n/a	n/a	NoResponse	0	n/a	n/a	2	30	Blank	MissedWin	True
295.524	0.3	Win2	0.5484	0.004	No	2.77	-0.004	1.0	NoResponse	0	0.448	n/a	2	30	ButtonPress	MissedWin	True
295.778	1.45	Win2	0.5484	n/a	No	2.77	n/a	5.0	NoResponse	0	0.048	294.826	2	30	Feedback	MissedWin	True
297.233	2.77	Win2	0.5484	n/a	No	2.77	n/a	n/a	NoResponse	0	0.0	n/a	2	30	ISIslide	MissedWin	True
300.024	0.25	Lose2	0.5625	0.0	Yes	2.826	0.024	n/a	GoodResponse	0	n/a	n/a	2	31	Cue	AvoidedLoss	True
300.275	4.05	Lose2	0.5625	0.0	Yes	2.826	0.001	n/a	GoodResponse	0	n/a	n/a	2	31	Fixation	AvoidedLoss	True
304.32	0.31	Lose2	0.5625	0.004	Yes	2.826	-0.004	1.0	GoodResponse	0	0.167	303.487	2	31	Target	AvoidedLoss	True
304.487	0.3	Lose2	0.5625	0.004	Yes	2.826	-0.004	1.0	GoodResponse	0	0.167	n/a	2	31	ButtonPress	AvoidedLoss	True
304.638	0.39	Lose2	0.5625	n/a	Yes	2.826	n/a	n/a	GoodResponse	0	n/a	n/a	2	31	Blank	AvoidedLoss	True
305.023	1.45	Lose2	0.5625	n/a	Yes	2.826	n/a	5.0	GoodResponse	0	0.023	304.046	2	31	Feedback	AvoidedLoss	True
306.477	2.826	Lose2	0.5625	n/a	Yes	2.826	n/a	n/a	GoodResponse	0	0.0	n/a	2	31	ISIslide	AvoidedLoss	True
309.319	0.25	Lose2	0.5455	0.0	No	2.631	0.019	n/a	NoResponse	-1	n/a	n/a	1	32	Cue	Loss	True
309.569	4.15	Lose2	0.5455	0.001	No	2.631	0.0	n/a	NoResponse	-1	n/a	n/a	1	32	Fixation	Loss	True
313.715	0.32	Lose2	0.5455	0.004	No	2.631	-0.004	1.0	NoResponse	-1	0.542	313.257	1	32	Target	Loss	True
314.05	0.38	Lose2	0.5455	n/a	No	2.631	n/a	n/a	NoResponse	-1	n/a	n/a	1	32	Blank	Loss	True
314.257	0.3	Lose2	0.5455	0.004	No	2.631	-0.004	1.0	NoResponse	-1	0.542	n/a	1	32	ButtonPress	Loss	True
314.417	1.45	Lose2	0.5455	n/a	No	2.631	n/a	5.0	NoResponse	-1	0.044	313.461	1	32	Feedback	Loss	True
315.872	2.631	Lose2	0.5455	n/a	No	2.631	n/a	n/a	NoResponse	-1	0.0	n/a	1	32	ISIslide	Loss	True
318.53	0.25	Win2	0.5588000000000001	0.0	Yes	2.67	0.03	n/a	GoodResponse	1	n/a	n/a	2	33	Cue	Win	True
318.78	4.0	Win2	0.5588000000000001	0.0	Yes	2.67	0.0	n/a	GoodResponse	1	n/a	n/a	2	33	Fixation	Win	True
322.776	0.33	Win2	0.5588000000000001	0.004	Yes	2.67	-0.004	1.0	GoodResponse	1	0.178	321.954	2	33	Target	Win	True
322.954	0.3	Win2	0.5588000000000001	0.004	Yes	2.67	-0.004	1.0	GoodResponse	1	0.178	n/a	2	33	ButtonPress	Win	True
323.11	0.37	Win2	0.5588000000000001	n/a	Yes	2.67	n/a	n/a	GoodResponse	1	n/a	n/a	2	33	Blank	Win	True
323.478	1.45	Win2	0.5588000000000001	n/a	Yes	2.67	n/a	5.0	GoodResponse	1	0.006	322.484	2	33	Feedback	Win	True
324.932	2.67	Win2	0.5588000000000001	n/a	Yes	2.67	n/a	n/a	GoodResponse	1	0.0	n/a	2	33	ISIslide	Win	True
327.624	0.25	Lose2	0.5428999999999999	0.0	No	2.626	0.024	n/a	NoResponse	-1	n/a	n/a	1	34	Cue	Loss	True
327.874	4.05	Lose2	0.5428999999999999	0.0	No	2.626	0.0	1.0	NoResponse	-1	3.921	330.795	1	34	Fixation	Loss	True
331.795	0.3	Lose2	0.5428999999999999	0.0	No	2.626	0.0	1.0	NoResponse	-1	3.921	n/a	1	34	ButtonPress	Loss	True
331.92	0.34	Lose2	0.5428999999999999	0.004	No	2.626	-0.004	n/a	NoResponse	-1	n/a	n/a	1	34	Target	Loss	True
332.271	0.36	Lose2	0.5428999999999999	n/a	No	2.626	n/a	n/a	NoResponse	-1	n/a	n/a	1	34	Blank	Loss	True
332.622	1.45	Lose2	0.5428999999999999	n/a	No	2.626	n/a	5.0	NoResponse	-1	0.033	331.655	1	34	Feedback	Loss	True
334.076	2.626	Lose2	0.5428999999999999	n/a	No	2.626	n/a	n/a	NoResponse	-1	0.0	n/a	1	34	ISIslide	Loss	True
336.717	0.25	Lose2	0.5556	0.0	Yes	2.683	0.017	n/a	GoodResponse	0	n/a	n/a	1	35	Cue	AvoidedLoss	False
336.968	4.0	Lose2	0.5556	0.0	Yes	2.683	0.001	1.0	GoodResponse	0	3.741	339.709	1	35	Fixation	AvoidedLoss	False
340.709	0.3	Lose2	0.5556	0.0	Yes	2.683	0.001	1.0	GoodResponse	0	3.741	n/a	1	35	ButtonPress	AvoidedLoss	False
340.963	0.35	Lose2	0.5556	0.004	Yes	2.683	-0.004	1.0	GoodResponse	0	0.203	340.166	1	35	Target	AvoidedLoss	False
341.166	0.3	Lose2	0.5556	0.004	Yes	2.683	-0.004	1.0	GoodResponse	0	0.203	n/a	1	35	ButtonPress	AvoidedLoss	False
341.315	0.35	Lose2	0.5556	n/a	Yes	2.683	n/a	n/a	GoodResponse	0	n/a	n/a	1	35	Blank	AvoidedLoss	False
341.666	1.45	Lose2	0.5556	n/a	Yes	2.683	n/a	5.0	GoodResponse	0	0.013	340.679	1	35	Feedback	AvoidedLoss	False
343.12	2.683	Lose2	0.5556	n/a	Yes	2.683	n/a	n/a	GoodResponse	0	0.0	n/a	1	35	ISIslide	AvoidedLoss	False
345.828	0.25	Control	0.5676	0.0	Yes	2.672	0.028	n/a	GoodResponse	0	n/a	n/a	1	36	Cue	Neutral	True
346.079	4.0	Control	0.5676	0.0	Yes	2.672	0.001	n/a	GoodResponse	0	n/a	n/a	1	36	Fixation	Neutral	True
350.074	0.36	Control	0.5676	0.004	Yes	2.672	-0.004	1.0	GoodResponse	0	0.202	349.276	1	36	Target	Neutral	True
350.276	0.3	Control	0.5676	0.004	Yes	2.672	-0.004	1.0	GoodResponse	0	0.202	n/a	1	36	ButtonPress	Neutral	True
350.442	0.34	Control	0.5676	n/a	Yes	2.672	n/a	n/a	GoodResponse	0	n/a	n/a	1	36	Blank	Neutral	True
350.776	1.45	Control	0.5676	n/a	Yes	2.672	n/a	5.0	GoodResponse	0	0.025	349.801	1	36	Feedback	Neutral	True
352.231	2.672	Control	0.5676	n/a	Yes	2.672	n/a	n/a	GoodResponse	0	0.0	n/a	1	36	ISIslide	Neutral	True
354.922	0.25	Win2	0.5789	0.0	Yes	2.878	0.022	n/a	GoodResponse	1	n/a	n/a	2	37	Cue	Win	True
355.173	4.0	Win2	0.5789	0.0	Yes	2.878	0.001	n/a	GoodResponse	1	n/a	n/a	2	37	Fixation	Win	True
359.168	0.37	Win2	0.5789	0.004	Yes	2.878	-0.004	1.0	GoodResponse	1	0.258	358.426	2	37	Target	Win	True
359.426	0.3	Win2	0.5789	0.004	Yes	2.878	-0.004	1.0	GoodResponse	1	0.258	n/a	2	37	ButtonPress	Win	True
359.552	0.33	Win2	0.5789	n/a	Yes	2.878	n/a	n/a	GoodResponse	1	n/a	n/a	2	37	Blank	Win	True
359.87	1.45	Win2	0.5789	n/a	Yes	2.878	n/a	5.0	GoodResponse	1	0.007	358.877	2	37	Feedback	Win	True
361.324	2.878	Win2	0.5789	n/a	Yes	2.878	n/a	n/a	GoodResponse	1	0.0	n/a	2	37	ISIslide	Win	True
364.216	0.25	Lose2	0.5897	0.0	Yes	2.834	0.016	n/a	GoodResponse	0	n/a	n/a	2	38	Cue	AvoidedLoss	True
364.467	3.95	Lose2	0.5897	0.0	Yes	2.834	0.001	n/a	GoodResponse	0	n/a	n/a	2	38	Fixation	AvoidedLoss	True
368.412	0.38	Lose2	0.5897	0.004	Yes	2.834	-0.004	1.0	GoodResponse	0	0.24	367.652	2	38	Target	AvoidedLoss	True
368.652	0.3	Lose2	0.5897	0.004	Yes	2.834	-0.004	1.0	GoodResponse	0	0.24	n/a	2	38	ButtonPress	AvoidedLoss	True
368.797	0.32	Lose2	0.5897	n/a	Yes	2.834	n/a	n/a	GoodResponse	0	n/a	n/a	2	38	Blank	AvoidedLoss	True
369.114	1.45	Lose2	0.5897	n/a	Yes	2.834	n/a	5.0	GoodResponse	0	0.029	368.143	2	38	Feedback	AvoidedLoss	True
370.569	2.834	Lose2	0.5897	n/a	Yes	2.834	n/a	n/a	GoodResponse	0	0.0	n/a	2	38	ISIslide	AvoidedLoss	True
373.427	0.25	Win2	0.575	0.0	No	2.973	0.027	n/a	NoResponse	0	n/a	n/a	2	39	Cue	MissedWin	True
373.678	4.1	Win2	0.575	0.0	No	2.973	0.001	n/a	NoResponse	0	n/a	n/a	2	39	Fixation	MissedWin	True
377.774	0.39	Win2	0.575	0.003	No	2.973	-0.003	1.0	NoResponse	0	0.43	377.204	2	39	Target	MissedWin	True
378.175	0.31	Win2	0.575	n/a	No	2.973	n/a	n/a	NoResponse	0	n/a	n/a	2	39	Blank	MissedWin	True
378.204	0.3	Win2	0.575	0.003	No	2.973	-0.003	1.0	NoResponse	0	0.43	n/a	2	39	ButtonPress	MissedWin	True
378.476	1.45	Win2	0.575	n/a	No	2.973	n/a	5.0	NoResponse	0	0.032	377.508	2	39	Feedback	MissedWin	True
379.93	2.973	Win2	0.575	n/a	No	2.973	n/a	n/a	NoResponse	0	0.0	n/a	2	39	ISIslide	MissedWin	True
382.922	0.25	Win2	0.5854	0.0	Yes	2.728	0.022	n/a	GoodResponse	1	n/a	n/a	3	40	Cue	Win	True
383.173	3.95	Win2	0.5854	0.0	Yes	2.728	0.001	n/a	GoodResponse	1	n/a	n/a	3	40	Fixation	Win	True
387.118	0.4	Win2	0.5854	0.004	Yes	2.728	-0.004	1.0	GoodResponse	1	0.367	386.485	3	40	Target	Win	True
387.485	0.3	Win2	0.5854	0.004	Yes	2.728	-0.004	1.0	GoodResponse	1	0.367	n/a	3	40	ButtonPress	Win	True
387.519	0.3	Win2	0.5854	n/a	Yes	2.728	n/a	n/a	GoodResponse	1	n/a	n/a	3	40	Blank	Win	True
387.82	1.45	Win2	0.5854	n/a	Yes	2.728	n/a	5.0	GoodResponse	1	0.007	386.827	3	40	Feedback	Win	True
389.275	2.728	Win2	0.5854	n/a	Yes	2.728	n/a	n/a	GoodResponse	1	0.0	n/a	3	40	ISIslide	Win	True
392.016	0.25	Win2	0.5952000000000001	0.0	Yes	2.784	0.016	n/a	GoodResponse	1	n/a	n/a	4	41	Cue	Win	True
392.267	3.9	Win2	0.5952000000000001	0.0	Yes	2.784	0.001	n/a	GoodResponse	1	n/a	n/a	4	41	Fixation	Win	True
396.162	0.41	Win2	0.5952000000000001	0.004	Yes	2.784	-0.004	1.0	GoodResponse	1	0.349	395.511	4	41	Target	Win	True
396.511	0.3	Win2	0.5952000000000001	0.004	Yes	2.784	-0.004	1.0	GoodResponse	1	0.349	n/a	4	41	ButtonPress	Win	True
396.58	0.29	Win2	0.5952000000000001	n/a	Yes	2.784	n/a	n/a	GoodResponse	1	n/a	n/a	4	41	Blank	Win	True
396.864	1.45	Win2	0.5952000000000001	n/a	Yes	2.784	n/a	5.0	GoodResponse	1	0.034	395.898	4	41	Feedback	Win	True
398.318	2.784	Win2	0.5952000000000001	n/a	Yes	2.784	n/a	n/a	GoodResponse	1	0.0	n/a	4	41	ISIslide	Win	True
401.127	0.25	Control	0.5814	0.0	No	2.923	0.027	n/a	NoResponse	0	n/a	n/a	4	42	Cue	Neutral	True
401.378	3.85	Control	0.5814	0.0	No	2.923	0.001	1.0	NoResponse	0	3.817	404.195	4	42	Fixation	Neutral	True
405.195	0.3	Control	0.5814	0.0	No	2.923	0.001	1.0	NoResponse	0	3.817	n/a	4	42	ButtonPress	Neutral	True
405.222	0.42	Control	0.5814	0.005	No	2.923	-0.005	n/a	NoResponse	0	n/a	n/a	4	42	Target	Neutral	True
405.657	0.28	Control	0.5814	n/a	No	2.923	n/a	n/a	NoResponse	0	n/a	n/a	4	42	Blank	Neutral	True
405.925	1.45	Control	0.5814	n/a	No	2.923	n/a	5.0	NoResponse	0	0.047	404.972	4	42	Feedback	Neutral	True
407.379	2.923	Control	0.5814	n/a	No	2.923	n/a	n/a	NoResponse	0	0.0	n/a	4	42	ISIslide	Neutral	True
410.321	0.25	Win2	0.5682	0.0	No	3.179	0.021	n/a	NoResponse	0	n/a	n/a	4	43	Cue	MissedWin	True
410.572	4.0	Win2	0.5682	0.0	No	3.179	0.001	n/a	NoResponse	0	n/a	n/a	4	43	Fixation	MissedWin	True
414.567	0.43	Win2	0.5682	0.004	No	3.179	-0.004	1.0	NoResponse	0	0.607	414.174	4	43	Target	MissedWin	True
415.002	0.27	Win2	0.5682	n/a	No	3.179	n/a	n/a	NoResponse	0	n/a	n/a	4	43	Blank	MissedWin	True
415.174	0.3	Win2	0.5682	0.004	No	3.179	-0.004	1.0	NoResponse	0	0.607	n/a	4	43	ButtonPress	MissedWin	True
415.269	1.45	Win2	0.5682	n/a	No	3.179	n/a	5.0	NoResponse	0	0.02	414.289	4	43	Feedback	MissedWin	True
416.724	3.179	Win2	0.5682	n/a	No	3.179	n/a	n/a	NoResponse	0	0.0	n/a	4	43	ISIslide	MissedWin	True
419.916	0.25	Win2	0.5778	0.001	Yes	2.984	0.016	n/a	GoodResponse	1	n/a	n/a	5	44	Cue	Win	True
420.167	4.0	Win2	0.5778	0.0	Yes	2.984	0.001	n/a	GoodResponse	1	n/a	n/a	5	44	Fixation	Win	True
424.162	0.44	Win2	0.5778	0.004	Yes	2.984	-0.004	1.0	GoodResponse	1	0.368	423.53	5	44	Target	Win	True
424.53	0.3	Win2	0.5778	0.004	Yes	2.984	-0.004	1.0	GoodResponse	1	0.368	n/a	5	44	ButtonPress	Win	True
424.614	0.26	Win2	0.5778	n/a	Yes	2.984	n/a	n/a	GoodResponse	1	n/a	n/a	5	44	Blank	Win	True
424.865	1.45	Win2	0.5778	n/a	Yes	2.984	n/a	5.0	GoodResponse	1	0.033	423.898	5	44	Feedback	Win	True
426.319	2.984	Win2	0.5778	n/a	Yes	2.984	n/a	n/a	GoodResponse	1	0.0	n/a	5	44	ISIslide	Win	True
429.328	0.25	Control	0.5652	0.0	No	2.872	0.028	n/a	NoResponse	0	n/a	n/a	5	45	Cue	Neutral	True
429.579	4.1	Control	0.5652	0.0	No	2.872	0.001	n/a	NoResponse	0	n/a	n/a	5	45	Fixation	Neutral	True
433.674	0.45	Control	0.5652	0.004	No	2.872	-0.004	1.0	NoResponse	0	0.54	433.214	5	45	Target	Neutral	True
434.126	0.25	Control	0.5652	n/a	No	2.872	n/a	n/a	NoResponse	0	n/a	n/a	5	45	Blank	Neutral	True
434.214	0.3	Control	0.5652	0.004	No	2.872	-0.004	1.0	NoResponse	0	0.54	n/a	5	45	ButtonPress	Neutral	True
434.376	1.45	Control	0.5652	n/a	No	2.872	n/a	5.0	NoResponse	0	0.034	433.41	5	45	Feedback	Neutral	True
435.831	2.872	Control	0.5652	n/a	No	2.872	n/a	n/a	NoResponse	0	0.0	n/a	5	45	ISIslide	Neutral	True
438.723	0.25	Lose2	0.5745	0.0	Yes	3.377	0.023	n/a	GoodResponse	0	n/a	n/a	5	46	Cue	AvoidedLoss	False
438.973	4.0	Lose2	0.5745	0.001	Yes	3.377	0.0	1.0	GoodResponse	0	0.438	438.411	5	46	Fixation	AvoidedLoss	False
439.411	0.3	Lose2	0.5745	0.001	Yes	3.377	0.0	1.0	GoodResponse	0	0.438	n/a	5	46	ButtonPress	AvoidedLoss	False
442.969	0.46	Lose2	0.5745	0.004	Yes	3.377	-0.004	1.0	GoodResponse	0	0.263	442.232	5	46	Target	AvoidedLoss	False
443.232	0.3	Lose2	0.5745	0.004	Yes	3.377	-0.004	1.0	GoodResponse	0	0.263	n/a	5	46	ButtonPress	AvoidedLoss	False
443.437	0.24	Lose2	0.5745	n/a	Yes	3.377	n/a	n/a	GoodResponse	0	n/a	n/a	5	46	Blank	AvoidedLoss	False
443.671	1.45	Lose2	0.5745	n/a	Yes	3.377	n/a	5.0	GoodResponse	0	0.007	442.678	5	46	Feedback	AvoidedLoss	False
445.125	3.377	Lose2	0.5745	n/a	Yes	3.377	n/a	n/a	GoodResponse	0	0.0	n/a	5	46	ISIslide	AvoidedLoss	False
448.519	0.25	Lose2	0.5832999999999999	0.0	Yes	2.681	0.019	n/a	GoodResponse	0	n/a	n/a	5	47	Cue	AvoidedLoss	True
448.769	4.0	Lose2	0.5832999999999999	0.001	Yes	2.681	0.0	n/a	GoodResponse	0	n/a	n/a	5	47	Fixation	AvoidedLoss	True
452.765	0.47	Lose2	0.5832999999999999	0.004	Yes	2.681	-0.004	1.0	GoodResponse	0	0.416	452.181	5	47	Target	AvoidedLoss	True
453.181	0.3	Lose2	0.5832999999999999	0.004	Yes	2.681	-0.004	1.0	GoodResponse	0	0.416	n/a	5	47	ButtonPress	AvoidedLoss	True
453.25	0.23	Lose2	0.5832999999999999	n/a	Yes	2.681	n/a	n/a	GoodResponse	0	n/a	n/a	5	47	Blank	AvoidedLoss	True
453.467	1.45	Lose2	0.5832999999999999	n/a	Yes	2.681	n/a	5.0	GoodResponse	0	0.016	452.483	5	47	Feedback	AvoidedLoss	True
454.921	2.681	Lose2	0.5832999999999999	n/a	Yes	2.681	n/a	n/a	GoodResponse	0	0.0	n/a	5	47	ISIslide	AvoidedLoss	True
457.629	0.25	Lose2	0.5714	0.0	No	3.021	0.029	n/a	NoResponse	-1	n/a	n/a	4	48	Cue	Loss	True
457.88	3.95	Lose2	0.5714	0.0	No	3.021	0.001	n/a	NoResponse	-1	n/a	n/a	4	48	Fixation	Loss	True
461.825	0.48	Lose2	0.5714	0.004	No	3.021	-0.004	1.0	NoResponse	-1	0.613	461.438	4	48	Target	Loss	True
462.31	0.22	Lose2	0.5714	n/a	No	3.021	n/a	n/a	NoResponse	-1	n/a	n/a	4	48	Blank	Loss	True
462.438	0.3	Lose2	0.5714	0.004	No	3.021	-0.004	1.0	NoResponse	-1	0.613	n/a	4	48	ButtonPress	Loss	True
462.527	1.45	Lose2	0.5714	n/a	No	3.021	n/a	5.0	NoResponse	-1	0.03	461.557	4	48	Feedback	Loss	True
463.982	3.021	Lose2	0.5714	n/a	No	3.021	n/a	n/a	NoResponse	-1	0.0	n/a	4	48	ISIslide	Loss	True
467.024	0.25	Control	0.58	0.0	Yes	2.876	0.024	n/a	GoodResponse	0	n/a	n/a	4	49	Cue	Neutral	True
467.275	4.0	Control	0.58	0.0	Yes	2.876	0.001	n/a	GoodResponse	0	n/a	n/a	4	49	Fixation	Neutral	True
471.27	0.49	Control	0.58	0.004	Yes	2.876	-0.004	1.0	GoodResponse	0	0.464	470.734	4	49	Target	Neutral	True
471.734	0.3	Control	0.58	0.004	Yes	2.876	-0.004	1.0	GoodResponse	0	0.464	n/a	4	49	ButtonPress	Neutral	True
471.772	0.21	Control	0.58	n/a	Yes	2.876	n/a	n/a	GoodResponse	0	n/a	n/a	4	49	Blank	Neutral	True
471.972	1.45	Control	0.58	n/a	Yes	2.876	n/a	5.0	GoodResponse	0	0.047	471.019	4	49	Feedback	Neutral	True
473.427	2.876	Control	0.58	n/a	Yes	2.876	n/a	n/a	GoodResponse	0	0.0	n/a	4	49	ISIslide	Neutral	True
476.319	0.25	Control	0.5686	0.0	No	2.781	0.019	n/a	PrematurePress	0	n/a	n/a	4	50	Cue	Neutral	False
476.569	4.0	Control	0.5686	0.0	No	2.781	0.0	1.0	PrematurePress	0	0.175	475.744	4	50	Fixation	Neutral	False
476.744	0.3	Control	0.5686	0.0	No	2.781	0.0	1.0	PrematurePress	0	0.175	n/a	4	50	ButtonPress	Neutral	False
480.565	0.5	Control	0.5686	0.004	No	2.781	-0.004	1.0	PrematurePress	0	0.033	479.598	4	50	Target	Neutral	False
480.598	0.3	Control	0.5686	0.004	No	2.781	-0.004	1.0	PrematurePress	0	0.033	n/a	4	50	ButtonPress	Neutral	False
481.066	0.2	Control	0.5686	n/a	No	2.781	n/a	n/a	PrematurePress	0	n/a	n/a	4	50	Blank	Neutral	False
481.267	1.45	Control	0.5686	n/a	No	2.781	n/a	5.0	PrematurePress	0	0.021	480.288	4	50	Feedback	Neutral	False
482.721	2.781	Control	0.5686	n/a	No	2.781	n/a	n/a	PrematurePress	0	0.0	n/a	4	50	ISIslide	Neutral	False
485.53	0.25	Control	0.5769	0.0	Yes	2.72	0.03	n/a	GoodResponse	0	n/a	n/a	4	51	Cue	Neutral	True
485.78	3.95	Control	0.5769	0.0	Yes	2.72	0.0	n/a	GoodResponse	0	n/a	n/a	4	51	Fixation	Neutral	True
489.742	0.5	Control	0.5769	0.0	Yes	2.72	0.012	1.0	GoodResponse	0	0.428	489.17	4	51	Target	Neutral	True
490.17	0.3	Control	0.5769	0.0	Yes	2.72	0.012	1.0	GoodResponse	0	0.428	n/a	4	51	ButtonPress	Neutral	True
490.227	0.2	Control	0.5769	n/a	Yes	2.72	n/a	n/a	GoodResponse	0	n/a	n/a	4	51	Blank	Neutral	True
490.428	1.45	Control	0.5769	n/a	Yes	2.72	n/a	5.0	GoodResponse	0	0.03	489.458	4	51	Feedback	Neutral	True
491.882	2.72	Control	0.5769	n/a	Yes	2.72	n/a	n/a	GoodResponse	0	0.0	n/a	4	51	ISIslide	Neutral	True
494.623	0.25	Control	0.5660000000000001	0.0	No	2.627	0.023	n/a	NoResponse	0	n/a	n/a	4	52	Cue	Neutral	True
494.874	4.05	Control	0.5660000000000001	0.0	No	2.627	0.001	n/a	NoResponse	0	n/a	n/a	4	52	Fixation	Neutral	True
498.92	0.5	Control	0.5660000000000001	0.003	No	2.627	-0.003	1.0	NoResponse	0	0.582	498.502	4	52	Target	Neutral	True
499.421	0.2	Control	0.5660000000000001	n/a	No	2.627	n/a	n/a	NoResponse	0	n/a	n/a	4	52	Blank	Neutral	True
499.502	0.3	Control	0.5660000000000001	0.003	No	2.627	-0.003	1.0	NoResponse	0	0.582	n/a	4	52	ButtonPress	Neutral	True
499.622	1.45	Control	0.5660000000000001	n/a	No	2.627	n/a	5.0	NoResponse	0	0.007	498.629	4	52	Feedback	Neutral	True
501.076	2.627	Control	0.5660000000000001	n/a	No	2.627	n/a	n/a	NoResponse	0	0.0	n/a	4	52	ISIslide	Neutral	True
503.717	0.25	Win2	0.5740999999999999	0.0	Yes	2.933	0.017	n/a	GoodResponse	1	n/a	n/a	5	53	Cue	Win	True
503.968	4.05	Win2	0.5740999999999999	0.0	Yes	2.933	0.001	n/a	GoodResponse	1	n/a	n/a	5	53	Fixation	Win	True
508.013	0.5	Win2	0.5740999999999999	0.004	Yes	2.933	-0.004	1.0	GoodResponse	1	0.237	507.25	5	53	Target	Win	True
508.25	0.3	Win2	0.5740999999999999	0.004	Yes	2.933	-0.004	1.0	GoodResponse	1	0.237	n/a	5	53	ButtonPress	Win	True
508.515	0.2	Win2	0.5740999999999999	n/a	Yes	2.933	n/a	n/a	GoodResponse	1	n/a	n/a	5	53	Blank	Win	True
508.716	1.45	Win2	0.5740999999999999	n/a	Yes	2.933	n/a	5.0	GoodResponse	1	0.035	507.751	5	53	Feedback	Win	True
510.17	2.933	Win2	0.5740999999999999	n/a	Yes	2.933	n/a	n/a	GoodResponse	1	0.0	n/a	5	53	ISIslide	Win	True
513.129	0.25	Win2	0.5818	0.0	Yes	2.721	0.029	n/a	GoodResponse	1	n/a	n/a	6	54	Cue	Win	True
513.38	3.95	Win2	0.5818	0.0	Yes	2.721	0.001	n/a	GoodResponse	1	n/a	n/a	6	54	Fixation	Win	True
517.325	0.5	Win2	0.5818	0.004	Yes	2.721	-0.004	1.0	GoodResponse	1	0.454	516.779	6	54	Target	Win	True
517.779	0.3	Win2	0.5818	0.004	Yes	2.721	-0.004	1.0	GoodResponse	1	0.454	n/a	6	54	ButtonPress	Win	True
517.826	0.2	Win2	0.5818	n/a	Yes	2.721	n/a	n/a	GoodResponse	1	n/a	n/a	6	54	Blank	Win	True
518.027	1.45	Win2	0.5818	n/a	Yes	2.721	n/a	5.0	GoodResponse	1	0.042	517.069	6	54	Feedback	Win	True
519.481	2.721	Win2	0.5818	n/a	Yes	2.721	n/a	n/a	GoodResponse	1	0.0	n/a	6	54	ISIslide	Win	True
522.223	0.25	Control	0.5893	0.0	Yes	3.027	0.023	n/a	GoodResponse	0	n/a	n/a	6	55	Cue	Neutral	True
522.473	3.95	Control	0.5893	0.001	Yes	3.027	0.0	n/a	GoodResponse	0	n/a	n/a	6	55	Fixation	Neutral	True
526.419	0.5	Control	0.5893	0.004	Yes	3.027	-0.004	1.0	GoodResponse	0	0.19	525.609	6	55	Target	Neutral	True
526.609	0.3	Control	0.5893	0.004	Yes	3.027	-0.004	1.0	GoodResponse	0	0.19	n/a	6	55	ButtonPress	Neutral	True
526.92	0.2	Control	0.5893	n/a	Yes	3.027	n/a	n/a	GoodResponse	0	n/a	n/a	6	55	Blank	Neutral	True
527.121	1.45	Control	0.5893	n/a	Yes	3.027	n/a	5.0	GoodResponse	0	0.02	526.141	6	55	Feedback	Neutral	True
528.575	3.027	Control	0.5893	n/a	Yes	3.027	n/a	n/a	GoodResponse	0	0.0	n/a	6	55	ISIslide	Neutral	True
531.617	0.25	Control	0.5789	0.001	No	2.833	0.017	n/a	NoResponse	0	n/a	n/a	6	56	Cue	Neutral	True
531.868	3.95	Control	0.5789	0.0	No	2.833	0.001	n/a	NoResponse	0	n/a	n/a	6	56	Fixation	Neutral	True
535.813	0.5	Control	0.5789	0.004	No	2.833	-0.004	1.0	NoResponse	0	0.531	535.344	6	56	Target	Neutral	True
536.315	0.2	Control	0.5789	n/a	No	2.833	n/a	n/a	NoResponse	0	n/a	n/a	6	56	Blank	Neutral	True
536.344	0.3	Control	0.5789	0.004	No	2.833	-0.004	1.0	NoResponse	0	0.531	n/a	6	56	ButtonPress	Neutral	True
536.515	1.45	Control	0.5789	n/a	No	2.833	n/a	5.0	NoResponse	0	0.041	535.556	6	56	Feedback	Neutral	True
537.97	2.833	Control	0.5789	n/a	No	2.833	n/a	n/a	NoResponse	0	0.0	n/a	6	56	ISIslide	Neutral	True
540.828	0.25	Control	0.569	0.0	No	3.472	0.028	n/a	PrematurePress	0	n/a	n/a	6	57	Cue	Neutral	True
541.079	4.0	Control	0.569	0.0	No	3.472	0.001	n/a	PrematurePress	0	n/a	n/a	6	57	Fixation	Neutral	True
545.074	0.5	Control	0.569	0.004	No	3.472	-0.004	1.0	PrematurePress	0	0.076	544.15	6	57	Target	Neutral	True
545.15	0.3	Control	0.569	0.004	No	3.472	-0.004	1.0	PrematurePress	0	0.076	n/a	6	57	ButtonPress	Neutral	True
545.576	0.2	Control	0.569	n/a	No	3.472	n/a	n/a	PrematurePress	0	n/a	n/a	6	57	Blank	Neutral	True
545.777	1.45	Control	0.569	n/a	No	3.472	n/a	5.0	PrematurePress	0	0.047	544.824	6	57	Feedback	Neutral	True
547.231	3.472	Control	0.569	n/a	No	3.472	n/a	n/a	PrematurePress	0	0.0	n/a	6	57	ISIslide	Neutral	True
550.725	0.25	Win2	0.5763	0.0	Yes	2.725	0.025	n/a	GoodResponse	1	n/a	n/a	7	58	Cue	Win	True
550.975	4.05	Win2	0.5763	0.0	Yes	2.725	0.0	n/a	GoodResponse	1	n/a	n/a	7	58	Fixation	Win	True
555.021	0.5	Win2	0.5763	0.004	Yes	2.725	-0.004	1.0	GoodResponse	1	0.203	554.224	7	58	Target	Win	True
555.224	0.3	Win2	0.5763	0.004	Yes	2.725	-0.004	1.0	GoodResponse	1	0.203	n/a	7	58	ButtonPress	Win	True
555.522	0.2	Win2	0.5763	n/a	Yes	2.725	n/a	n/a	GoodResponse	1	n/a	n/a	7	58	Blank	Win	True
555.723	1.45	Win2	0.5763	n/a	Yes	2.725	n/a	5.0	GoodResponse	1	0.007	554.73	7	58	Feedback	Win	True
557.177	2.725	Win2	0.5763	n/a	Yes	2.725	n/a	n/a	GoodResponse	1	0.0	n/a	7	58	ISIslide	Win	True
559.919	0.25	Lose2	0.5832999999999999	0.0	Yes	2.681	0.019	n/a	GoodResponse	0	n/a	n/a	7	59	Cue	AvoidedLoss	True
560.17	4.0	Lose2	0.5832999999999999	0.0	Yes	2.681	0.001	n/a	GoodResponse	0	n/a	n/a	7	59	Fixation	AvoidedLoss	True
564.165	0.5	Lose2	0.5832999999999999	0.004	Yes	2.681	-0.004	1.0	GoodResponse	0	0.353	563.518	7	59	Target	AvoidedLoss	True
564.518	0.3	Lose2	0.5832999999999999	0.004	Yes	2.681	-0.004	1.0	GoodResponse	0	0.353	n/a	7	59	ButtonPress	AvoidedLoss	True
564.666	0.2	Lose2	0.5832999999999999	n/a	Yes	2.681	n/a	n/a	GoodResponse	0	n/a	n/a	7	59	Blank	AvoidedLoss	True
564.867	1.45	Lose2	0.5832999999999999	n/a	Yes	2.681	n/a	5.0	GoodResponse	0	0.03	563.897	7	59	Feedback	AvoidedLoss	True
566.321	2.681	Lose2	0.5832999999999999	n/a	Yes	2.681	n/a	n/a	GoodResponse	0	0.0	n/a	7	59	ISIslide	AvoidedLoss	True
569.029	0.25	Control	0.5738	0.001	No	2.671	0.029	n/a	PrematurePress	0	n/a	n/a	7	60	Cue	Neutral	False
569.28	4.0	Control	0.5738	0.0	No	2.671	0.001	1.0	PrematurePress	0	3.235	571.515	7	60	Fixation	Neutral	False
572.515	0.3	Control	0.5738	0.0	No	2.671	0.001	1.0	PrematurePress	0	3.235	n/a	7	60	ButtonPress	Neutral	False
573.276	0.5	Control	0.5738	0.003	No	2.671	-0.003	1.0	PrematurePress	0	0.074	572.35	7	60	Target	Neutral	False
573.35	0.3	Control	0.5738	0.003	No	2.671	-0.003	1.0	PrematurePress	0	0.074	n/a	7	60	ButtonPress	Neutral	False
573.777	0.2	Control	0.5738	n/a	No	2.671	n/a	n/a	PrematurePress	0	n/a	n/a	7	60	Blank	Neutral	False
573.978	1.45	Control	0.5738	n/a	No	2.671	n/a	5.0	PrematurePress	0	0.04	573.018	7	60	Feedback	Neutral	False
575.432	2.671	Control	0.5738	n/a	No	2.671	n/a	n/a	PrematurePress	0	0.0	n/a	7	60	ISIslide	Neutral	False
578.123	0.25	Lose2	0.5806	0.0	Yes	2.977	0.023	n/a	GoodResponse	0	n/a	n/a	7	61	Cue	AvoidedLoss	True
578.374	4.0	Lose2	0.5806	0.0	Yes	2.977	0.001	n/a	GoodResponse	0	n/a	n/a	7	61	Fixation	AvoidedLoss	True
582.369	0.5	Lose2	0.5806	0.004	Yes	2.977	-0.004	1.0	GoodResponse	0	0.177	581.546	7	61	Target	AvoidedLoss	True
582.546	0.3	Lose2	0.5806	0.004	Yes	2.977	-0.004	1.0	GoodResponse	0	0.177	n/a	7	61	ButtonPress	AvoidedLoss	True
582.871	0.2	Lose2	0.5806	n/a	Yes	2.977	n/a	n/a	GoodResponse	0	n/a	n/a	7	61	Blank	AvoidedLoss	True
583.071	1.45	Lose2	0.5806	n/a	Yes	2.977	n/a	5.0	GoodResponse	0	0.021	582.092	7	61	Feedback	AvoidedLoss	True
584.526	2.977	Lose2	0.5806	n/a	Yes	2.977	n/a	n/a	GoodResponse	0	0.0	n/a	7	61	ISIslide	AvoidedLoss	True
587.518	0.25	Lose2	0.5872999999999999	0.0	Yes	2.882	0.018	n/a	GoodResponse	0	n/a	n/a	7	62	Cue	AvoidedLoss	True
587.769	3.9	Lose2	0.5872999999999999	0.0	Yes	2.882	0.001	n/a	GoodResponse	0	n/a	n/a	7	62	Fixation	AvoidedLoss	True
591.664	0.5	Lose2	0.5872999999999999	0.004	Yes	2.882	-0.004	1.0	GoodResponse	0	0.392	591.056	7	62	Target	AvoidedLoss	True
592.056	0.3	Lose2	0.5872999999999999	0.004	Yes	2.882	-0.004	1.0	GoodResponse	0	0.392	n/a	7	62	ButtonPress	AvoidedLoss	True
592.165	0.2	Lose2	0.5872999999999999	n/a	Yes	2.882	n/a	n/a	GoodResponse	0	n/a	n/a	7	62	Blank	AvoidedLoss	True
592.366	1.45	Lose2	0.5872999999999999	n/a	Yes	2.882	n/a	5.0	GoodResponse	0	0.043	591.409	7	62	Feedback	AvoidedLoss	True
593.82	2.882	Lose2	0.5872999999999999	n/a	Yes	2.882	n/a	n/a	GoodResponse	0	0.0	n/a	7	62	ISIslide	AvoidedLoss	True
596.729	0.25	Lose2	0.5938	0.0	Yes	2.621	0.029	n/a	GoodResponse	0	n/a	n/a	7	63	Cue	AvoidedLoss	True
596.98	4.05	Lose2	0.5938	0.0	Yes	2.621	0.001	n/a	GoodResponse	0	n/a	n/a	7	63	Fixation	AvoidedLoss	True
601.025	0.5	Lose2	0.5938	0.004	Yes	2.621	-0.004	1.0	GoodResponse	0	0.184	600.209	7	63	Target	AvoidedLoss	True
601.209	0.3	Lose2	0.5938	0.004	Yes	2.621	-0.004	1.0	GoodResponse	0	0.184	n/a	7	63	ButtonPress	AvoidedLoss	True
601.527	0.2	Lose2	0.5938	n/a	Yes	2.621	n/a	n/a	GoodResponse	0	n/a	n/a	7	63	Blank	AvoidedLoss	True
601.727	1.45	Lose2	0.5938	n/a	Yes	2.621	n/a	5.0	GoodResponse	0	0.048	600.775	7	63	Feedback	AvoidedLoss	True
603.182	2.621	Lose2	0.5938	n/a	Yes	2.621	n/a	n/a	GoodResponse	0	0.0	n/a	7	63	ISIslide	AvoidedLoss	True
605.823	0.25	Win2	0.5846	0.0	No	3.127	0.023	n/a	NoResponse	0	n/a	n/a	7	64	Cue	MissedWin	True
606.074	4.15	Win2	0.5846	0.0	No	3.127	0.001	1.0	NoResponse	0	4.077	609.151	7	64	Fixation	MissedWin	True
610.151	0.3	Win2	0.5846	0.0	No	3.127	0.001	1.0	NoResponse	0	4.077	n/a	7	64	ButtonPress	MissedWin	True
610.219	0.5	Win2	0.5846	0.004	No	3.127	-0.004	n/a	NoResponse	0	n/a	n/a	7	64	Target	MissedWin	True
610.721	0.2	Win2	0.5846	n/a	No	3.127	n/a	n/a	NoResponse	0	n/a	n/a	7	64	Blank	MissedWin	True
610.922	1.45	Win2	0.5846	n/a	No	3.127	n/a	5.0	NoResponse	0	0.024	609.946	7	64	Feedback	MissedWin	True
612.376	3.127	Win2	0.5846	n/a	No	3.127	n/a	n/a	NoResponse	0	0.0	n/a	7	64	ISIslide	MissedWin	True
615.519	0.25	Control	0.5909	0.0	Yes	2.781	0.019	n/a	GoodResponse	0	n/a	n/a	7	65	Cue	Neutral	True
615.769	4.0	Control	0.5909	0.0	Yes	2.781	0.0	n/a	GoodResponse	0	n/a	n/a	7	65	Fixation	Neutral	True
619.765	0.5	Control	0.5909	0.004	Yes	2.781	-0.004	1.0	GoodResponse	0	0.23	618.995	7	65	Target	Neutral	True
619.995	0.3	Control	0.5909	0.004	Yes	2.781	-0.004	1.0	GoodResponse	0	0.23	n/a	7	65	ButtonPress	Neutral	True
620.266	0.2	Control	0.5909	n/a	Yes	2.781	n/a	n/a	GoodResponse	0	n/a	n/a	7	65	Blank	Neutral	True
620.467	1.45	Control	0.5909	n/a	Yes	2.781	n/a	5.0	GoodResponse	0	0.04	619.507	7	65	Feedback	Neutral	True
621.921	2.781	Control	0.5909	n/a	Yes	2.781	n/a	n/a	GoodResponse	0	0.0	n/a	7	65	ISIslide	Neutral	True
624.73	0.25	Win2	0.597	0.0	Yes	2.77	0.03	n/a	GoodResponse	1	n/a	n/a	8	66	Cue	Win	True
624.98	3.9	Win2	0.597	0.0	Yes	2.77	0.0	n/a	GoodResponse	1	n/a	n/a	8	66	Fixation	Win	True
628.892	0.5	Win2	0.597	0.0	Yes	2.77	0.012	1.0	GoodResponse	1	0.457	628.349	8	66	Target	Win	True
629.349	0.3	Win2	0.597	0.0	Yes	2.77	0.012	1.0	GoodResponse	1	0.457	n/a	8	66	ButtonPress	Win	True
629.377	0.2	Win2	0.597	n/a	Yes	2.77	n/a	n/a	GoodResponse	1	n/a	n/a	8	66	Blank	Win	True
629.577	1.45	Win2	0.597	n/a	Yes	2.77	n/a	5.0	GoodResponse	1	0.002	628.579	8	66	Feedback	Win	True
631.032	2.77	Win2	0.597	n/a	Yes	2.77	n/a	n/a	GoodResponse	1	0.0	n/a	8	66	ISIslide	Win	True
633.823	0.25	Control	0.5882000000000001	0.001	No	2.727	0.023	n/a	LatePress	0	n/a	n/a	8	67	Cue	Neutral	True
634.074	3.95	Control	0.5882000000000001	0.0	No	2.727	0.001	n/a	LatePress	0	n/a	n/a	8	67	Fixation	Neutral	True
638.019	0.5	Control	0.5882000000000001	0.004	No	2.727	-0.004	1.0	LatePress	0	0.502	637.521	8	67	Target	Neutral	True
638.521	0.2	Control	0.5882000000000001	n/a	No	2.727	n/a	n/a	LatePress	0	n/a	n/a	8	67	Blank	Neutral	True
638.521	0.3	Control	0.5882000000000001	0.004	No	2.727	-0.004	1.0	LatePress	0	0.502	n/a	8	67	ButtonPress	Neutral	True
638.721	1.45	Control	0.5882000000000001	n/a	No	2.727	n/a	5.0	LatePress	0	0.029	637.75	8	67	Feedback	Neutral	True
640.176	2.727	Control	0.5882000000000001	n/a	No	2.727	n/a	n/a	LatePress	0	0.0	n/a	8	67	ISIslide	Neutral	True
642.917	0.25	Win2	0.5942000000000001	0.0	Yes	3.083	0.017	n/a	GoodResponse	1	n/a	n/a	9	68	Cue	Win	True
643.168	4.0	Win2	0.5942000000000001	0.0	Yes	3.083	0.001	n/a	GoodResponse	1	n/a	n/a	9	68	Fixation	Win	True
647.163	0.5	Win2	0.5942000000000001	0.004	Yes	3.083	-0.004	1.0	GoodResponse	1	0.269	646.432	9	68	Target	Win	True
647.432	0.3	Win2	0.5942000000000001	0.004	Yes	3.083	-0.004	1.0	GoodResponse	1	0.269	n/a	9	68	ButtonPress	Win	True
647.665	0.2	Win2	0.5942000000000001	n/a	Yes	3.083	n/a	n/a	GoodResponse	1	n/a	n/a	9	68	Blank	Win	True
647.865	1.45	Win2	0.5942000000000001	n/a	Yes	3.083	n/a	5.0	GoodResponse	1	0.007	646.872	9	68	Feedback	Win	True
649.32	3.083	Win2	0.5942000000000001	n/a	Yes	3.083	n/a	n/a	GoodResponse	1	0.0	n/a	9	68	ISIslide	Win	True
652.429	0.25	Win2	0.6	0.0	Yes	3.221	0.029	n/a	GoodResponse	1	n/a	n/a	10	69	Cue	Win	True
652.68	3.95	Win2	0.6	0.0	Yes	3.221	0.001	n/a	GoodResponse	1	n/a	n/a	10	69	Fixation	Win	True
656.625	0.5	Win2	0.6	0.004	Yes	3.221	-0.004	1.0	GoodResponse	1	0.227	655.852	10	69	Target	Win	True
656.852	0.3	Win2	0.6	0.004	Yes	3.221	-0.004	1.0	GoodResponse	1	0.227	n/a	10	69	ButtonPress	Win	True
657.126	0.2	Win2	0.6	n/a	Yes	3.221	n/a	n/a	GoodResponse	1	n/a	n/a	10	69	Blank	Win	True
657.327	1.45	Win2	0.6	n/a	Yes	3.221	n/a	5.0	GoodResponse	1	0.008	656.335	10	69	Feedback	Win	True
658.781	3.221	Win2	0.6	n/a	Yes	3.221	n/a	n/a	GoodResponse	1	0.0	n/a	10	69	ISIslide	Win	True
662.024	0.25	Lose2	0.6056	0.001	Yes	3.026	0.024	n/a	GoodResponse	0	n/a	n/a	10	70	Cue	AvoidedLoss	True
662.275	4.05	Lose2	0.6056	0.0	Yes	3.026	0.001	n/a	GoodResponse	0	n/a	n/a	10	70	Fixation	AvoidedLoss	True
666.321	0.5	Lose2	0.6056	0.003	Yes	3.026	-0.003	1.0	GoodResponse	0	0.28	665.601	10	70	Target	AvoidedLoss	True
666.601	0.3	Lose2	0.6056	0.003	Yes	3.026	-0.003	1.0	GoodResponse	0	0.28	n/a	10	70	ButtonPress	AvoidedLoss	True
666.822	0.2	Lose2	0.6056	n/a	Yes	3.026	n/a	n/a	GoodResponse	0	n/a	n/a	10	70	Blank	AvoidedLoss	True
667.023	1.45	Lose2	0.6056	n/a	Yes	3.026	n/a	5.0	GoodResponse	0	0.02	666.043	10	70	Feedback	AvoidedLoss	True
668.477	3.026	Lose2	0.6056	n/a	Yes	3.026	n/a	n/a	GoodResponse	0	0.0	n/a	10	70	ISIslide	AvoidedLoss	True
671.52	0.25	Win2	0.6111	0.0	Yes	2.73	0.02	n/a	GoodResponse	1	n/a	n/a	11	71	Cue	Win	True
671.77	4.05	Win2	0.6111	0.0	Yes	2.73	0.0	n/a	GoodResponse	1	n/a	n/a	11	71	Fixation	Win	True
675.816	0.5	Win2	0.6111	0.004	Yes	2.73	-0.004	1.0	GoodResponse	1	0.236	675.052	11	71	Target	Win	True
676.052	0.3	Win2	0.6111	0.004	Yes	2.73	-0.004	1.0	GoodResponse	1	0.236	n/a	11	71	ButtonPress	Win	True
676.317	0.2	Win2	0.6111	n/a	Yes	2.73	n/a	n/a	GoodResponse	1	n/a	n/a	11	71	Blank	Win	True
676.518	1.45	Win2	0.6111	n/a	Yes	2.73	n/a	5.0	GoodResponse	1	0.036	675.554	11	71	Feedback	Win	True
677.972	2.73	Win2	0.6111	n/a	Yes	2.73	n/a	n/a	GoodResponse	1	0.0	n/a	11	71	ISIslide	Win	True
680.714	0.25	Win2	0.6164000000000001	0.0	Yes	2.786	0.014	n/a	GoodResponse	1	n/a	n/a	12	72	Cue	Win	True
680.965	4.1	Win2	0.6164000000000001	0.0	Yes	2.786	0.001	n/a	GoodResponse	1	n/a	n/a	12	72	Fixation	Win	True
685.06	0.5	Win2	0.6164000000000001	0.004	Yes	2.786	-0.004	1.0	GoodResponse	1	0.175	684.235	12	72	Target	Win	True
685.235	0.3	Win2	0.6164000000000001	0.004	Yes	2.786	-0.004	1.0	GoodResponse	1	0.175	n/a	12	72	ButtonPress	Win	True
685.562	0.2	Win2	0.6164000000000001	n/a	Yes	2.786	n/a	n/a	GoodResponse	1	n/a	n/a	12	72	Blank	Win	True
685.762	1.45	Win2	0.6164000000000001	n/a	Yes	2.786	n/a	5.0	GoodResponse	1	0.012	684.774	12	72	Feedback	Win	True
687.217	2.786	Win2	0.6164000000000001	n/a	Yes	2.786	n/a	n/a	GoodResponse	1	0.0	n/a	12	72	ISIslide	Win	True
690.025	0.25	Win2	0.6081	0.0	No	2.675	0.025	n/a	NoResponse	0	n/a	n/a	12	73	Cue	MissedWin	True
690.276	4.0	Win2	0.6081	0.0	No	2.675	0.001	n/a	NoResponse	0	n/a	n/a	12	73	Fixation	MissedWin	True
694.271	0.5	Win2	0.6081	0.004	No	2.675	-0.004	1.0	NoResponse	0	0.623	693.894	12	73	Target	MissedWin	True
694.773	0.2	Win2	0.6081	n/a	No	2.675	n/a	n/a	NoResponse	0	n/a	n/a	12	73	Blank	MissedWin	True
694.894	0.3	Win2	0.6081	0.004	No	2.675	-0.004	1.0	NoResponse	0	0.623	n/a	12	73	ButtonPress	MissedWin	True
694.973	1.45	Win2	0.6081	n/a	No	2.675	n/a	5.0	NoResponse	0	0.02	693.993	12	73	Feedback	MissedWin	True
696.427	2.675	Win2	0.6081	n/a	No	2.675	n/a	n/a	NoResponse	0	0.0	n/a	12	73	ISIslide	MissedWin	True
699.119	0.25	Lose2	0.6133	0.0	Yes	2.631	0.019	n/a	GoodResponse	0	n/a	n/a	12	74	Cue	AvoidedLoss	True
699.37	4.05	Lose2	0.6133	0.0	Yes	2.631	0.001	n/a	GoodResponse	0	n/a	n/a	12	74	Fixation	AvoidedLoss	True
703.415	0.5	Lose2	0.6133	0.004	Yes	2.631	-0.004	1.0	GoodResponse	0	0.491	702.906	12	74	Target	AvoidedLoss	True
703.906	0.3	Lose2	0.6133	0.004	Yes	2.631	-0.004	1.0	GoodResponse	0	0.491	n/a	12	74	ButtonPress	AvoidedLoss	True
703.917	0.2	Lose2	0.6133	n/a	Yes	2.631	n/a	n/a	GoodResponse	0	n/a	n/a	12	74	Blank	AvoidedLoss	True
704.117	1.45	Lose2	0.6133	n/a	Yes	2.631	n/a	5.0	GoodResponse	0	0.047	703.164	12	74	Feedback	AvoidedLoss	True
705.571	2.631	Lose2	0.6133	n/a	Yes	2.631	n/a	n/a	GoodResponse	0	0.0	n/a	12	74	ISIslide	AvoidedLoss	True
708.213	0.25	Lose2	0.6184000000000001	0.0	Yes	2.937	0.013	n/a	GoodResponse	0	n/a	n/a	12	75	Cue	AvoidedLoss	True
708.464	3.95	Lose2	0.6184000000000001	0.0	Yes	2.937	0.001	n/a	GoodResponse	0	n/a	n/a	12	75	Fixation	AvoidedLoss	True
712.409	0.5	Lose2	0.6184000000000001	0.004	Yes	2.937	-0.004	1.0	GoodResponse	0	0.378	711.787	12	75	Target	AvoidedLoss	True
712.787	0.3	Lose2	0.6184000000000001	0.004	Yes	2.937	-0.004	1.0	GoodResponse	0	0.378	n/a	12	75	ButtonPress	AvoidedLoss	True
712.91	0.2	Lose2	0.6184000000000001	n/a	Yes	2.937	n/a	n/a	GoodResponse	0	n/a	n/a	12	75	Blank	AvoidedLoss	True
713.111	1.45	Lose2	0.6184000000000001	n/a	Yes	2.937	n/a	5.0	GoodResponse	0	0.029	712.14	12	75	Feedback	AvoidedLoss	True
714.565	2.937	Lose2	0.6184000000000001	n/a	Yes	2.937	n/a	n/a	GoodResponse	0	0.0	n/a	12	75	ISIslide	AvoidedLoss	True
717.524	0.25	Control	0.6234000000000001	0.0	Yes	3.226	0.024	n/a	GoodResponse	0	n/a	n/a	12	76	Cue	Neutral	True
717.775	4.05	Control	0.6234000000000001	0.0	Yes	3.226	0.001	n/a	GoodResponse	0	n/a	n/a	12	76	Fixation	Neutral	True
721.82	0.5	Control	0.6234000000000001	0.004	Yes	3.226	-0.004	1.0	GoodResponse	0	0.327	721.147	12	76	Target	Neutral	True
722.147	0.3	Control	0.6234000000000001	0.004	Yes	3.226	-0.004	1.0	GoodResponse	0	0.327	n/a	12	76	ButtonPress	Neutral	True
722.322	0.2	Control	0.6234000000000001	n/a	Yes	3.226	n/a	n/a	GoodResponse	0	n/a	n/a	12	76	Blank	Neutral	True
722.522	1.45	Control	0.6234000000000001	n/a	Yes	3.226	n/a	5.0	GoodResponse	0	0.033	721.555	12	76	Feedback	Neutral	True
723.977	3.226	Control	0.6234000000000001	n/a	Yes	3.226	n/a	n/a	GoodResponse	0	0.0	n/a	12	76	ISIslide	Neutral	True
727.22	0.25	Lose2	0.6282	0.0	Yes	2.58	0.02	n/a	GoodResponse	0	n/a	n/a	12	77	Cue	AvoidedLoss	True
727.47	3.95	Lose2	0.6282	0.0	Yes	2.58	0.0	n/a	GoodResponse	0	n/a	n/a	12	77	Fixation	AvoidedLoss	True
731.416	0.5	Lose2	0.6282	0.004	Yes	2.58	-0.004	1.0	GoodResponse	0	0.202	730.618	12	77	Target	AvoidedLoss	True
731.618	0.3	Lose2	0.6282	0.004	Yes	2.58	-0.004	1.0	GoodResponse	0	0.202	n/a	12	77	ButtonPress	AvoidedLoss	True
731.917	0.2	Lose2	0.6282	n/a	Yes	2.58	n/a	n/a	GoodResponse	0	n/a	n/a	12	77	Blank	AvoidedLoss	True
732.118	1.45	Lose2	0.6282	n/a	Yes	2.58	n/a	5.0	GoodResponse	0	0.045	731.163	12	77	Feedback	AvoidedLoss	True
733.572	2.58	Lose2	0.6282	n/a	Yes	2.58	n/a	n/a	GoodResponse	0	0.0	n/a	12	77	ISIslide	AvoidedLoss	True
