onset	duration	cue_type	current_mean_accuracy	duration_error	is_hit	isi_adjusted	onset_delay	response	response_type	reward	rt	rt_time	total_reward	trial_number	trial_phase	trial_type	one_press
11.108	0.25	Control	0.0	0.0	No	2.942	0.008	n/a	NoResponse	0	n/a	n/a	0	0	Cue	Neutral	True
11.359	3.85	Control	0.0	0.0	No	2.942	0.001	n/a	NoResponse	0	n/a	n/a	0	0	Fixation	Neutral	True
15.204	0.4	Control	0.0	0.004	No	2.942	-0.004	2.0	NoResponse	0	0.418	14.622	0	0	Target	Neutral	True
15.605	0.3	Control	0.0	n/a	No	2.942	n/a	n/a	NoResponse	0	n/a	n/a	0	0	Blank	Neutral	True
15.622	0.3	Control	0.0	0.004	No	2.942	-0.004	2.0	NoResponse	0	0.418	n/a	0	0	ButtonPress	Neutral	True
15.906	1.45	Control	0.0	n/a	No	2.942	n/a	5.0	NoResponse	0	0.02	14.926	0	0	Feedback	Neutral	True
17.36	2.942	Control	0.0	n/a	No	2.942	n/a	n/a	NoResponse	0	0.0	n/a	0	0	ISIslide	Neutral	True
20.319	0.25	Lose2	0.5	0.0	Yes	2.781	0.019	n/a	GoodResponse	0	n/a	n/a	0	1	Cue	AvoidedLoss	True
20.57	4.0	Lose2	0.5	0.0	Yes	2.781	0.001	n/a	GoodResponse	0	n/a	n/a	0	1	Fixation	AvoidedLoss	True
24.565	0.41	Lose2	0.5	0.004	Yes	2.781	-0.004	2.0	GoodResponse	0	0.205	23.77	0	1	Target	AvoidedLoss	True
24.77	0.3	Lose2	0.5	0.004	Yes	2.781	-0.004	2.0	GoodResponse	0	0.205	n/a	0	1	ButtonPress	AvoidedLoss	True
24.983	0.29	Lose2	0.5	n/a	Yes	2.781	n/a	n/a	GoodResponse	0	n/a	n/a	0	1	Blank	AvoidedLoss	True
25.267	1.45	Lose2	0.5	n/a	Yes	2.781	n/a	5.0	GoodResponse	0	0.025	24.292	0	1	Feedback	AvoidedLoss	True
26.722	2.781	Lose2	0.5	n/a	Yes	2.781	n/a	n/a	GoodResponse	0	0.0	n/a	0	1	ISIslide	AvoidedLoss	True
29.53	0.25	Control	0.6667000000000001	0.0	Yes	2.57	0.03	n/a	GoodResponse	0	n/a	n/a	0	2	Cue	Neutral	True
29.781	4.1	Control	0.6667000000000001	0.0	Yes	2.57	0.001	n/a	GoodResponse	0	n/a	n/a	0	2	Fixation	Neutral	True
33.876	0.42	Control	0.6667000000000001	0.004	Yes	2.57	-0.004	2.0	GoodResponse	0	0.228	33.104	0	2	Target	Neutral	True
34.104	0.3	Control	0.6667000000000001	0.004	Yes	2.57	-0.004	2.0	GoodResponse	0	0.228	n/a	0	2	ButtonPress	Neutral	True
34.311	0.28	Control	0.6667000000000001	n/a	Yes	2.57	n/a	n/a	GoodResponse	0	n/a	n/a	0	2	Blank	Neutral	True
34.578	1.45	Control	0.6667000000000001	n/a	Yes	2.57	n/a	5.0	GoodResponse	0	0.031	33.609	0	2	Feedback	Neutral	True
36.033	2.57	Control	0.6667000000000001	n/a	Yes	2.57	n/a	n/a	GoodResponse	0	0.0	n/a	0	2	ISIslide	Neutral	True
38.624	0.25	Win2	0.75	0.0	Yes	2.826	0.024	n/a	GoodResponse	1	n/a	n/a	1	3	Cue	Win	True
38.874	3.95	Win2	0.75	0.001	Yes	2.826	0.0	n/a	GoodResponse	1	n/a	n/a	1	3	Fixation	Win	True
42.82	0.41	Win2	0.75	0.004	Yes	2.826	-0.004	2.0	GoodResponse	1	0.229	42.049	1	3	Target	Win	True
43.049	0.3	Win2	0.75	0.004	Yes	2.826	-0.004	2.0	GoodResponse	1	0.229	n/a	1	3	ButtonPress	Win	True
43.237	0.29	Win2	0.75	n/a	Yes	2.826	n/a	n/a	GoodResponse	1	n/a	n/a	1	3	Blank	Win	True
43.522	1.45	Win2	0.75	n/a	Yes	2.826	n/a	5.0	GoodResponse	1	0.014	42.536	1	3	Feedback	Win	True
44.976	2.826	Win2	0.75	n/a	Yes	2.826	n/a	n/a	GoodResponse	1	0.0	n/a	1	3	ISIslide	Win	True
47.818	0.25	Win2	0.8	0.0	Yes	3.282	0.018	n/a	GoodResponse	1	n/a	n/a	2	4	Cue	Win	True
48.069	4.0	Win2	0.8	0.0	Yes	3.282	0.001	n/a	GoodResponse	1	n/a	n/a	2	4	Fixation	Win	True
52.064	0.4	Win2	0.8	0.004	Yes	3.282	-0.004	2.0	GoodResponse	1	0.237	51.301	2	4	Target	Win	True
52.301	0.3	Win2	0.8	0.004	Yes	3.282	-0.004	2.0	GoodResponse	1	0.237	n/a	2	4	ButtonPress	Win	True
52.465	0.3	Win2	0.8	n/a	Yes	3.282	n/a	n/a	GoodResponse	1	n/a	n/a	2	4	Blank	Win	True
52.766	1.45	Win2	0.8	n/a	Yes	3.282	n/a	5.0	GoodResponse	1	0.037	51.803	2	4	Feedback	Win	True
54.22	3.282	Win2	0.8	n/a	Yes	3.282	n/a	n/a	GoodResponse	1	0.0	n/a	2	4	ISIslide	Win	True
57.53	0.25	Win2	0.8332999999999999	0.0	Yes	2.77	0.03	n/a	GoodResponse	1	n/a	n/a	3	5	Cue	Win	True
57.781	4.0	Win2	0.8332999999999999	0.0	Yes	2.77	0.001	n/a	GoodResponse	1	n/a	n/a	3	5	Fixation	Win	True
61.776	0.39	Win2	0.8332999999999999	0.004	Yes	2.77	-0.004	2.0	GoodResponse	1	0.238	61.014	3	5	Target	Win	True
62.014	0.3	Win2	0.8332999999999999	0.004	Yes	2.77	-0.004	2.0	GoodResponse	1	0.238	n/a	3	5	ButtonPress	Win	True
62.177	0.31	Win2	0.8332999999999999	n/a	Yes	2.77	n/a	n/a	GoodResponse	1	n/a	n/a	3	5	Blank	Win	True
62.478	1.45	Win2	0.8332999999999999	n/a	Yes	2.77	n/a	5.0	GoodResponse	1	0.033	61.511	3	5	Feedback	Win	True
63.933	2.77	Win2	0.8332999999999999	n/a	Yes	2.77	n/a	n/a	GoodResponse	1	0.0	n/a	3	5	ISIslide	Win	True
66.724	0.25	Lose2	0.8571	0.0	Yes	2.726	0.024	n/a	GoodResponse	0	n/a	n/a	3	6	Cue	AvoidedLoss	True
66.975	3.95	Lose2	0.8571	0.0	Yes	2.726	0.001	n/a	GoodResponse	0	n/a	n/a	3	6	Fixation	AvoidedLoss	True
70.92	0.38	Lose2	0.8571	0.004	Yes	2.726	-0.004	2.0	GoodResponse	0	0.204	70.124	3	6	Target	AvoidedLoss	True
71.124	0.3	Lose2	0.8571	0.004	Yes	2.726	-0.004	2.0	GoodResponse	0	0.204	n/a	3	6	ButtonPress	AvoidedLoss	True
71.305	0.32	Lose2	0.8571	n/a	Yes	2.726	n/a	n/a	GoodResponse	0	n/a	n/a	3	6	Blank	AvoidedLoss	True
71.622	1.45	Lose2	0.8571	n/a	Yes	2.726	n/a	5.0	GoodResponse	0	0.011	70.633	3	6	Feedback	AvoidedLoss	True
73.076	2.726	Lose2	0.8571	n/a	Yes	2.726	n/a	n/a	GoodResponse	0	0.0	n/a	3	6	ISIslide	AvoidedLoss	True
75.818	0.25	Lose2	0.875	0.0	Yes	4.032	0.018	n/a	GoodResponse	0	n/a	n/a	3	7	Cue	AvoidedLoss	True
76.069	4.05	Lose2	0.875	0.0	Yes	4.032	0.001	n/a	GoodResponse	0	n/a	n/a	3	7	Fixation	AvoidedLoss	True
80.114	0.37	Lose2	0.875	0.004	Yes	4.032	-0.004	2.0	GoodResponse	0	0.213	79.327	3	7	Target	AvoidedLoss	True
80.327	0.3	Lose2	0.875	0.004	Yes	4.032	-0.004	2.0	GoodResponse	0	0.213	n/a	3	7	ButtonPress	AvoidedLoss	True
80.499	0.33	Lose2	0.875	n/a	Yes	4.032	n/a	n/a	GoodResponse	0	n/a	n/a	3	7	Blank	AvoidedLoss	True
80.816	1.45	Lose2	0.875	n/a	Yes	4.032	n/a	5.0	GoodResponse	0	0.035	79.851	3	7	Feedback	AvoidedLoss	True
82.271	4.032	Lose2	0.875	n/a	Yes	4.032	n/a	n/a	GoodResponse	0	0.0	n/a	3	7	ISIslide	AvoidedLoss	True
86.316	0.25	Lose2	0.8889	0.0	Yes	3.034	0.016	n/a	GoodResponse	0	n/a	n/a	3	8	Cue	AvoidedLoss	True
86.567	3.95	Lose2	0.8889	0.0	Yes	3.034	0.001	n/a	GoodResponse	0	n/a	n/a	3	8	Fixation	AvoidedLoss	True
90.512	0.36	Lose2	0.8889	0.004	Yes	3.034	-0.004	2.0	GoodResponse	0	0.256	89.768	3	8	Target	AvoidedLoss	True
90.768	0.3	Lose2	0.8889	0.004	Yes	3.034	-0.004	2.0	GoodResponse	0	0.256	n/a	3	8	ButtonPress	AvoidedLoss	True
90.88	0.34	Lose2	0.8889	n/a	Yes	3.034	n/a	n/a	GoodResponse	0	n/a	n/a	3	8	Blank	AvoidedLoss	True
91.214	1.45	Lose2	0.8889	n/a	Yes	3.034	n/a	5.0	GoodResponse	0	0.028	90.242	3	8	Feedback	AvoidedLoss	True
92.668	3.034	Lose2	0.8889	n/a	Yes	3.034	n/a	n/a	GoodResponse	0	0.0	n/a	3	8	ISIslide	AvoidedLoss	True
95.727	0.25	Lose2	0.9	0.0	Yes	3.123	0.027	n/a	GoodResponse	0	n/a	n/a	3	9	Cue	AvoidedLoss	True
95.978	3.95	Lose2	0.9	0.0	Yes	3.123	0.001	n/a	GoodResponse	0	n/a	n/a	3	9	Fixation	AvoidedLoss	True
99.923	0.35	Lose2	0.9	0.004	Yes	3.123	-0.004	2.0	GoodResponse	0	0.225	99.148	3	9	Target	AvoidedLoss	True
100.148	0.3	Lose2	0.9	0.004	Yes	3.123	-0.004	2.0	GoodResponse	0	0.225	n/a	3	9	ButtonPress	AvoidedLoss	True
100.274	0.35	Lose2	0.9	n/a	Yes	3.123	n/a	n/a	GoodResponse	0	n/a	n/a	3	9	Blank	AvoidedLoss	True
100.625	1.45	Lose2	0.9	n/a	Yes	3.123	n/a	5.0	GoodResponse	0	0.031	99.656	3	9	Feedback	AvoidedLoss	True
102.08	3.123	Lose2	0.9	n/a	Yes	3.123	n/a	n/a	GoodResponse	0	0.0	n/a	3	9	ISIslide	AvoidedLoss	True
105.222	0.25	Control	0.9091	0.0	Yes	3.278	0.022	n/a	GoodResponse	0	n/a	n/a	3	10	Cue	Neutral	True
105.473	4.0	Control	0.9091	0.0	Yes	3.278	0.001	n/a	GoodResponse	0	n/a	n/a	3	10	Fixation	Neutral	True
109.468	0.34	Control	0.9091	0.004	Yes	3.278	-0.004	2.0	GoodResponse	0	0.206	108.674	3	10	Target	Neutral	True
109.674	0.3	Control	0.9091	0.004	Yes	3.278	-0.004	2.0	GoodResponse	0	0.206	n/a	3	10	ButtonPress	Neutral	True
109.819	0.36	Control	0.9091	n/a	Yes	3.278	n/a	n/a	GoodResponse	0	n/a	n/a	3	10	Blank	Neutral	True
110.17	1.45	Control	0.9091	n/a	Yes	3.278	n/a	5.0	GoodResponse	0	0.047	109.217	3	10	Feedback	Neutral	True
111.625	3.278	Control	0.9091	n/a	Yes	3.278	n/a	n/a	GoodResponse	0	0.0	n/a	3	10	ISIslide	Neutral	True
114.918	0.25	Lose2	0.9167000000000001	0.0	Yes	2.732	0.018	n/a	GoodResponse	0	n/a	n/a	3	11	Cue	AvoidedLoss	True
115.169	4.05	Lose2	0.9167000000000001	0.0	Yes	2.732	0.001	n/a	GoodResponse	0	n/a	n/a	3	11	Fixation	AvoidedLoss	True
119.214	0.33	Lose2	0.9167000000000001	0.004	Yes	2.732	-0.004	2.0	GoodResponse	0	0.207	118.421	3	11	Target	AvoidedLoss	True
119.421	0.3	Lose2	0.9167000000000001	0.004	Yes	2.732	-0.004	2.0	GoodResponse	0	0.207	n/a	3	11	ButtonPress	AvoidedLoss	True
119.548	0.37	Lose2	0.9167000000000001	n/a	Yes	2.732	n/a	n/a	GoodResponse	0	n/a	n/a	3	11	Blank	AvoidedLoss	True
119.916	1.45	Lose2	0.9167000000000001	n/a	Yes	2.732	n/a	5.0	GoodResponse	0	0.008	118.924	3	11	Feedback	AvoidedLoss	True
121.371	2.732	Lose2	0.9167000000000001	n/a	Yes	2.732	n/a	n/a	GoodResponse	0	0.0	n/a	3	11	ISIslide	AvoidedLoss	True
124.129	0.25	Control	0.9231	0.0	Yes	2.971	0.029	n/a	GoodResponse	0	n/a	n/a	3	12	Cue	Neutral	True
124.38	3.9	Control	0.9231	0.0	Yes	2.971	0.001	n/a	GoodResponse	0	n/a	n/a	3	12	Fixation	Neutral	True
128.291	0.32	Control	0.9231	0.0	Yes	2.971	0.012	2.0	GoodResponse	0	0.238	127.529	3	12	Target	Neutral	True
128.529	0.3	Control	0.9231	0.0	Yes	2.971	0.012	2.0	GoodResponse	0	0.238	n/a	3	12	ButtonPress	Neutral	True
128.609	0.38	Control	0.9231	n/a	Yes	2.971	n/a	n/a	GoodResponse	0	n/a	n/a	3	12	Blank	Neutral	True
128.977	1.45	Control	0.9231	n/a	Yes	2.971	n/a	5.0	GoodResponse	0	0.02	127.997	3	12	Feedback	Neutral	True
130.431	2.971	Control	0.9231	n/a	Yes	2.971	n/a	n/a	GoodResponse	0	0.0	n/a	3	12	ISIslide	Neutral	True
133.423	0.25	Control	0.9286	0.0	Yes	2.777	0.023	n/a	GoodResponse	0	n/a	n/a	3	13	Cue	Neutral	True
133.674	4.0	Control	0.9286	0.0	Yes	2.777	0.001	n/a	GoodResponse	0	n/a	n/a	3	13	Fixation	Neutral	True
137.669	0.31	Control	0.9286	0.004	Yes	2.777	-0.004	2.0	GoodResponse	0	0.195	136.864	3	13	Target	Neutral	True
137.864	0.3	Control	0.9286	0.004	Yes	2.777	-0.004	2.0	GoodResponse	0	0.195	n/a	3	13	ButtonPress	Neutral	True
137.987	0.39	Control	0.9286	n/a	Yes	2.777	n/a	n/a	GoodResponse	0	n/a	n/a	3	13	Blank	Neutral	True
138.371	1.45	Control	0.9286	n/a	Yes	2.777	n/a	5.0	GoodResponse	0	0.041	137.412	3	13	Feedback	Neutral	True
139.826	2.777	Control	0.9286	n/a	Yes	2.777	n/a	n/a	GoodResponse	0	0.0	n/a	3	13	ISIslide	Neutral	True
142.617	0.25	Win2	0.9333	0.0	Yes	2.683	0.017	n/a	GoodResponse	1	n/a	n/a	4	14	Cue	Win	True
142.868	4.1	Win2	0.9333	0.0	Yes	2.683	0.001	n/a	GoodResponse	1	n/a	n/a	4	14	Fixation	Win	True
146.964	0.3	Win2	0.9333	0.003	Yes	2.683	-0.003	2.0	GoodResponse	1	0.211	146.175	4	14	Target	Win	True
147.175	0.3	Win2	0.9333	0.003	Yes	2.683	-0.003	2.0	GoodResponse	1	0.211	n/a	4	14	ButtonPress	Win	True
147.264	0.4	Win2	0.9333	n/a	Yes	2.683	n/a	n/a	GoodResponse	1	n/a	n/a	4	14	Blank	Win	True
147.666	1.45	Win2	0.9333	n/a	Yes	2.683	n/a	5.0	GoodResponse	1	0.013	146.679	4	14	Feedback	Win	True
149.12	2.683	Win2	0.9333	n/a	Yes	2.683	n/a	n/a	GoodResponse	1	0.0	n/a	4	14	ISIslide	Win	True
151.828	0.25	Control	0.9375	0.0	Yes	2.972	0.028	n/a	GoodResponse	0	n/a	n/a	4	15	Cue	Neutral	True
152.079	4.0	Control	0.9375	0.0	Yes	2.972	0.001	n/a	GoodResponse	0	n/a	n/a	4	15	Fixation	Neutral	True
156.074	0.29	Control	0.9375	0.004	Yes	2.972	-0.004	2.0	GoodResponse	0	0.212	155.286	4	15	Target	Neutral	True
156.286	0.3	Control	0.9375	0.004	Yes	2.972	-0.004	2.0	GoodResponse	0	0.212	n/a	4	15	ButtonPress	Neutral	True
156.375	0.41	Control	0.9375	n/a	Yes	2.972	n/a	n/a	GoodResponse	0	n/a	n/a	4	15	Blank	Neutral	True
156.776	1.45	Control	0.9375	n/a	Yes	2.972	n/a	5.0	GoodResponse	0	0.025	155.801	4	15	Feedback	Neutral	True
158.23	2.972	Control	0.9375	n/a	Yes	2.972	n/a	n/a	GoodResponse	0	0.0	n/a	4	15	ISIslide	Neutral	True
161.223	0.25	Win2	0.9412	0.0	Yes	2.877	0.023	n/a	GoodResponse	1	n/a	n/a	5	16	Cue	Win	True
161.473	4.0	Win2	0.9412	0.001	Yes	2.877	0.0	n/a	GoodResponse	1	n/a	n/a	5	16	Fixation	Win	True
165.469	0.28	Win2	0.9412	0.004	Yes	2.877	-0.004	2.0	GoodResponse	1	0.202	164.671	5	16	Target	Win	True
165.671	0.3	Win2	0.9412	0.004	Yes	2.877	-0.004	2.0	GoodResponse	1	0.202	n/a	5	16	ButtonPress	Win	True
165.753	0.42	Win2	0.9412	n/a	Yes	2.877	n/a	n/a	GoodResponse	1	n/a	n/a	5	16	Blank	Win	True
166.171	1.45	Win2	0.9412	n/a	Yes	2.877	n/a	5.0	GoodResponse	1	0.045	165.216	5	16	Feedback	Win	True
167.625	2.877	Win2	0.9412	n/a	Yes	2.877	n/a	n/a	GoodResponse	1	0.0	n/a	5	16	ISIslide	Win	True
170.517	0.25	Lose2	0.9444	0.0	Yes	2.733	0.017	n/a	GoodResponse	0	n/a	n/a	5	17	Cue	AvoidedLoss	True
170.768	3.95	Lose2	0.9444	0.0	Yes	2.733	0.001	n/a	GoodResponse	0	n/a	n/a	5	17	Fixation	AvoidedLoss	True
174.713	0.27	Lose2	0.9444	0.004	Yes	2.733	-0.004	2.0	GoodResponse	0	0.227	173.94	5	17	Target	AvoidedLoss	True
174.94	0.3	Lose2	0.9444	0.004	Yes	2.733	-0.004	2.0	GoodResponse	0	0.227	n/a	5	17	ButtonPress	AvoidedLoss	True
174.997	0.43	Lose2	0.9444	n/a	Yes	2.733	n/a	n/a	GoodResponse	0	n/a	n/a	5	17	Blank	AvoidedLoss	True
175.415	1.45	Lose2	0.9444	n/a	Yes	2.733	n/a	5.0	GoodResponse	0	0.021	174.436	5	17	Feedback	AvoidedLoss	True
176.869	2.733	Lose2	0.9444	n/a	Yes	2.733	n/a	n/a	GoodResponse	0	0.0	n/a	5	17	ISIslide	AvoidedLoss	True
179.628	0.25	Lose2	0.9473999999999999	0.0	Yes	2.722	0.028	n/a	GoodResponse	0	n/a	n/a	5	18	Cue	AvoidedLoss	True
179.878	4.05	Lose2	0.9473999999999999	0.0	Yes	2.722	0.0	n/a	GoodResponse	0	n/a	n/a	5	18	Fixation	AvoidedLoss	True
183.924	0.26	Lose2	0.9473999999999999	0.004	Yes	2.722	-0.004	2.0	GoodResponse	0	0.215	183.139	5	18	Target	AvoidedLoss	True
184.139	0.3	Lose2	0.9473999999999999	0.004	Yes	2.722	-0.004	2.0	GoodResponse	0	0.215	n/a	5	18	ButtonPress	AvoidedLoss	True
184.191	0.44	Lose2	0.9473999999999999	n/a	Yes	2.722	n/a	n/a	GoodResponse	0	n/a	n/a	5	18	Blank	AvoidedLoss	True
184.626	1.45	Lose2	0.9473999999999999	n/a	Yes	2.722	n/a	5.0	GoodResponse	0	0.028	183.654	5	18	Feedback	AvoidedLoss	True
186.08	2.722	Lose2	0.9473999999999999	n/a	Yes	2.722	n/a	n/a	GoodResponse	0	0.0	n/a	5	18	ISIslide	AvoidedLoss	True
188.822	0.25	Control	0.95	0.0	Yes	2.928	0.022	n/a	GoodResponse	0	n/a	n/a	5	19	Cue	Neutral	True
189.072	3.95	Control	0.95	0.001	Yes	2.928	0.0	n/a	GoodResponse	0	n/a	n/a	5	19	Fixation	Neutral	True
193.018	0.25	Control	0.95	0.004	Yes	2.928	-0.004	2.0	GoodResponse	0	0.201	192.219	5	19	Target	Neutral	True
193.219	0.3	Control	0.95	0.004	Yes	2.928	-0.004	2.0	GoodResponse	0	0.201	n/a	5	19	ButtonPress	Neutral	True
193.268	0.45	Control	0.95	n/a	Yes	2.928	n/a	n/a	GoodResponse	0	n/a	n/a	5	19	Blank	Neutral	True
193.72	1.45	Control	0.95	n/a	Yes	2.928	n/a	5.0	GoodResponse	0	0.008	192.728	5	19	Feedback	Neutral	True
195.174	2.928	Control	0.95	n/a	Yes	2.928	n/a	n/a	GoodResponse	0	0.0	n/a	5	19	ISIslide	Neutral	True
198.116	0.25	Control	0.9523999999999999	0.0	Yes	2.634	0.016	n/a	GoodResponse	0	n/a	n/a	5	20	Cue	Neutral	True
198.367	4.05	Control	0.9523999999999999	0.0	Yes	2.634	0.001	n/a	GoodResponse	0	n/a	n/a	5	20	Fixation	Neutral	True
202.412	0.24	Control	0.9523999999999999	0.004	Yes	2.634	-0.004	2.0	GoodResponse	0	0.203	201.615	5	20	Target	Neutral	True
202.615	0.3	Control	0.9523999999999999	0.004	Yes	2.634	-0.004	2.0	GoodResponse	0	0.203	n/a	5	20	ButtonPress	Neutral	True
202.663	0.46	Control	0.9523999999999999	n/a	Yes	2.634	n/a	n/a	GoodResponse	0	n/a	n/a	5	20	Blank	Neutral	True
203.114	1.45	Control	0.9523999999999999	n/a	Yes	2.634	n/a	5.0	GoodResponse	0	0.028	202.142	5	20	Feedback	Neutral	True
204.569	2.634	Control	0.9523999999999999	n/a	Yes	2.634	n/a	n/a	GoodResponse	0	0.0	n/a	5	20	ISIslide	Neutral	True
207.227	0.25	Control	0.9545	0.0	Yes	2.773	0.027	n/a	GoodResponse	0	n/a	n/a	5	21	Cue	Neutral	True
207.477	4.1	Control	0.9545	0.001	Yes	2.773	0.0	n/a	GoodResponse	0	n/a	n/a	5	21	Fixation	Neutral	True
211.573	0.23	Control	0.9545	0.004	Yes	2.773	-0.004	2.0	GoodResponse	0	0.222	210.795	5	21	Target	Neutral	True
211.795	0.3	Control	0.9545	0.004	Yes	2.773	-0.004	2.0	GoodResponse	0	0.222	n/a	5	21	ButtonPress	Neutral	True
211.807	0.47	Control	0.9545	n/a	Yes	2.773	n/a	n/a	GoodResponse	0	n/a	n/a	5	21	Blank	Neutral	True
212.275	1.45	Control	0.9545	n/a	Yes	2.773	n/a	5.0	GoodResponse	0	0.037	211.312	5	21	Feedback	Neutral	True
213.729	2.773	Control	0.9545	n/a	Yes	2.773	n/a	n/a	GoodResponse	0	0.0	n/a	5	21	ISIslide	Neutral	True
216.521	0.25	Control	0.9565	0.0	Yes	2.779	0.021	n/a	GoodResponse	0	n/a	n/a	5	22	Cue	Neutral	True
216.772	4.0	Control	0.9565	0.0	Yes	2.779	0.001	n/a	GoodResponse	0	n/a	n/a	5	22	Fixation	Neutral	True
220.767	0.22	Control	0.9565	0.004	Yes	2.779	-0.004	2.0	GoodResponse	0	0.208	219.975	5	22	Target	Neutral	True
220.975	0.3	Control	0.9565	0.004	Yes	2.779	-0.004	2.0	GoodResponse	0	0.208	n/a	5	22	ButtonPress	Neutral	True
221.001	0.48	Control	0.9565	n/a	Yes	2.779	n/a	n/a	GoodResponse	0	n/a	n/a	5	22	Blank	Neutral	True
221.469	1.45	Control	0.9565	n/a	Yes	2.779	n/a	5.0	GoodResponse	0	0.014	220.483	5	22	Feedback	Neutral	True
222.923	2.779	Control	0.9565	n/a	Yes	2.779	n/a	n/a	GoodResponse	0	0.0	n/a	5	22	ISIslide	Neutral	True
225.715	0.25	Control	0.9167000000000001	0.0	No	2.785	0.015	n/a	NoResponse	0	n/a	n/a	5	23	Cue	Neutral	True
225.966	3.9	Control	0.9167000000000001	0.0	No	2.785	0.001	n/a	NoResponse	0	n/a	n/a	5	23	Fixation	Neutral	True
229.861	0.21	Control	0.9167000000000001	0.004	No	2.785	-0.004	2.0	NoResponse	0	0.255	229.116	5	23	Target	Neutral	True
230.078	0.49	Control	0.9167000000000001	n/a	No	2.785	n/a	n/a	NoResponse	0	n/a	n/a	5	23	Blank	Neutral	True
230.116	0.3	Control	0.9167000000000001	0.004	No	2.785	-0.004	2.0	NoResponse	0	0.255	n/a	5	23	ButtonPress	Neutral	True
230.563	1.45	Control	0.9167000000000001	n/a	No	2.785	n/a	5.0	NoResponse	0	0.042	229.605	5	23	Feedback	Neutral	True
232.017	2.785	Control	0.9167000000000001	n/a	No	2.785	n/a	n/a	NoResponse	0	0.0	n/a	5	23	ISIslide	Neutral	True
234.826	0.25	Win2	0.88	0.0	No	3.124	0.026	n/a	NoResponse	0	n/a	n/a	5	24	Cue	MissedWin	True
235.076	3.95	Win2	0.88	0.0	No	3.124	0.0	n/a	NoResponse	0	n/a	n/a	5	24	Fixation	MissedWin	True
239.021	0.2	Win2	0.88	0.005	No	3.124	-0.005	2.0	NoResponse	0	0.213	238.234	5	24	Target	MissedWin	True
239.222	0.5	Win2	0.88	n/a	No	3.124	n/a	n/a	NoResponse	0	n/a	n/a	5	24	Blank	MissedWin	True
239.234	0.3	Win2	0.88	0.005	No	3.124	-0.005	2.0	NoResponse	0	0.213	n/a	5	24	ButtonPress	MissedWin	True
239.724	1.45	Win2	0.88	n/a	No	3.124	n/a	5.0	NoResponse	0	0.007	238.731	5	24	Feedback	MissedWin	True
241.178	3.124	Win2	0.88	n/a	No	3.124	n/a	n/a	NoResponse	0	0.0	n/a	5	24	ISIslide	MissedWin	True
244.321	0.25	Win2	0.8462000000000001	0.0	No	3.079	0.021	n/a	LatePress	0	n/a	n/a	5	25	Cue	MissedWin	True
244.571	4.0	Win2	0.8462000000000001	0.0	No	3.079	0.0	n/a	LatePress	0	n/a	n/a	5	25	Fixation	MissedWin	True
248.567	0.19	Win2	0.8462000000000001	0.004	No	3.079	-0.004	2.0	LatePress	0	0.19	247.757	5	25	Target	MissedWin	True
248.757	0.3	Win2	0.8462000000000001	0.004	No	3.079	-0.004	2.0	LatePress	0	0.19	n/a	5	25	ButtonPress	MissedWin	True
248.767	0.51	Win2	0.8462000000000001	n/a	No	3.079	n/a	n/a	LatePress	0	n/a	n/a	5	25	Blank	MissedWin	True
249.269	1.45	Win2	0.8462000000000001	n/a	No	3.079	n/a	5.0	LatePress	0	0.018	248.287	5	25	Feedback	MissedWin	True
250.723	3.079	Win2	0.8462000000000001	n/a	No	3.079	n/a	n/a	LatePress	0	0.0	n/a	5	25	ISIslide	MissedWin	True
253.816	0.25	Win2	0.8148000000000001	0.0	No	2.934	0.016	n/a	NoResponse	0	n/a	n/a	5	26	Cue	MissedWin	True
254.066	3.95	Win2	0.8148000000000001	0.0	No	2.934	0.0	n/a	NoResponse	0	n/a	n/a	5	26	Fixation	MissedWin	True
258.011	0.18	Win2	0.8148000000000001	0.005	No	2.934	-0.005	2.0	NoResponse	0	0.204	257.215	5	26	Target	MissedWin	True
258.195	0.52	Win2	0.8148000000000001	n/a	No	2.934	n/a	n/a	NoResponse	0	n/a	n/a	5	26	Blank	MissedWin	True
258.215	0.3	Win2	0.8148000000000001	0.005	No	2.934	-0.005	2.0	NoResponse	0	0.204	n/a	5	26	ButtonPress	MissedWin	True
258.714	1.45	Win2	0.8148000000000001	n/a	No	2.934	n/a	5.0	NoResponse	0	0.037	257.751	5	26	Feedback	MissedWin	True
260.168	2.934	Win2	0.8148000000000001	n/a	No	2.934	n/a	n/a	NoResponse	0	0.0	n/a	5	26	ISIslide	MissedWin	True
263.127	0.25	Lose2	0.7857	0.0	No	2.823	0.027	n/a	NoResponse	-1	n/a	n/a	4	27	Cue	Loss	True
263.377	4.05	Lose2	0.7857	0.001	No	2.823	0.0	n/a	NoResponse	-1	n/a	n/a	4	27	Fixation	Loss	True
267.423	0.17	Lose2	0.7857	0.004	No	2.823	-0.004	2.0	NoResponse	-1	0.232	266.655	4	27	Target	Loss	True
267.607	0.53	Lose2	0.7857	n/a	No	2.823	n/a	n/a	NoResponse	-1	n/a	n/a	4	27	Blank	Loss	True
267.655	0.3	Lose2	0.7857	0.004	No	2.823	-0.004	2.0	NoResponse	-1	0.232	n/a	4	27	ButtonPress	Loss	True
268.125	1.45	Lose2	0.7857	n/a	No	2.823	n/a	5.0	NoResponse	-1	0.04	267.165	4	27	Feedback	Loss	True
269.579	2.823	Lose2	0.7857	n/a	No	2.823	n/a	n/a	NoResponse	-1	0.0	n/a	4	27	ISIslide	Loss	True
272.421	0.25	Control	0.7585999999999999	0.0	No	2.829	0.021	n/a	NoResponse	0	n/a	n/a	4	28	Cue	Neutral	True
272.672	4.05	Control	0.7585999999999999	0.0	No	2.829	0.001	n/a	NoResponse	0	n/a	n/a	4	28	Fixation	Neutral	True
276.717	0.16	Control	0.7585999999999999	0.004	No	2.829	-0.004	2.0	NoResponse	0	0.196	275.913	4	28	Target	Neutral	True
276.884	0.54	Control	0.7585999999999999	n/a	No	2.829	n/a	n/a	NoResponse	0	n/a	n/a	4	28	Blank	Neutral	True
276.913	0.3	Control	0.7585999999999999	0.004	No	2.829	-0.004	2.0	NoResponse	0	0.196	n/a	4	28	ButtonPress	Neutral	True
277.419	1.45	Control	0.7585999999999999	n/a	No	2.829	n/a	5.0	NoResponse	0	0.015	276.434	4	28	Feedback	Neutral	True
278.874	2.829	Control	0.7585999999999999	n/a	No	2.829	n/a	n/a	NoResponse	0	0.0	n/a	4	28	ISIslide	Neutral	True
281.716	0.25	Lose2	0.7333	0.0	No	2.834	0.016	n/a	PrematurePress	-1	n/a	n/a	3	29	Cue	Loss	True
281.966	3.95	Lose2	0.7333	0.0	No	2.834	0.0	n/a	PrematurePress	-1	n/a	n/a	3	29	Fixation	Loss	True
285.928	0.15	Lose2	0.7333	0.0	No	2.834	0.012	2.0	PrematurePress	-1	0.059	284.987	3	29	Target	Loss	True
285.987	0.3	Lose2	0.7333	0.0	No	2.834	0.012	2.0	PrematurePress	-1	0.059	n/a	3	29	ButtonPress	Loss	True
286.062	0.55	Lose2	0.7333	n/a	No	2.834	n/a	n/a	PrematurePress	-1	n/a	n/a	3	29	Blank	Loss	True
286.613	1.45	Lose2	0.7333	n/a	No	2.834	n/a	5.0	PrematurePress	-1	0.039	285.652	3	29	Feedback	Loss	True
288.068	2.834	Lose2	0.7333	n/a	No	2.834	n/a	n/a	PrematurePress	-1	0.0	n/a	3	29	ISIslide	Loss	True
290.926	0.25	Win2	0.7419	0.0	Yes	2.774	0.026	n/a	GoodResponse	1	n/a	n/a	4	30	Cue	Win	True
291.177	3.9	Win2	0.7419	0.0	Yes	2.774	0.001	n/a	GoodResponse	1	n/a	n/a	4	30	Fixation	Win	True
295.072	0.15	Win2	0.7419	0.004	Yes	2.774	-0.004	2.0	GoodResponse	1	0.118	294.19	4	30	Target	Win	True
295.19	0.3	Win2	0.7419	0.004	Yes	2.774	-0.004	2.0	GoodResponse	1	0.118	n/a	4	30	ButtonPress	Win	True
295.222	0.55	Win2	0.7419	n/a	Yes	2.774	n/a	n/a	GoodResponse	1	n/a	n/a	4	30	Blank	Win	True
295.774	1.45	Win2	0.7419	n/a	Yes	2.774	n/a	5.0	GoodResponse	1	0.049	294.823	4	30	Feedback	Win	True
297.228	2.774	Win2	0.7419	n/a	Yes	2.774	n/a	n/a	GoodResponse	1	0.0	n/a	4	30	ISIslide	Win	True
300.02	0.25	Lose2	0.7188	0.0	No	2.83	0.02	n/a	PrematurePress	-1	n/a	n/a	3	31	Cue	Loss	True
300.271	4.05	Lose2	0.7188	0.0	No	2.83	0.001	n/a	PrematurePress	-1	n/a	n/a	3	31	Fixation	Loss	True
304.316	0.15	Lose2	0.7188	0.004	No	2.83	-0.004	2.0	PrematurePress	-1	0.081	303.397	3	31	Target	Loss	True
304.397	0.3	Lose2	0.7188	0.004	No	2.83	-0.004	2.0	PrematurePress	-1	0.081	n/a	3	31	ButtonPress	Loss	True
304.467	0.55	Lose2	0.7188	n/a	No	2.83	n/a	n/a	PrematurePress	-1	n/a	n/a	3	31	Blank	Loss	True
305.018	1.45	Lose2	0.7188	n/a	No	2.83	n/a	5.0	PrematurePress	-1	0.025	304.043	3	31	Feedback	Loss	True
306.473	2.83	Lose2	0.7188	n/a	No	2.83	n/a	n/a	PrematurePress	-1	0.0	n/a	3	31	ISIslide	Loss	True
309.315	0.25	Lose2	0.6970000000000001	0.0	No	2.635	0.015	n/a	NoResponse	-1	n/a	n/a	2	32	Cue	Loss	True
309.565	4.15	Lose2	0.6970000000000001	0.0	No	2.635	0.0	2.0	NoResponse	-1	4.095	312.66	2	32	Fixation	Loss	True
313.66	0.3	Lose2	0.6970000000000001	0.0	No	2.635	0.0	2.0	NoResponse	-1	4.095	n/a	2	32	ButtonPress	Loss	True
313.711	0.15	Lose2	0.6970000000000001	0.004	No	2.635	-0.004	n/a	NoResponse	-1	n/a	n/a	2	32	Target	Loss	True
313.861	0.55	Lose2	0.6970000000000001	n/a	No	2.635	n/a	n/a	NoResponse	-1	n/a	n/a	2	32	Blank	Loss	True
314.413	1.45	Lose2	0.6970000000000001	n/a	No	2.635	n/a	5.0	NoResponse	-1	0.044	313.457	2	32	Feedback	Loss	True
315.867	2.635	Lose2	0.6970000000000001	n/a	No	2.635	n/a	n/a	NoResponse	-1	0.0	n/a	2	32	ISIslide	Loss	True
318.525	0.25	Win2	0.6765000000000001	0.0	No	2.675	0.025	n/a	NoResponse	0	n/a	n/a	2	33	Cue	MissedWin	True
318.776	4.0	Win2	0.6765000000000001	0.0	No	2.675	0.001	n/a	NoResponse	0	n/a	n/a	2	33	Fixation	MissedWin	True
322.771	0.15	Win2	0.6765000000000001	0.004	No	2.675	-0.004	2.0	NoResponse	0	0.207	321.978	2	33	Target	MissedWin	True
322.922	0.55	Win2	0.6765000000000001	n/a	No	2.675	n/a	n/a	NoResponse	0	n/a	n/a	2	33	Blank	MissedWin	True
322.978	0.3	Win2	0.6765000000000001	0.004	No	2.675	-0.004	2.0	NoResponse	0	0.207	n/a	2	33	ButtonPress	MissedWin	True
323.473	1.45	Win2	0.6765000000000001	n/a	No	2.675	n/a	5.0	NoResponse	0	0.008	322.481	2	33	Feedback	MissedWin	True
324.928	2.675	Win2	0.6765000000000001	n/a	No	2.675	n/a	n/a	NoResponse	0	0.0	n/a	2	33	ISIslide	MissedWin	True
327.619	0.25	Lose2	0.6570999999999999	0.0	No	2.631	0.019	n/a	PrematurePress	-1	n/a	n/a	1	34	Cue	Loss	True
327.87	4.05	Lose2	0.6570999999999999	0.0	No	2.631	0.001	n/a	PrematurePress	-1	n/a	n/a	1	34	Fixation	Loss	True
331.915	0.15	Lose2	0.6570999999999999	0.004	No	2.631	-0.004	2.0	PrematurePress	-1	0.018	330.933	1	34	Target	Loss	True
331.933	0.3	Lose2	0.6570999999999999	0.004	No	2.631	-0.004	2.0	PrematurePress	-1	0.018	n/a	1	34	ButtonPress	Loss	True
332.066	0.55	Lose2	0.6570999999999999	n/a	No	2.631	n/a	n/a	PrematurePress	-1	n/a	n/a	1	34	Blank	Loss	True
332.617	1.45	Lose2	0.6570999999999999	n/a	No	2.631	n/a	5.0	PrematurePress	-1	0.035	331.652	1	34	Feedback	Loss	True
334.072	2.631	Lose2	0.6570999999999999	n/a	No	2.631	n/a	n/a	PrematurePress	-1	0.0	n/a	1	34	ISIslide	Loss	True
336.73	0.25	Lose2	0.6389	0.0	No	2.67	0.03	n/a	NoResponse	-1	n/a	n/a	0	35	Cue	Loss	True
336.98	4.0	Lose2	0.6389	0.0	No	2.67	0.0	n/a	NoResponse	-1	n/a	n/a	0	35	Fixation	Loss	True
340.976	0.15	Lose2	0.6389	0.004	No	2.67	-0.004	2.0	NoResponse	-1	0.182	340.158	0	35	Target	Loss	True
341.126	0.55	Lose2	0.6389	n/a	No	2.67	n/a	n/a	NoResponse	-1	n/a	n/a	0	35	Blank	Loss	True
341.158	0.3	Lose2	0.6389	0.004	No	2.67	-0.004	2.0	NoResponse	-1	0.182	n/a	0	35	ButtonPress	Loss	True
341.678	1.45	Lose2	0.6389	n/a	No	2.67	n/a	5.0	NoResponse	-1	0.047	340.725	0	35	Feedback	Loss	True
343.132	2.67	Lose2	0.6389	n/a	No	2.67	n/a	n/a	NoResponse	-1	0.0	n/a	0	35	ISIslide	Loss	True
345.823	0.25	Control	0.6215999999999999	0.001	No	2.677	0.023	n/a	NoResponse	0	n/a	n/a	0	36	Cue	Neutral	True
346.074	4.0	Control	0.6215999999999999	0.0	No	2.677	0.001	2.0	NoResponse	0	3.818	348.892	0	36	Fixation	Neutral	True
349.892	0.3	Control	0.6215999999999999	0.0	No	2.677	0.001	2.0	NoResponse	0	3.818	n/a	0	36	ButtonPress	Neutral	True
350.069	0.16	Control	0.6215999999999999	0.004	No	2.677	-0.004	n/a	NoResponse	0	n/a	n/a	0	36	Target	Neutral	True
350.237	0.54	Control	0.6215999999999999	n/a	No	2.677	n/a	n/a	NoResponse	0	n/a	n/a	0	36	Blank	Neutral	True
350.772	1.45	Control	0.6215999999999999	n/a	No	2.677	n/a	5.0	NoResponse	0	0.025	349.797	0	36	Feedback	Neutral	True
352.226	2.677	Control	0.6215999999999999	n/a	No	2.677	n/a	n/a	NoResponse	0	0.0	n/a	0	36	ISIslide	Neutral	True
354.917	0.25	Win2	0.6315999999999999	0.0	Yes	2.883	0.017	n/a	GoodResponse	1	n/a	n/a	1	37	Cue	Win	True
355.168	4.0	Win2	0.6315999999999999	0.0	Yes	2.883	0.001	n/a	GoodResponse	1	n/a	n/a	1	37	Fixation	Win	True
359.163	0.17	Win2	0.6315999999999999	0.004	Yes	2.883	-0.004	2.0	GoodResponse	1	0.16	358.323	1	37	Target	Win	True
359.323	0.3	Win2	0.6315999999999999	0.004	Yes	2.883	-0.004	2.0	GoodResponse	1	0.16	n/a	1	37	ButtonPress	Win	True
359.347	0.53	Win2	0.6315999999999999	n/a	Yes	2.883	n/a	n/a	GoodResponse	1	n/a	n/a	1	37	Blank	Win	True
359.865	1.45	Win2	0.6315999999999999	n/a	Yes	2.883	n/a	5.0	GoodResponse	1	0.007	358.872	1	37	Feedback	Win	True
361.32	2.883	Win2	0.6315999999999999	n/a	Yes	2.883	n/a	n/a	GoodResponse	1	0.0	n/a	1	37	ISIslide	Win	True
364.228	0.25	Lose2	0.6154	0.0	No	2.822	0.028	n/a	NoResponse	-1	n/a	n/a	0	38	Cue	Loss	True
364.479	3.95	Lose2	0.6154	0.0	No	2.822	0.001	n/a	NoResponse	-1	n/a	n/a	0	38	Fixation	Loss	True
368.424	0.18	Lose2	0.6154	0.004	No	2.822	-0.004	2.0	NoResponse	-1	0.204	367.628	0	38	Target	Loss	True
368.608	0.52	Lose2	0.6154	n/a	No	2.822	n/a	n/a	NoResponse	-1	n/a	n/a	0	38	Blank	Loss	True
368.628	0.3	Lose2	0.6154	0.004	No	2.822	-0.004	2.0	NoResponse	-1	0.204	n/a	0	38	ButtonPress	Loss	True
369.126	1.45	Lose2	0.6154	n/a	No	2.822	n/a	5.0	NoResponse	-1	0.013	368.139	0	38	Feedback	Loss	True
370.581	2.822	Lose2	0.6154	n/a	No	2.822	n/a	n/a	NoResponse	-1	0.0	n/a	0	38	ISIslide	Loss	True
373.422	0.25	Win2	0.6	0.0	No	2.978	0.022	n/a	NoResponse	0	n/a	n/a	0	39	Cue	MissedWin	True
373.673	4.1	Win2	0.6	0.0	No	2.978	0.001	n/a	NoResponse	0	n/a	n/a	0	39	Fixation	MissedWin	True
377.769	0.19	Win2	0.6	0.003	No	2.978	-0.003	2.0	NoResponse	0	0.208	376.977	0	39	Target	MissedWin	True
377.969	0.51	Win2	0.6	n/a	No	2.978	n/a	n/a	NoResponse	0	n/a	n/a	0	39	Blank	MissedWin	True
377.977	0.3	Win2	0.6	0.003	No	2.978	-0.003	2.0	NoResponse	0	0.208	n/a	0	39	ButtonPress	MissedWin	True
378.471	1.45	Win2	0.6	n/a	No	2.978	n/a	5.0	NoResponse	0	0.033	377.504	0	39	Feedback	MissedWin	True
379.925	2.978	Win2	0.6	n/a	No	2.978	n/a	n/a	NoResponse	0	0.0	n/a	0	39	ISIslide	MissedWin	True
382.917	0.25	Win2	0.5854	0.001	No	2.733	0.017	n/a	NoResponse	0	n/a	n/a	0	40	Cue	MissedWin	True
383.168	3.95	Win2	0.5854	0.0	No	2.733	0.001	n/a	NoResponse	0	n/a	n/a	0	40	Fixation	MissedWin	True
387.113	0.2	Win2	0.5854	0.004	No	2.733	-0.004	2.0	NoResponse	0	0.218	386.331	0	40	Target	MissedWin	True
387.314	0.5	Win2	0.5854	n/a	No	2.733	n/a	n/a	NoResponse	0	n/a	n/a	0	40	Blank	MissedWin	True
387.331	0.3	Win2	0.5854	0.004	No	2.733	-0.004	2.0	NoResponse	0	0.218	n/a	0	40	ButtonPress	MissedWin	True
387.815	1.45	Win2	0.5854	n/a	No	2.733	n/a	5.0	NoResponse	0	0.006	386.821	0	40	Feedback	MissedWin	True
389.27	2.733	Win2	0.5854	n/a	No	2.733	n/a	n/a	NoResponse	0	0.0	n/a	0	40	ISIslide	MissedWin	True
392.028	0.25	Win2	0.5714	0.0	No	2.772	0.028	n/a	NoResponse	0	n/a	n/a	0	41	Cue	MissedWin	True
392.279	3.9	Win2	0.5714	0.0	No	2.772	0.001	2.0	NoResponse	0	3.778	395.057	0	41	Fixation	MissedWin	True
396.057	0.3	Win2	0.5714	0.0	No	2.772	0.001	2.0	NoResponse	0	3.778	n/a	0	41	ButtonPress	MissedWin	True
396.174	0.21	Win2	0.5714	0.004	No	2.772	-0.004	n/a	NoResponse	0	n/a	n/a	0	41	Target	MissedWin	True
396.391	0.49	Win2	0.5714	n/a	No	2.772	n/a	n/a	NoResponse	0	n/a	n/a	0	41	Blank	MissedWin	True
396.876	1.45	Win2	0.5714	n/a	No	2.772	n/a	5.0	NoResponse	0	0.018	395.894	0	41	Feedback	MissedWin	True
398.33	2.772	Win2	0.5714	n/a	No	2.772	n/a	n/a	NoResponse	0	0.0	n/a	0	41	ISIslide	MissedWin	True
401.122	0.25	Control	0.5814	0.0	Yes	2.928	0.022	n/a	GoodResponse	0	n/a	n/a	0	42	Cue	Neutral	True
401.372	3.85	Control	0.5814	0.001	Yes	2.928	0.0	n/a	GoodResponse	0	n/a	n/a	0	42	Fixation	Neutral	True
405.234	0.22	Control	0.5814	0.0	Yes	2.928	0.012	2.0	GoodResponse	0	0.209	404.443	0	42	Target	Neutral	True
405.443	0.3	Control	0.5814	0.0	Yes	2.928	0.012	2.0	GoodResponse	0	0.209	n/a	0	42	ButtonPress	Neutral	True
405.451	0.48	Control	0.5814	n/a	Yes	2.928	n/a	n/a	GoodResponse	0	n/a	n/a	0	42	Blank	Neutral	True
405.919	1.45	Control	0.5814	n/a	Yes	2.928	n/a	5.0	GoodResponse	0	0.049	404.968	0	42	Feedback	Neutral	True
407.374	2.928	Control	0.5814	n/a	Yes	2.928	n/a	n/a	GoodResponse	0	0.0	n/a	0	42	ISIslide	Neutral	True
410.316	0.25	Win2	0.5909	0.0	Yes	3.184	0.016	n/a	GoodResponse	1	n/a	n/a	1	43	Cue	Win	True
410.567	4.0	Win2	0.5909	0.0	Yes	3.184	0.001	n/a	GoodResponse	1	n/a	n/a	1	43	Fixation	Win	True
414.562	0.23	Win2	0.5909	0.004	Yes	3.184	-0.004	2.0	GoodResponse	1	0.211	413.773	1	43	Target	Win	True
414.773	0.3	Win2	0.5909	0.004	Yes	3.184	-0.004	2.0	GoodResponse	1	0.211	n/a	1	43	ButtonPress	Win	True
414.796	0.47	Win2	0.5909	n/a	Yes	3.184	n/a	n/a	GoodResponse	1	n/a	n/a	1	43	Blank	Win	True
415.264	1.45	Win2	0.5909	n/a	Yes	3.184	n/a	5.0	GoodResponse	1	0.02	414.284	1	43	Feedback	Win	True
416.718	3.184	Win2	0.5909	n/a	Yes	3.184	n/a	n/a	GoodResponse	1	0.0	n/a	1	43	ISIslide	Win	True
419.928	0.25	Win2	0.5778	0.0	No	2.972	0.028	n/a	PrematurePress	0	n/a	n/a	1	44	Cue	MissedWin	True
420.179	4.0	Win2	0.5778	0.0	No	2.972	0.001	n/a	PrematurePress	0	n/a	n/a	1	44	Fixation	MissedWin	True
424.174	0.24	Win2	0.5778	0.004	No	2.972	-0.004	2.0	PrematurePress	0	0.063	423.237	1	44	Target	MissedWin	True
424.237	0.3	Win2	0.5778	0.004	No	2.972	-0.004	2.0	PrematurePress	0	0.063	n/a	1	44	ButtonPress	MissedWin	True
424.425	0.46	Win2	0.5778	n/a	No	2.972	n/a	n/a	PrematurePress	0	n/a	n/a	1	44	Blank	MissedWin	True
424.876	1.45	Win2	0.5778	n/a	No	2.972	n/a	5.0	PrematurePress	0	0.018	423.894	1	44	Feedback	MissedWin	True
426.33	2.972	Win2	0.5778	n/a	No	2.972	n/a	n/a	PrematurePress	0	0.0	n/a	1	44	ISIslide	MissedWin	True
429.323	0.25	Control	0.5870000000000001	0.0	Yes	2.877	0.023	n/a	GoodResponse	0	n/a	n/a	1	45	Cue	Neutral	True
429.573	4.1	Control	0.5870000000000001	0.0	Yes	2.877	0.0	n/a	GoodResponse	0	n/a	n/a	1	45	Fixation	Neutral	True
433.669	0.25	Control	0.5870000000000001	0.004	Yes	2.877	-0.004	2.0	GoodResponse	0	0.229	432.898	1	45	Target	Neutral	True
433.898	0.3	Control	0.5870000000000001	0.004	Yes	2.877	-0.004	2.0	GoodResponse	0	0.229	n/a	1	45	ButtonPress	Neutral	True
433.92	0.45	Control	0.5870000000000001	n/a	Yes	2.877	n/a	n/a	GoodResponse	0	n/a	n/a	1	45	Blank	Neutral	True
434.371	1.45	Control	0.5870000000000001	n/a	Yes	2.877	n/a	5.0	GoodResponse	0	0.035	433.406	1	45	Feedback	Neutral	True
435.825	2.877	Control	0.5870000000000001	n/a	Yes	2.877	n/a	n/a	GoodResponse	0	0.0	n/a	1	45	ISIslide	Neutral	True
438.717	0.25	Lose2	0.5745	0.0	No	3.383	0.017	n/a	PrematurePress	-1	n/a	n/a	0	46	Cue	Loss	True
438.968	4.0	Lose2	0.5745	0.0	No	3.383	0.001	n/a	PrematurePress	-1	n/a	n/a	0	46	Fixation	Loss	True
442.963	0.26	Lose2	0.5745	0.004	No	3.383	-0.004	2.0	PrematurePress	-1	0.052	442.015	0	46	Target	Loss	True
443.015	0.3	Lose2	0.5745	0.004	No	3.383	-0.004	2.0	PrematurePress	-1	0.052	n/a	0	46	ButtonPress	Loss	True
443.231	0.44	Lose2	0.5745	n/a	No	3.383	n/a	n/a	PrematurePress	-1	n/a	n/a	0	46	Blank	Loss	True
443.665	1.45	Lose2	0.5745	n/a	No	3.383	n/a	5.0	PrematurePress	-1	0.009	442.674	0	46	Feedback	Loss	True
445.12	3.383	Lose2	0.5745	n/a	No	3.383	n/a	n/a	PrematurePress	-1	0.0	n/a	0	46	ISIslide	Loss	True
448.53	0.25	Lose2	0.5625	0.0	No	2.67	0.03	n/a	NoResponse	-1	n/a	n/a	-1	47	Cue	Loss	True
448.781	4.0	Lose2	0.5625	0.0	No	2.67	0.001	2.0	NoResponse	-1	3.93	451.711	-1	47	Fixation	Loss	True
452.711	0.3	Lose2	0.5625	0.0	No	2.67	0.001	2.0	NoResponse	-1	3.93	n/a	-1	47	ButtonPress	Loss	True
452.776	0.27	Lose2	0.5625	0.004	No	2.67	-0.004	n/a	NoResponse	-1	n/a	n/a	-1	47	Target	Loss	True
453.06	0.43	Lose2	0.5625	n/a	No	2.67	n/a	n/a	NoResponse	-1	n/a	n/a	-1	47	Blank	Loss	True
453.478	1.45	Lose2	0.5625	n/a	No	2.67	n/a	5.0	NoResponse	-1	0.001	452.479	-1	47	Feedback	Loss	True
454.932	2.67	Lose2	0.5625	n/a	No	2.67	n/a	n/a	NoResponse	-1	0.0	n/a	-1	47	ISIslide	Loss	True
457.624	0.25	Lose2	0.5714	0.0	Yes	3.026	0.024	n/a	GoodResponse	0	n/a	n/a	-1	48	Cue	AvoidedLoss	True
457.874	3.95	Lose2	0.5714	0.0	Yes	3.026	0.0	n/a	GoodResponse	0	n/a	n/a	-1	48	Fixation	AvoidedLoss	True
461.836	0.28	Lose2	0.5714	0.0	Yes	3.026	0.012	2.0	GoodResponse	0	0.2	461.036	-1	48	Target	AvoidedLoss	True
462.036	0.3	Lose2	0.5714	0.0	Yes	3.026	0.012	2.0	GoodResponse	0	0.2	n/a	-1	48	ButtonPress	AvoidedLoss	True
462.104	0.42	Lose2	0.5714	n/a	Yes	3.026	n/a	n/a	GoodResponse	0	n/a	n/a	-1	48	Blank	AvoidedLoss	True
462.522	1.45	Lose2	0.5714	n/a	Yes	3.026	n/a	5.0	GoodResponse	0	0.03	461.552	-1	48	Feedback	AvoidedLoss	True
463.976	3.026	Lose2	0.5714	n/a	Yes	3.026	n/a	n/a	GoodResponse	0	0.0	n/a	-1	48	ISIslide	AvoidedLoss	True
467.018	0.25	Control	0.58	0.0	Yes	2.882	0.018	n/a	GoodResponse	0	n/a	n/a	-1	49	Cue	Neutral	True
467.269	4.0	Control	0.58	0.0	Yes	2.882	0.001	n/a	GoodResponse	0	n/a	n/a	-1	49	Fixation	Neutral	True
471.264	0.29	Control	0.58	0.004	Yes	2.882	-0.004	2.0	GoodResponse	0	0.208	470.472	-1	49	Target	Neutral	True
471.472	0.3	Control	0.58	0.004	Yes	2.882	-0.004	2.0	GoodResponse	0	0.208	n/a	-1	49	ButtonPress	Neutral	True
471.565	0.41	Control	0.58	n/a	Yes	2.882	n/a	n/a	GoodResponse	0	n/a	n/a	-1	49	Blank	Neutral	True
471.966	1.45	Control	0.58	n/a	Yes	2.882	n/a	5.0	GoodResponse	0	0.049	471.015	-1	49	Feedback	Neutral	True
473.421	2.882	Control	0.58	n/a	Yes	2.882	n/a	n/a	GoodResponse	0	0.0	n/a	-1	49	ISIslide	Neutral	True
476.329	0.25	Control	0.5686	0.001	No	2.771	0.029	n/a	PrematurePress	0	n/a	n/a	-1	50	Cue	Neutral	True
476.58	4.0	Control	0.5686	0.0	No	2.771	0.001	n/a	PrematurePress	0	n/a	n/a	-1	50	Fixation	Neutral	True
480.575	0.3	Control	0.5686	0.004	No	2.771	-0.004	2.0	PrematurePress	0	0.066	479.641	-1	50	Target	Neutral	True
480.641	0.3	Control	0.5686	0.004	No	2.771	-0.004	2.0	PrematurePress	0	0.066	n/a	-1	50	ButtonPress	Neutral	True
480.876	0.4	Control	0.5686	n/a	No	2.771	n/a	n/a	PrematurePress	0	n/a	n/a	-1	50	Blank	Neutral	True
481.278	1.45	Control	0.5686	n/a	No	2.771	n/a	5.0	PrematurePress	0	0.006	480.284	-1	50	Feedback	Neutral	True
482.732	2.771	Control	0.5686	n/a	No	2.771	n/a	n/a	PrematurePress	0	0.0	n/a	-1	50	ISIslide	Neutral	True
485.523	0.25	Control	0.5769	0.001	Yes	2.727	0.023	n/a	GoodResponse	0	n/a	n/a	-1	51	Cue	Neutral	True
485.774	3.95	Control	0.5769	0.0	Yes	2.727	0.001	n/a	GoodResponse	0	n/a	n/a	-1	51	Fixation	Neutral	True
489.719	0.31	Control	0.5769	0.004	Yes	2.727	-0.004	2.0	GoodResponse	0	0.22	488.939	-1	51	Target	Neutral	True
489.939	0.3	Control	0.5769	0.004	Yes	2.727	-0.004	2.0	GoodResponse	0	0.22	n/a	-1	51	ButtonPress	Neutral	True
490.037	0.39	Control	0.5769	n/a	Yes	2.727	n/a	n/a	GoodResponse	0	n/a	n/a	-1	51	Blank	Neutral	True
490.421	1.45	Control	0.5769	n/a	Yes	2.727	n/a	5.0	GoodResponse	0	0.032	489.453	-1	51	Feedback	Neutral	True
491.876	2.727	Control	0.5769	n/a	Yes	2.727	n/a	n/a	GoodResponse	0	0.0	n/a	-1	51	ISIslide	Neutral	True
494.617	0.25	Control	0.5849	0.0	Yes	2.633	0.017	n/a	GoodResponse	0	n/a	n/a	-1	52	Cue	Neutral	True
494.868	4.05	Control	0.5849	0.0	Yes	2.633	0.001	n/a	GoodResponse	0	n/a	n/a	-1	52	Fixation	Neutral	True
498.913	0.32	Control	0.5849	0.004	Yes	2.633	-0.004	2.0	GoodResponse	0	0.214	498.127	-1	52	Target	Neutral	True
499.127	0.3	Control	0.5849	0.004	Yes	2.633	-0.004	2.0	GoodResponse	0	0.214	n/a	-1	52	ButtonPress	Neutral	True
499.248	0.38	Control	0.5849	n/a	Yes	2.633	n/a	n/a	GoodResponse	0	n/a	n/a	-1	52	Blank	Neutral	True
499.616	1.45	Control	0.5849	n/a	Yes	2.633	n/a	5.0	GoodResponse	0	0.008	498.624	-1	52	Feedback	Neutral	True
501.07	2.633	Control	0.5849	n/a	Yes	2.633	n/a	n/a	GoodResponse	0	0.0	n/a	-1	52	ISIslide	Neutral	True
503.728	0.25	Win2	0.5926	0.0	Yes	2.922	0.028	n/a	GoodResponse	1	n/a	n/a	0	53	Cue	Win	True
503.979	4.05	Win2	0.5926	0.0	Yes	2.922	0.001	n/a	GoodResponse	1	n/a	n/a	0	53	Fixation	Win	True
508.024	0.33	Win2	0.5926	0.004	Yes	2.922	-0.004	2.0	GoodResponse	1	0.202	507.226	0	53	Target	Win	True
508.226	0.3	Win2	0.5926	0.004	Yes	2.922	-0.004	2.0	GoodResponse	1	0.202	n/a	0	53	ButtonPress	Win	True
508.358	0.37	Win2	0.5926	n/a	Yes	2.922	n/a	n/a	GoodResponse	1	n/a	n/a	0	53	Blank	Win	True
508.726	1.45	Win2	0.5926	n/a	Yes	2.922	n/a	5.0	GoodResponse	1	0.02	507.746	0	53	Feedback	Win	True
510.18	2.922	Win2	0.5926	n/a	Yes	2.922	n/a	n/a	GoodResponse	1	0.0	n/a	0	53	ISIslide	Win	True
513.122	0.25	Win2	0.6	0.001	Yes	2.728	0.022	n/a	GoodResponse	1	n/a	n/a	1	54	Cue	Win	True
513.373	3.95	Win2	0.6	0.0	Yes	2.728	0.001	n/a	GoodResponse	1	n/a	n/a	1	54	Fixation	Win	True
517.318	0.34	Win2	0.6	0.004	Yes	2.728	-0.004	2.0	GoodResponse	1	0.208	516.526	1	54	Target	Win	True
517.526	0.3	Win2	0.6	0.004	Yes	2.728	-0.004	2.0	GoodResponse	1	0.208	n/a	1	54	ButtonPress	Win	True
517.669	0.36	Win2	0.6	n/a	Yes	2.728	n/a	n/a	GoodResponse	1	n/a	n/a	1	54	Blank	Win	True
518.02	1.45	Win2	0.6	n/a	Yes	2.728	n/a	5.0	GoodResponse	1	0.043	517.063	1	54	Feedback	Win	True
519.475	2.728	Win2	0.6	n/a	Yes	2.728	n/a	n/a	GoodResponse	1	0.0	n/a	1	54	ISIslide	Win	True
522.216	0.25	Control	0.6071	0.0	Yes	3.034	0.016	n/a	GoodResponse	0	n/a	n/a	1	55	Cue	Neutral	True
522.467	3.95	Control	0.6071	0.0	Yes	3.034	0.001	n/a	GoodResponse	0	n/a	n/a	1	55	Fixation	Neutral	True
526.412	0.35	Control	0.6071	0.004	Yes	3.034	-0.004	2.0	GoodResponse	0	0.227	525.639	1	55	Target	Neutral	True
526.639	0.3	Control	0.6071	0.004	Yes	3.034	-0.004	2.0	GoodResponse	0	0.227	n/a	1	55	ButtonPress	Neutral	True
526.763	0.35	Control	0.6071	n/a	Yes	3.034	n/a	n/a	GoodResponse	0	n/a	n/a	1	55	Blank	Neutral	True
527.114	1.45	Control	0.6071	n/a	Yes	3.034	n/a	5.0	GoodResponse	0	0.022	526.136	1	55	Feedback	Neutral	True
528.569	3.034	Control	0.6071	n/a	Yes	3.034	n/a	n/a	GoodResponse	0	0.0	n/a	1	55	ISIslide	Neutral	True
531.628	0.25	Control	0.614	0.0	Yes	2.822	0.028	n/a	GoodResponse	0	n/a	n/a	1	56	Cue	Neutral	True
531.878	3.95	Control	0.614	0.001	Yes	2.822	0.0	n/a	GoodResponse	0	n/a	n/a	1	56	Fixation	Neutral	True
535.824	0.36	Control	0.614	0.004	Yes	2.822	-0.004	2.0	GoodResponse	0	0.217	535.041	1	56	Target	Neutral	True
536.041	0.3	Control	0.614	0.004	Yes	2.822	-0.004	2.0	GoodResponse	0	0.217	n/a	1	56	ButtonPress	Neutral	True
536.191	0.34	Control	0.614	n/a	Yes	2.822	n/a	n/a	GoodResponse	0	n/a	n/a	1	56	Blank	Neutral	True
536.526	1.45	Control	0.614	n/a	Yes	2.822	n/a	5.0	GoodResponse	0	0.025	535.551	1	56	Feedback	Neutral	True
537.98	2.822	Control	0.614	n/a	Yes	2.822	n/a	n/a	GoodResponse	0	0.0	n/a	1	56	ISIslide	Neutral	True
540.822	0.25	Control	0.6034	0.0	No	3.478	0.022	n/a	PrematurePress	0	n/a	n/a	1	57	Cue	Neutral	True
541.073	4.0	Control	0.6034	0.0	No	3.478	0.001	n/a	PrematurePress	0	n/a	n/a	1	57	Fixation	Neutral	True
545.068	0.37	Control	0.6034	0.004	No	3.478	-0.004	2.0	PrematurePress	0	0.06	544.128	1	57	Target	Neutral	True
545.128	0.3	Control	0.6034	0.004	No	3.478	-0.004	2.0	PrematurePress	0	0.06	n/a	1	57	ButtonPress	Neutral	True
545.452	0.33	Control	0.6034	n/a	No	3.478	n/a	n/a	PrematurePress	0	n/a	n/a	1	57	Blank	Neutral	True
545.77	1.45	Control	0.6034	n/a	No	3.478	n/a	5.0	PrematurePress	0	0.048	544.818	1	57	Feedback	Neutral	True
547.224	3.478	Control	0.6034	n/a	No	3.478	n/a	n/a	PrematurePress	0	0.0	n/a	1	57	ISIslide	Neutral	True
550.718	0.25	Win2	0.6102000000000001	0.0	Yes	2.732	0.018	n/a	GoodResponse	1	n/a	n/a	2	58	Cue	Win	True
550.969	4.05	Win2	0.6102000000000001	0.0	Yes	2.732	0.001	n/a	GoodResponse	1	n/a	n/a	2	58	Fixation	Win	True
555.014	0.38	Win2	0.6102000000000001	0.004	Yes	2.732	-0.004	2.0	GoodResponse	1	0.216	554.23	2	58	Target	Win	True
555.23	0.3	Win2	0.6102000000000001	0.004	Yes	2.732	-0.004	2.0	GoodResponse	1	0.216	n/a	2	58	ButtonPress	Win	True
555.399	0.32	Win2	0.6102000000000001	n/a	Yes	2.732	n/a	n/a	GoodResponse	1	n/a	n/a	2	58	Blank	Win	True
555.716	1.45	Win2	0.6102000000000001	n/a	Yes	2.732	n/a	5.0	GoodResponse	1	0.006	554.722	2	58	Feedback	Win	True
557.171	2.732	Win2	0.6102000000000001	n/a	Yes	2.732	n/a	n/a	GoodResponse	1	0.0	n/a	2	58	ISIslide	Win	True
559.929	0.25	Lose2	0.6167	0.0	Yes	2.671	0.029	n/a	GoodResponse	0	n/a	n/a	2	59	Cue	AvoidedLoss	True
560.18	4.0	Lose2	0.6167	0.0	Yes	2.671	0.001	n/a	GoodResponse	0	n/a	n/a	2	59	Fixation	AvoidedLoss	True
564.175	0.39	Lose2	0.6167	0.004	Yes	2.671	-0.004	2.0	GoodResponse	0	0.221	563.396	2	59	Target	AvoidedLoss	True
564.396	0.3	Lose2	0.6167	0.004	Yes	2.671	-0.004	2.0	GoodResponse	0	0.221	n/a	2	59	ButtonPress	AvoidedLoss	True
564.576	0.31	Lose2	0.6167	n/a	Yes	2.671	n/a	n/a	GoodResponse	0	n/a	n/a	2	59	Blank	AvoidedLoss	True
564.877	1.45	Lose2	0.6167	n/a	Yes	2.671	n/a	5.0	GoodResponse	0	0.014	563.891	2	59	Feedback	AvoidedLoss	True
566.331	2.671	Lose2	0.6167	n/a	Yes	2.671	n/a	n/a	GoodResponse	0	0.0	n/a	2	59	ISIslide	AvoidedLoss	True
569.023	0.25	Control	0.623	0.0	Yes	2.677	0.023	n/a	GoodResponse	0	n/a	n/a	2	60	Cue	Neutral	True
569.273	4.0	Control	0.623	0.0	Yes	2.677	0.0	n/a	GoodResponse	0	n/a	n/a	2	60	Fixation	Neutral	True
573.269	0.4	Control	0.623	0.004	Yes	2.677	-0.004	2.0	GoodResponse	0	0.214	572.483	2	60	Target	Neutral	True
573.483	0.3	Control	0.623	0.004	Yes	2.677	-0.004	2.0	GoodResponse	0	0.214	n/a	2	60	ButtonPress	Neutral	True
573.67	0.3	Control	0.623	n/a	Yes	2.677	n/a	n/a	GoodResponse	0	n/a	n/a	2	60	Blank	Neutral	True
573.971	1.45	Control	0.623	n/a	Yes	2.677	n/a	5.0	GoodResponse	0	0.042	573.013	2	60	Feedback	Neutral	True
575.425	2.677	Control	0.623	n/a	Yes	2.677	n/a	n/a	GoodResponse	0	0.0	n/a	2	60	ISIslide	Neutral	True
578.116	0.25	Lose2	0.629	0.0	Yes	2.984	0.016	n/a	GoodResponse	0	n/a	n/a	2	61	Cue	AvoidedLoss	True
578.367	4.0	Lose2	0.629	0.0	Yes	2.984	0.001	n/a	GoodResponse	0	n/a	n/a	2	61	Fixation	AvoidedLoss	True
582.362	0.41	Lose2	0.629	0.004	Yes	2.984	-0.004	2.0	GoodResponse	0	0.227	581.589	2	61	Target	AvoidedLoss	True
582.589	0.3	Lose2	0.629	0.004	Yes	2.984	-0.004	2.0	GoodResponse	0	0.227	n/a	2	61	ButtonPress	AvoidedLoss	True
582.78	0.29	Lose2	0.629	n/a	Yes	2.984	n/a	n/a	GoodResponse	0	n/a	n/a	2	61	Blank	AvoidedLoss	True
583.064	1.45	Lose2	0.629	n/a	Yes	2.984	n/a	5.0	GoodResponse	0	0.022	582.086	2	61	Feedback	AvoidedLoss	True
584.519	2.984	Lose2	0.629	n/a	Yes	2.984	n/a	n/a	GoodResponse	0	0.0	n/a	2	61	ISIslide	AvoidedLoss	True
587.528	0.25	Lose2	0.6349	0.0	Yes	2.872	0.028	n/a	GoodResponse	0	n/a	n/a	2	62	Cue	AvoidedLoss	True
587.779	3.9	Lose2	0.6349	0.0	Yes	2.872	0.001	n/a	GoodResponse	0	n/a	n/a	2	62	Fixation	AvoidedLoss	True
591.673	0.42	Lose2	0.6349	0.005	Yes	2.872	-0.005	2.0	GoodResponse	0	0.229	590.902	2	62	Target	AvoidedLoss	True
591.902	0.3	Lose2	0.6349	0.005	Yes	2.872	-0.005	2.0	GoodResponse	0	0.229	n/a	2	62	ButtonPress	AvoidedLoss	True
592.108	0.28	Lose2	0.6349	n/a	Yes	2.872	n/a	n/a	GoodResponse	0	n/a	n/a	2	62	Blank	AvoidedLoss	True
592.376	1.45	Lose2	0.6349	n/a	Yes	2.872	n/a	5.0	GoodResponse	0	0.027	591.403	2	62	Feedback	AvoidedLoss	True
593.83	2.872	Lose2	0.6349	n/a	Yes	2.872	n/a	n/a	GoodResponse	0	0.0	n/a	2	62	ISIslide	AvoidedLoss	True
596.722	0.25	Lose2	0.6406000000000001	0.0	Yes	2.628	0.022	n/a	GoodResponse	0	n/a	n/a	2	63	Cue	AvoidedLoss	True
596.973	4.05	Lose2	0.6406000000000001	0.0	Yes	2.628	0.001	n/a	GoodResponse	0	n/a	n/a	2	63	Fixation	AvoidedLoss	True
601.018	0.43	Lose2	0.6406000000000001	0.004	Yes	2.628	-0.004	2.0	GoodResponse	0	0.121	600.139	2	63	Target	AvoidedLoss	True
601.139	0.3	Lose2	0.6406000000000001	0.004	Yes	2.628	-0.004	2.0	GoodResponse	0	0.121	n/a	2	63	ButtonPress	AvoidedLoss	True
601.453	0.27	Lose2	0.6406000000000001	n/a	Yes	2.628	n/a	n/a	GoodResponse	0	n/a	n/a	2	63	Blank	AvoidedLoss	True
601.72	1.45	Lose2	0.6406000000000001	n/a	Yes	2.628	n/a	5.0	GoodResponse	0	0.049	600.769	2	63	Feedback	AvoidedLoss	True
603.174	2.628	Lose2	0.6406000000000001	n/a	Yes	2.628	n/a	n/a	GoodResponse	0	0.0	n/a	2	63	ISIslide	AvoidedLoss	True
605.816	0.25	Win2	0.6462	0.0	Yes	3.134	0.016	n/a	GoodResponse	1	n/a	n/a	3	64	Cue	Win	True
606.066	4.15	Win2	0.6462	0.001	Yes	3.134	0.0	n/a	GoodResponse	1	n/a	n/a	3	64	Fixation	Win	True
610.212	0.44	Win2	0.6462	0.004	Yes	3.134	-0.004	2.0	GoodResponse	1	0.188	609.4	3	64	Target	Win	True
610.4	0.3	Win2	0.6462	0.004	Yes	3.134	-0.004	2.0	GoodResponse	1	0.188	n/a	3	64	ButtonPress	Win	True
610.663	0.26	Win2	0.6462	n/a	Yes	3.134	n/a	n/a	GoodResponse	1	n/a	n/a	3	64	Blank	Win	True
610.914	1.45	Win2	0.6462	n/a	Yes	3.134	n/a	5.0	GoodResponse	1	0.026	609.94	3	64	Feedback	Win	True
612.369	3.134	Win2	0.6462	n/a	Yes	3.134	n/a	n/a	GoodResponse	1	0.0	n/a	3	64	ISIslide	Win	True
615.528	0.25	Control	0.6515000000000001	0.0	Yes	2.772	0.028	n/a	GoodResponse	0	n/a	n/a	3	65	Cue	Neutral	True
615.779	4.0	Control	0.6515000000000001	0.0	Yes	2.772	0.001	n/a	GoodResponse	0	n/a	n/a	3	65	Fixation	Neutral	True
619.774	0.45	Control	0.6515000000000001	0.004	Yes	2.772	-0.004	2.0	GoodResponse	0	0.235	619.009	3	65	Target	Neutral	True
620.009	0.3	Control	0.6515000000000001	0.004	Yes	2.772	-0.004	2.0	GoodResponse	0	0.235	n/a	3	65	ButtonPress	Neutral	True
620.225	0.25	Control	0.6515000000000001	n/a	Yes	2.772	n/a	n/a	GoodResponse	0	n/a	n/a	3	65	Blank	Neutral	True
620.476	1.45	Control	0.6515000000000001	n/a	Yes	2.772	n/a	5.0	GoodResponse	0	0.024	619.5	3	65	Feedback	Neutral	True
621.93	2.772	Control	0.6515000000000001	n/a	Yes	2.772	n/a	n/a	GoodResponse	0	0.0	n/a	3	65	ISIslide	Neutral	True
624.722	0.25	Win2	0.6567000000000001	0.0	Yes	2.778	0.022	n/a	GoodResponse	1	n/a	n/a	4	66	Cue	Win	True
624.973	3.9	Win2	0.6567000000000001	0.0	Yes	2.778	0.001	n/a	GoodResponse	1	n/a	n/a	4	66	Fixation	Win	True
628.868	0.46	Win2	0.6567000000000001	0.004	Yes	2.778	-0.004	2.0	GoodResponse	1	0.213	628.081	4	66	Target	Win	True
629.081	0.3	Win2	0.6567000000000001	0.004	Yes	2.778	-0.004	2.0	GoodResponse	1	0.213	n/a	4	66	ButtonPress	Win	True
629.336	0.24	Win2	0.6567000000000001	n/a	Yes	2.778	n/a	n/a	GoodResponse	1	n/a	n/a	4	66	Blank	Win	True
629.57	1.45	Win2	0.6567000000000001	n/a	Yes	2.778	n/a	5.0	GoodResponse	1	0.006	628.576	4	66	Feedback	Win	True
631.024	2.778	Win2	0.6567000000000001	n/a	Yes	2.778	n/a	n/a	GoodResponse	1	0.0	n/a	4	66	ISIslide	Win	True
633.816	0.25	Control	0.6618	0.0	Yes	2.734	0.016	n/a	GoodResponse	0	n/a	n/a	4	67	Cue	Neutral	True
634.067	3.95	Control	0.6618	0.0	Yes	2.734	0.001	n/a	GoodResponse	0	n/a	n/a	4	67	Fixation	Neutral	True
638.012	0.46	Control	0.6618	0.004	Yes	2.734	-0.004	2.0	GoodResponse	0	0.212	637.224	4	67	Target	Neutral	True
638.224	0.3	Control	0.6618	0.004	Yes	2.734	-0.004	2.0	GoodResponse	0	0.212	n/a	4	67	ButtonPress	Neutral	True
638.48	0.24	Control	0.6618	n/a	Yes	2.734	n/a	n/a	GoodResponse	0	n/a	n/a	4	67	Blank	Neutral	True
638.714	1.45	Control	0.6618	n/a	Yes	2.734	n/a	5.0	GoodResponse	0	0.03	637.744	4	67	Feedback	Neutral	True
640.168	2.734	Control	0.6618	n/a	Yes	2.734	n/a	n/a	GoodResponse	0	0.0	n/a	4	67	ISIslide	Neutral	True
642.926	0.25	Win2	0.6667000000000001	0.0	Yes	3.074	0.026	n/a	GoodResponse	1	n/a	n/a	5	68	Cue	Win	True
643.177	4.0	Win2	0.6667000000000001	0.0	Yes	3.074	0.001	n/a	GoodResponse	1	n/a	n/a	5	68	Fixation	Win	True
647.172	0.46	Win2	0.6667000000000001	0.004	Yes	3.074	-0.004	2.0	GoodResponse	1	0.121	646.293	5	68	Target	Win	True
647.293	0.3	Win2	0.6667000000000001	0.004	Yes	3.074	-0.004	2.0	GoodResponse	1	0.121	n/a	5	68	ButtonPress	Win	True
647.64	0.24	Win2	0.6667000000000001	n/a	Yes	3.074	n/a	n/a	GoodResponse	1	n/a	n/a	5	68	Blank	Win	True
647.874	1.45	Win2	0.6667000000000001	n/a	Yes	3.074	n/a	5.0	GoodResponse	1	0.04	646.914	5	68	Feedback	Win	True
649.329	3.074	Win2	0.6667000000000001	n/a	Yes	3.074	n/a	n/a	GoodResponse	1	0.0	n/a	5	68	ISIslide	Win	True
652.421	0.25	Win2	0.6714	0.0	Yes	3.229	0.021	n/a	GoodResponse	1	n/a	n/a	6	69	Cue	Win	True
652.672	3.95	Win2	0.6714	0.0	Yes	3.229	0.001	n/a	GoodResponse	1	n/a	n/a	6	69	Fixation	Win	True
656.617	0.45	Win2	0.6714	0.004	Yes	3.229	-0.004	2.0	GoodResponse	1	0.186	655.803	6	69	Target	Win	True
656.803	0.3	Win2	0.6714	0.004	Yes	3.229	-0.004	2.0	GoodResponse	1	0.186	n/a	6	69	ButtonPress	Win	True
657.069	0.25	Win2	0.6714	n/a	Yes	3.229	n/a	n/a	GoodResponse	1	n/a	n/a	6	69	Blank	Win	True
657.319	1.45	Win2	0.6714	n/a	Yes	3.229	n/a	5.0	GoodResponse	1	0.009	656.328	6	69	Feedback	Win	True
658.774	3.229	Win2	0.6714	n/a	Yes	3.229	n/a	n/a	GoodResponse	1	0.0	n/a	6	69	ISIslide	Win	True
662.017	0.25	Lose2	0.6761	0.0	Yes	3.033	0.017	n/a	GoodResponse	0	n/a	n/a	6	70	Cue	AvoidedLoss	True
662.267	4.05	Lose2	0.6761	0.0	Yes	3.033	0.0	n/a	GoodResponse	0	n/a	n/a	6	70	Fixation	AvoidedLoss	True
666.313	0.44	Lose2	0.6761	0.004	Yes	3.033	-0.004	2.0	GoodResponse	0	0.21	665.523	6	70	Target	AvoidedLoss	True
666.523	0.3	Lose2	0.6761	0.004	Yes	3.033	-0.004	2.0	GoodResponse	0	0.21	n/a	6	70	ButtonPress	AvoidedLoss	True
666.764	0.26	Lose2	0.6761	n/a	Yes	3.033	n/a	n/a	GoodResponse	0	n/a	n/a	6	70	Blank	AvoidedLoss	True
667.015	1.45	Lose2	0.6761	n/a	Yes	3.033	n/a	5.0	GoodResponse	0	0.021	666.036	6	70	Feedback	AvoidedLoss	True
668.469	3.033	Lose2	0.6761	n/a	Yes	3.033	n/a	n/a	GoodResponse	0	0.0	n/a	6	70	ISIslide	AvoidedLoss	True
671.528	0.25	Win2	0.6806	0.0	Yes	2.722	0.028	n/a	GoodResponse	1	n/a	n/a	7	71	Cue	Win	True
671.779	4.05	Win2	0.6806	0.0	Yes	2.722	0.001	n/a	GoodResponse	1	n/a	n/a	7	71	Fixation	Win	True
675.825	0.43	Win2	0.6806	0.003	Yes	2.722	-0.003	2.0	GoodResponse	1	0.204	675.029	7	71	Target	Win	True
676.029	0.3	Win2	0.6806	0.003	Yes	2.722	-0.003	2.0	GoodResponse	1	0.204	n/a	7	71	ButtonPress	Win	True
676.259	0.27	Win2	0.6806	n/a	Yes	2.722	n/a	n/a	GoodResponse	1	n/a	n/a	7	71	Blank	Win	True
676.527	1.45	Win2	0.6806	n/a	Yes	2.722	n/a	5.0	GoodResponse	1	0.021	675.548	7	71	Feedback	Win	True
677.981	2.722	Win2	0.6806	n/a	Yes	2.722	n/a	n/a	GoodResponse	1	0.0	n/a	7	71	ISIslide	Win	True
680.722	0.25	Win2	0.6849	0.001	Yes	2.778	0.022	n/a	GoodResponse	1	n/a	n/a	8	72	Cue	Win	True
680.973	4.1	Win2	0.6849	0.0	Yes	2.778	0.001	n/a	GoodResponse	1	n/a	n/a	8	72	Fixation	Win	True
685.069	0.42	Win2	0.6849	0.003	Yes	2.778	-0.003	2.0	GoodResponse	1	0.205	684.274	8	72	Target	Win	True
685.274	0.3	Win2	0.6849	0.003	Yes	2.778	-0.003	2.0	GoodResponse	1	0.205	n/a	8	72	ButtonPress	Win	True
685.503	0.28	Win2	0.6849	n/a	Yes	2.778	n/a	n/a	GoodResponse	1	n/a	n/a	8	72	Blank	Win	True
685.771	1.45	Win2	0.6849	n/a	Yes	2.778	n/a	5.0	GoodResponse	1	0.044	684.815	8	72	Feedback	Win	True
687.225	2.778	Win2	0.6849	n/a	Yes	2.778	n/a	n/a	GoodResponse	1	0.0	n/a	8	72	ISIslide	Win	True
690.017	0.25	Win2	0.6892	0.0	Yes	2.683	0.017	n/a	GoodResponse	1	n/a	n/a	9	73	Cue	Win	True
690.268	4.0	Win2	0.6892	0.0	Yes	2.683	0.001	n/a	GoodResponse	1	n/a	n/a	9	73	Fixation	Win	True
694.263	0.41	Win2	0.6892	0.004	Yes	2.683	-0.004	2.0	GoodResponse	1	0.263	693.526	9	73	Target	Win	True
694.526	0.3	Win2	0.6892	0.004	Yes	2.683	-0.004	2.0	GoodResponse	1	0.263	n/a	9	73	ButtonPress	Win	True
694.681	0.29	Win2	0.6892	n/a	Yes	2.683	n/a	n/a	GoodResponse	1	n/a	n/a	9	73	Blank	Win	True
694.965	1.45	Win2	0.6892	n/a	Yes	2.683	n/a	5.0	GoodResponse	1	0.021	693.986	9	73	Feedback	Win	True
696.419	2.683	Win2	0.6892	n/a	Yes	2.683	n/a	n/a	GoodResponse	1	0.0	n/a	9	73	ISIslide	Win	True
699.127	0.25	Lose2	0.6933	0.0	Yes	2.623	0.027	n/a	GoodResponse	0	n/a	n/a	9	74	Cue	AvoidedLoss	True
699.378	4.05	Lose2	0.6933	0.0	Yes	2.623	0.001	n/a	GoodResponse	0	n/a	n/a	9	74	Fixation	AvoidedLoss	True
703.424	0.4	Lose2	0.6933	0.003	Yes	2.623	-0.003	2.0	GoodResponse	0	0.218	702.642	9	74	Target	AvoidedLoss	True
703.642	0.3	Lose2	0.6933	0.003	Yes	2.623	-0.003	2.0	GoodResponse	0	0.218	n/a	9	74	ButtonPress	AvoidedLoss	True
703.825	0.3	Lose2	0.6933	n/a	Yes	2.623	n/a	n/a	GoodResponse	0	n/a	n/a	9	74	Blank	AvoidedLoss	True
704.126	1.45	Lose2	0.6933	n/a	Yes	2.623	n/a	5.0	GoodResponse	0	0.031	703.157	9	74	Feedback	AvoidedLoss	True
705.58	2.623	Lose2	0.6933	n/a	Yes	2.623	n/a	n/a	GoodResponse	0	0.0	n/a	9	74	ISIslide	AvoidedLoss	True
708.221	0.25	Lose2	0.6973999999999999	0.0	Yes	2.929	0.021	n/a	GoodResponse	0	n/a	n/a	9	75	Cue	AvoidedLoss	True
708.472	3.95	Lose2	0.6973999999999999	0.0	Yes	2.929	0.001	n/a	GoodResponse	0	n/a	n/a	9	75	Fixation	AvoidedLoss	True
712.417	0.39	Lose2	0.6973999999999999	0.004	Yes	2.929	-0.004	2.0	GoodResponse	0	0.181	711.598	9	75	Target	AvoidedLoss	True
712.598	0.3	Lose2	0.6973999999999999	0.004	Yes	2.929	-0.004	2.0	GoodResponse	0	0.181	n/a	9	75	ButtonPress	AvoidedLoss	True
712.818	0.31	Lose2	0.6973999999999999	n/a	Yes	2.929	n/a	n/a	GoodResponse	0	n/a	n/a	9	75	Blank	AvoidedLoss	True
713.119	1.45	Lose2	0.6973999999999999	n/a	Yes	2.929	n/a	5.0	GoodResponse	0	0.013	712.132	9	75	Feedback	AvoidedLoss	True
714.573	2.929	Lose2	0.6973999999999999	n/a	Yes	2.929	n/a	n/a	GoodResponse	0	0.0	n/a	9	75	ISIslide	AvoidedLoss	True
717.516	0.25	Control	0.7012999999999999	0.0	Yes	3.234	0.016	n/a	GoodResponse	0	n/a	n/a	9	76	Cue	Neutral	True
717.766	4.05	Control	0.7012999999999999	0.0	Yes	3.234	0.0	n/a	GoodResponse	0	n/a	n/a	9	76	Fixation	Neutral	True
721.812	0.38	Control	0.7012999999999999	0.004	Yes	3.234	-0.004	2.0	GoodResponse	0	0.213	721.025	9	76	Target	Neutral	True
722.025	0.3	Control	0.7012999999999999	0.004	Yes	3.234	-0.004	2.0	GoodResponse	0	0.213	n/a	9	76	ButtonPress	Neutral	True
722.196	0.32	Control	0.7012999999999999	n/a	Yes	3.234	n/a	n/a	GoodResponse	0	n/a	n/a	9	76	Blank	Neutral	True
722.514	1.45	Control	0.7012999999999999	n/a	Yes	3.234	n/a	5.0	GoodResponse	0	0.033	721.547	9	76	Feedback	Neutral	True
723.968	3.234	Control	0.7012999999999999	n/a	Yes	3.234	n/a	n/a	GoodResponse	0	0.0	n/a	9	76	ISIslide	Neutral	True
727.228	0.25	Lose2	0.7051000000000001	0.0	Yes	2.572	0.028	n/a	GoodResponse	0	n/a	n/a	9	77	Cue	AvoidedLoss	True
727.479	3.95	Lose2	0.7051000000000001	0.0	Yes	2.572	0.001	n/a	GoodResponse	0	n/a	n/a	9	77	Fixation	AvoidedLoss	True
731.424	0.37	Lose2	0.7051000000000001	0.004	Yes	2.572	-0.004	2.0	GoodResponse	0	0.206	730.63	9	77	Target	AvoidedLoss	True
731.63	0.3	Lose2	0.7051000000000001	0.004	Yes	2.572	-0.004	2.0	GoodResponse	0	0.206	n/a	9	77	ButtonPress	AvoidedLoss	True
731.808	0.33	Lose2	0.7051000000000001	n/a	Yes	2.572	n/a	n/a	GoodResponse	0	n/a	n/a	9	77	Blank	AvoidedLoss	True
732.126	1.45	Lose2	0.7051000000000001	n/a	Yes	2.572	n/a	5.0	GoodResponse	0	0.03	731.156	9	77	Feedback	AvoidedLoss	True
733.58	2.572	Lose2	0.7051000000000001	n/a	Yes	2.572	n/a	n/a	GoodResponse	0	0.0	n/a	9	77	ISIslide	AvoidedLoss	True
