onset	duration	cue_type	current_mean_accuracy	duration_error	is_hit	isi_adjusted	onset_delay	response	response_type	reward	rt	rt_time	total_reward	trial_number	trial_phase	trial_type	one_press
11.105	0.25	Control	1.0	0.001	Yes	2.945	0.005	n/a	GoodResponse	0	n/a	n/a	0	0	Cue	Neutral	True
11.356	3.85	Control	1.0	0.0	Yes	2.945	0.001	n/a	GoodResponse	0	n/a	n/a	0	0	Fixation	Neutral	True
15.201	0.4	Control	1.0	0.004	Yes	2.945	-0.004	1.0	GoodResponse	0	0.211	14.412	0	0	Target	Neutral	True
15.412	0.3	Control	1.0	0.004	Yes	2.945	-0.004	1.0	GoodResponse	0	0.211	n/a	0	0	ButtonPress	Neutral	True
15.602	0.3	Control	1.0	n/a	Yes	2.945	n/a	n/a	GoodResponse	0	n/a	n/a	0	0	Blank	Neutral	True
15.903	1.45	Control	1.0	n/a	Yes	2.945	n/a	5.0	GoodResponse	0	0.024	14.927	0	0	Feedback	Neutral	True
17.358	2.945	Control	1.0	n/a	Yes	2.945	n/a	n/a	GoodResponse	0	0.0	n/a	0	0	ISIslide	Neutral	True
20.316	0.25	Lose2	1.0	0.0	Yes	2.784	0.016	n/a	GoodResponse	0	n/a	n/a	0	1	Cue	AvoidedLoss	True
20.567	4.0	Lose2	1.0	0.0	Yes	2.784	0.001	n/a	GoodResponse	0	n/a	n/a	0	1	Fixation	AvoidedLoss	True
24.562	0.39	Lose2	1.0	0.004	Yes	2.784	-0.004	1.0	GoodResponse	0	0.233	23.795	0	1	Target	AvoidedLoss	True
24.795	0.3	Lose2	1.0	0.004	Yes	2.784	-0.004	1.0	GoodResponse	0	0.233	n/a	0	1	ButtonPress	AvoidedLoss	True
24.964	0.31	Lose2	1.0	n/a	Yes	2.784	n/a	n/a	GoodResponse	0	n/a	n/a	0	1	Blank	AvoidedLoss	True
25.265	1.45	Lose2	1.0	n/a	Yes	2.784	n/a	5.0	GoodResponse	0	0.028	24.293	0	1	Feedback	AvoidedLoss	True
26.719	2.784	Lose2	1.0	n/a	Yes	2.784	n/a	n/a	GoodResponse	0	0.0	n/a	0	1	ISIslide	AvoidedLoss	True
29.527	0.25	Control	0.6667000000000001	0.0	No	2.573	0.027	n/a	NoResponse	0	n/a	n/a	0	2	Cue	Neutral	True
29.778	4.1	Control	0.6667000000000001	0.0	No	2.573	0.001	n/a	NoResponse	0	n/a	n/a	0	2	Fixation	Neutral	True
33.874	0.38	Control	0.6667000000000001	0.003	No	2.573	-0.003	1.0	NoResponse	0	0.522	33.396	0	2	Target	Neutral	True
34.258	0.32	Control	0.6667000000000001	n/a	No	2.573	n/a	n/a	NoResponse	0	n/a	n/a	0	2	Blank	Neutral	True
34.396	0.3	Control	0.6667000000000001	0.003	No	2.573	-0.003	1.0	NoResponse	0	0.522	n/a	0	2	ButtonPress	Neutral	True
34.576	1.45	Control	0.6667000000000001	n/a	No	2.573	n/a	5.0	NoResponse	0	0.033	33.609	0	2	Feedback	Neutral	True
36.03	2.573	Control	0.6667000000000001	n/a	No	2.573	n/a	n/a	NoResponse	0	0.0	n/a	0	2	ISIslide	Neutral	True
38.621	0.25	Win2	0.75	0.0	Yes	2.829	0.021	n/a	GoodResponse	1	n/a	n/a	1	3	Cue	Win	True
38.872	3.95	Win2	0.75	0.0	Yes	2.829	0.001	n/a	GoodResponse	1	n/a	n/a	1	3	Fixation	Win	True
42.817	0.37	Win2	0.75	0.004	Yes	2.829	-0.004	1.0	GoodResponse	1	0.21	42.027	1	3	Target	Win	True
43.027	0.3	Win2	0.75	0.004	Yes	2.829	-0.004	1.0	GoodResponse	1	0.21	n/a	1	3	ButtonPress	Win	True
43.202	0.33	Win2	0.75	n/a	Yes	2.829	n/a	n/a	GoodResponse	1	n/a	n/a	1	3	Blank	Win	True
43.519	1.45	Win2	0.75	n/a	Yes	2.829	n/a	5.0	GoodResponse	1	0.017	42.536	1	3	Feedback	Win	True
44.974	2.829	Win2	0.75	n/a	Yes	2.829	n/a	n/a	GoodResponse	1	0.0	n/a	1	3	ISIslide	Win	True
47.816	0.25	Win2	0.6	0.0	No	3.284	0.016	n/a	NoResponse	0	n/a	n/a	1	4	Cue	MissedWin	True
48.066	4.0	Win2	0.6	0.0	No	3.284	0.0	n/a	NoResponse	0	n/a	n/a	1	4	Fixation	MissedWin	True
52.062	0.36	Win2	0.6	0.004	No	3.284	-0.004	1.0	NoResponse	0	0.389	51.451	1	4	Target	MissedWin	True
52.429	0.34	Win2	0.6	n/a	No	3.284	n/a	n/a	NoResponse	0	n/a	n/a	1	4	Blank	MissedWin	True
52.451	0.3	Win2	0.6	0.004	No	3.284	-0.004	1.0	NoResponse	0	0.389	n/a	1	4	ButtonPress	MissedWin	True
52.764	1.45	Win2	0.6	n/a	No	3.284	n/a	5.0	NoResponse	0	0.04	51.804	1	4	Feedback	MissedWin	True
54.218	3.284	Win2	0.6	n/a	No	3.284	n/a	n/a	NoResponse	0	0.0	n/a	1	4	ISIslide	MissedWin	True
57.528	0.25	Win2	0.6667000000000001	0.0	Yes	2.772	0.028	n/a	GoodResponse	1	n/a	n/a	2	5	Cue	Win	True
57.779	4.0	Win2	0.6667000000000001	0.0	Yes	2.772	0.001	n/a	GoodResponse	1	n/a	n/a	2	5	Fixation	Win	True
61.774	0.37	Win2	0.6667000000000001	0.004	Yes	2.772	-0.004	1.0	GoodResponse	1	0.209	60.983	2	5	Target	Win	True
61.983	0.3	Win2	0.6667000000000001	0.004	Yes	2.772	-0.004	1.0	GoodResponse	1	0.209	n/a	2	5	ButtonPress	Win	True
62.159	0.33	Win2	0.6667000000000001	n/a	Yes	2.772	n/a	n/a	GoodResponse	1	n/a	n/a	2	5	Blank	Win	True
62.476	1.45	Win2	0.6667000000000001	n/a	Yes	2.772	n/a	5.0	GoodResponse	1	0.036	61.512	2	5	Feedback	Win	True
63.931	2.772	Win2	0.6667000000000001	n/a	Yes	2.772	n/a	n/a	GoodResponse	1	0.0	n/a	2	5	ISIslide	Win	True
66.722	0.25	Lose2	0.7143	0.0	Yes	2.728	0.022	n/a	GoodResponse	0	n/a	n/a	2	6	Cue	AvoidedLoss	True
66.973	3.95	Lose2	0.7143	0.0	Yes	2.728	0.001	n/a	GoodResponse	0	n/a	n/a	2	6	Fixation	AvoidedLoss	True
70.918	0.36	Lose2	0.7143	0.004	Yes	2.728	-0.004	1.0	GoodResponse	0	0.203	70.121	2	6	Target	AvoidedLoss	True
71.121	0.3	Lose2	0.7143	0.004	Yes	2.728	-0.004	1.0	GoodResponse	0	0.203	n/a	2	6	ButtonPress	AvoidedLoss	True
71.286	0.34	Lose2	0.7143	n/a	Yes	2.728	n/a	n/a	GoodResponse	0	n/a	n/a	2	6	Blank	AvoidedLoss	True
71.62	1.45	Lose2	0.7143	n/a	Yes	2.728	n/a	5.0	GoodResponse	0	0.014	70.634	2	6	Feedback	AvoidedLoss	True
73.075	2.728	Lose2	0.7143	n/a	Yes	2.728	n/a	n/a	GoodResponse	0	0.0	n/a	2	6	ISIslide	AvoidedLoss	True
75.816	0.25	Lose2	0.75	0.0	Yes	4.034	0.016	n/a	GoodResponse	0	n/a	n/a	2	7	Cue	AvoidedLoss	True
76.067	4.05	Lose2	0.75	0.0	Yes	4.034	0.001	n/a	GoodResponse	0	n/a	n/a	2	7	Fixation	AvoidedLoss	True
80.112	0.35	Lose2	0.75	0.004	Yes	4.034	-0.004	1.0	GoodResponse	0	0.182	79.294	2	7	Target	AvoidedLoss	True
80.294	0.3	Lose2	0.75	0.004	Yes	4.034	-0.004	1.0	GoodResponse	0	0.182	n/a	2	7	ButtonPress	AvoidedLoss	True
80.463	0.35	Lose2	0.75	n/a	Yes	4.034	n/a	n/a	GoodResponse	0	n/a	n/a	2	7	Blank	AvoidedLoss	True
80.815	1.45	Lose2	0.75	n/a	Yes	4.034	n/a	5.0	GoodResponse	0	0.038	79.853	2	7	Feedback	AvoidedLoss	True
82.269	4.034	Lose2	0.75	n/a	Yes	4.034	n/a	n/a	GoodResponse	0	0.0	n/a	2	7	ISIslide	AvoidedLoss	True
86.331	0.25	Lose2	0.7778	0.0	Yes	3.019	0.031	n/a	GoodResponse	0	n/a	n/a	2	8	Cue	AvoidedLoss	True
86.582	3.95	Lose2	0.7778	0.0	Yes	3.019	0.001	n/a	GoodResponse	0	n/a	n/a	2	8	Fixation	AvoidedLoss	True
90.527	0.34	Lose2	0.7778	0.004	Yes	3.019	-0.004	1.0	GoodResponse	0	0.339	89.866	2	8	Target	AvoidedLoss	True
90.866	0.3	Lose2	0.7778	0.004	Yes	3.019	-0.004	1.0	GoodResponse	0	0.339	n/a	2	8	ButtonPress	AvoidedLoss	True
90.878	0.36	Lose2	0.7778	n/a	Yes	3.019	n/a	n/a	GoodResponse	0	n/a	n/a	2	8	Blank	AvoidedLoss	True
91.229	1.45	Lose2	0.7778	n/a	Yes	3.019	n/a	5.0	GoodResponse	0	0.015	90.244	2	8	Feedback	AvoidedLoss	True
92.683	3.019	Lose2	0.7778	n/a	Yes	3.019	n/a	n/a	GoodResponse	0	0.0	n/a	2	8	ISIslide	AvoidedLoss	True
95.726	0.25	Lose2	0.8	0.0	Yes	3.124	0.026	n/a	GoodResponse	0	n/a	n/a	2	9	Cue	AvoidedLoss	True
95.977	3.95	Lose2	0.8	0.0	Yes	3.124	0.001	n/a	GoodResponse	0	n/a	n/a	2	9	Fixation	AvoidedLoss	True
99.922	0.33	Lose2	0.8	0.004	Yes	3.124	-0.004	1.0	GoodResponse	0	0.205	99.127	2	9	Target	AvoidedLoss	True
100.127	0.3	Lose2	0.8	0.004	Yes	3.124	-0.004	1.0	GoodResponse	0	0.205	n/a	2	9	ButtonPress	AvoidedLoss	True
100.256	0.37	Lose2	0.8	n/a	Yes	3.124	n/a	n/a	GoodResponse	0	n/a	n/a	2	9	Blank	AvoidedLoss	True
100.624	1.45	Lose2	0.8	n/a	Yes	3.124	n/a	5.0	GoodResponse	0	0.033	99.657	2	9	Feedback	AvoidedLoss	True
102.078	3.124	Lose2	0.8	n/a	Yes	3.124	n/a	1.0	GoodResponse	0	1.45	n/a	2	9	ISIslide	AvoidedLoss	True
105.204	0.25	Control	0.8181999999999999	0.0	Yes	3.296	0.004	n/a	GoodResponse	0	n/a	n/a	2	10	Cue	Neutral	True
105.455	4.0	Control	0.8181999999999999	0.0	Yes	3.296	0.001	n/a	GoodResponse	0	n/a	n/a	2	10	Fixation	Neutral	True
109.45	0.32	Control	0.8181999999999999	0.004	Yes	3.296	-0.004	1.0	GoodResponse	0	0.273	108.723	2	10	Target	Neutral	True
109.723	0.3	Control	0.8181999999999999	0.004	Yes	3.296	-0.004	1.0	GoodResponse	0	0.273	n/a	2	10	ButtonPress	Neutral	True
109.785	0.38	Control	0.8181999999999999	n/a	Yes	3.296	n/a	n/a	GoodResponse	0	n/a	n/a	2	10	Blank	Neutral	True
110.153	1.45	Control	0.8181999999999999	n/a	Yes	3.296	n/a	5.0	GoodResponse	0	0.017	109.17	2	10	Feedback	Neutral	True
111.607	3.296	Control	0.8181999999999999	n/a	Yes	3.296	n/a	n/a	GoodResponse	0	0.0	n/a	2	10	ISIslide	Neutral	True
114.917	0.25	Lose2	0.8332999999999999	0.0	Yes	2.733	0.017	n/a	GoodResponse	0	n/a	n/a	2	11	Cue	AvoidedLoss	True
115.168	4.05	Lose2	0.8332999999999999	0.0	Yes	2.733	0.001	n/a	GoodResponse	0	n/a	n/a	2	11	Fixation	AvoidedLoss	True
119.213	0.31	Lose2	0.8332999999999999	0.004	Yes	2.733	-0.004	1.0	GoodResponse	0	0.228	118.441	2	11	Target	AvoidedLoss	True
119.441	0.3	Lose2	0.8332999999999999	0.004	Yes	2.733	-0.004	1.0	GoodResponse	0	0.228	n/a	2	11	ButtonPress	AvoidedLoss	True
119.531	0.39	Lose2	0.8332999999999999	n/a	Yes	2.733	n/a	n/a	GoodResponse	0	n/a	n/a	2	11	Blank	AvoidedLoss	True
119.915	1.45	Lose2	0.8332999999999999	n/a	Yes	2.733	n/a	5.0	GoodResponse	0	0.011	118.926	2	11	Feedback	AvoidedLoss	True
121.37	2.733	Lose2	0.8332999999999999	n/a	Yes	2.733	n/a	n/a	GoodResponse	0	0.0	n/a	2	11	ISIslide	AvoidedLoss	True
124.128	0.25	Control	0.7692	0.0	No	2.972	0.028	n/a	NoResponse	0	n/a	n/a	2	12	Cue	Neutral	True
124.379	3.9	Control	0.7692	0.0	No	2.972	0.001	n/a	NoResponse	0	n/a	n/a	2	12	Fixation	Neutral	True
128.274	0.3	Control	0.7692	0.004	No	2.972	-0.004	1.0	NoResponse	0	0.321	127.595	2	12	Target	Neutral	True
128.574	0.4	Control	0.7692	n/a	No	2.972	n/a	n/a	NoResponse	0	n/a	n/a	2	12	Blank	Neutral	True
128.595	0.3	Control	0.7692	0.004	No	2.972	-0.004	1.0	NoResponse	0	0.321	n/a	2	12	ButtonPress	Neutral	True
128.976	1.45	Control	0.7692	n/a	No	2.972	n/a	5.0	NoResponse	0	0.023	127.999	2	12	Feedback	Neutral	True
130.43	2.972	Control	0.7692	n/a	No	2.972	n/a	n/a	NoResponse	0	0.0	n/a	2	12	ISIslide	Neutral	True
133.422	0.25	Control	0.7857	0.0	Yes	2.778	0.022	n/a	GoodResponse	0	n/a	n/a	2	13	Cue	Neutral	True
133.673	4.0	Control	0.7857	0.0	Yes	2.778	0.001	n/a	GoodResponse	0	n/a	n/a	2	13	Fixation	Neutral	True
137.668	0.29	Control	0.7857	0.004	Yes	2.778	-0.004	1.0	GoodResponse	0	0.224	136.892	2	13	Target	Neutral	True
137.892	0.3	Control	0.7857	0.004	Yes	2.778	-0.004	1.0	GoodResponse	0	0.224	n/a	2	13	ButtonPress	Neutral	True
137.969	0.41	Control	0.7857	n/a	Yes	2.778	n/a	n/a	GoodResponse	0	n/a	n/a	2	13	Blank	Neutral	True
138.371	1.45	Control	0.7857	n/a	Yes	2.778	n/a	5.0	GoodResponse	0	0.043	137.414	2	13	Feedback	Neutral	True
139.825	2.778	Control	0.7857	n/a	Yes	2.778	n/a	n/a	GoodResponse	0	0.0	n/a	2	13	ISIslide	Neutral	True
142.617	0.25	Win2	0.8	0.0	Yes	2.683	0.017	n/a	GoodResponse	1	n/a	n/a	3	14	Cue	Win	False
142.867	4.1	Win2	0.8	0.0	Yes	2.683	0.0	1.0	GoodResponse	1	3.383	145.25	3	14	Fixation	Win	False
146.25	0.3	Win2	0.8	0.0	Yes	2.683	0.0	1.0	GoodResponse	1	3.383	n/a	3	14	ButtonPress	Win	False
146.963	0.28	Win2	0.8	0.004	Yes	2.683	-0.004	1.0	GoodResponse	1	0.263	146.226	3	14	Target	Win	False
147.226	0.3	Win2	0.8	0.004	Yes	2.683	-0.004	1.0	GoodResponse	1	0.263	n/a	3	14	ButtonPress	Win	False
147.247	0.42	Win2	0.8	n/a	Yes	2.683	n/a	n/a	GoodResponse	1	n/a	n/a	3	14	Blank	Win	False
147.665	1.45	Win2	0.8	n/a	Yes	2.683	n/a	5.0	GoodResponse	1	0.017	146.682	3	14	Feedback	Win	False
149.119	2.683	Win2	0.8	n/a	Yes	2.683	n/a	n/a	GoodResponse	1	0.0	n/a	3	14	ISIslide	Win	False
151.828	0.25	Control	0.8125	0.0	Yes	2.972	0.028	n/a	GoodResponse	0	n/a	n/a	3	15	Cue	Neutral	True
152.078	4.0	Control	0.8125	0.0	Yes	2.972	0.0	n/a	GoodResponse	0	n/a	n/a	3	15	Fixation	Neutral	True
156.074	0.27	Control	0.8125	0.004	Yes	2.972	-0.004	1.0	GoodResponse	0	0.248	155.322	3	15	Target	Neutral	True
156.322	0.3	Control	0.8125	0.004	Yes	2.972	-0.004	1.0	GoodResponse	0	0.248	n/a	3	15	ButtonPress	Neutral	True
156.358	0.43	Control	0.8125	n/a	Yes	2.972	n/a	n/a	GoodResponse	0	n/a	n/a	3	15	Blank	Neutral	True
156.776	1.45	Control	0.8125	n/a	Yes	2.972	n/a	5.0	GoodResponse	0	0.028	155.804	3	15	Feedback	Neutral	True
158.23	2.972	Control	0.8125	n/a	Yes	2.972	n/a	n/a	GoodResponse	0	0.0	n/a	3	15	ISIslide	Neutral	True
161.222	0.25	Win2	0.7646999999999999	0.001	No	2.878	0.022	n/a	NoResponse	0	n/a	n/a	3	16	Cue	MissedWin	True
161.473	4.0	Win2	0.7646999999999999	0.0	No	2.878	0.001	n/a	NoResponse	0	n/a	n/a	3	16	Fixation	MissedWin	True
165.468	0.26	Win2	0.7646999999999999	0.004	No	2.878	-0.004	1.0	NoResponse	0	0.269	164.737	3	16	Target	MissedWin	True
165.736	0.44	Win2	0.7646999999999999	n/a	No	2.878	n/a	n/a	NoResponse	0	n/a	n/a	3	16	Blank	MissedWin	True
165.737	0.3	Win2	0.7646999999999999	0.004	No	2.878	-0.004	1.0	NoResponse	0	0.269	n/a	3	16	ButtonPress	MissedWin	True
166.171	1.45	Win2	0.7646999999999999	n/a	No	2.878	n/a	5.0	NoResponse	0	0.048	165.219	3	16	Feedback	MissedWin	True
167.625	2.878	Win2	0.7646999999999999	n/a	No	2.878	n/a	n/a	NoResponse	0	0.0	n/a	3	16	ISIslide	MissedWin	True
170.517	0.25	Lose2	0.7778	0.0	Yes	2.733	0.017	n/a	GoodResponse	0	n/a	n/a	3	17	Cue	AvoidedLoss	True
170.768	3.95	Lose2	0.7778	0.0	Yes	2.733	0.001	n/a	GoodResponse	0	n/a	n/a	3	17	Fixation	AvoidedLoss	True
174.713	0.25	Lose2	0.7778	0.004	Yes	2.733	-0.004	1.0	GoodResponse	0	0.243	173.956	3	17	Target	AvoidedLoss	True
174.956	0.3	Lose2	0.7778	0.004	Yes	2.733	-0.004	1.0	GoodResponse	0	0.243	n/a	3	17	ButtonPress	AvoidedLoss	True
174.964	0.45	Lose2	0.7778	n/a	Yes	2.733	n/a	n/a	GoodResponse	0	n/a	n/a	3	17	Blank	AvoidedLoss	True
175.415	1.45	Lose2	0.7778	n/a	Yes	2.733	n/a	5.0	GoodResponse	0	0.023	174.438	3	17	Feedback	AvoidedLoss	True
176.869	2.733	Lose2	0.7778	n/a	Yes	2.733	n/a	n/a	GoodResponse	0	0.0	n/a	3	17	ISIslide	AvoidedLoss	True
179.628	0.25	Lose2	0.7368000000000001	0.0	No	2.722	0.028	n/a	NoResponse	-1	n/a	n/a	2	18	Cue	Loss	True
179.878	4.05	Lose2	0.7368000000000001	0.0	No	2.722	0.0	n/a	NoResponse	-1	n/a	n/a	2	18	Fixation	Loss	True
183.924	0.24	Lose2	0.7368000000000001	0.004	No	2.722	-0.004	1.0	NoResponse	-1	0.299	183.223	2	18	Target	Loss	True
184.175	0.46	Lose2	0.7368000000000001	n/a	No	2.722	n/a	n/a	NoResponse	-1	n/a	n/a	2	18	Blank	Loss	True
184.223	0.3	Lose2	0.7368000000000001	0.004	No	2.722	-0.004	1.0	NoResponse	-1	0.299	n/a	2	18	ButtonPress	Loss	True
184.626	1.45	Lose2	0.7368000000000001	n/a	No	2.722	n/a	5.0	NoResponse	-1	0.031	183.657	2	18	Feedback	Loss	True
186.08	2.722	Lose2	0.7368000000000001	n/a	No	2.722	n/a	n/a	NoResponse	-1	0.0	n/a	2	18	ISIslide	Loss	True
188.822	0.25	Control	0.7	0.0	No	2.928	0.022	n/a	NoResponse	0	n/a	n/a	2	19	Cue	Neutral	True
189.073	3.95	Control	0.7	0.0	No	2.928	0.001	n/a	NoResponse	0	n/a	n/a	2	19	Fixation	Neutral	True
193.018	0.23	Control	0.7	0.004	No	2.928	-0.004	1.0	NoResponse	0	0.304	192.322	2	19	Target	Neutral	True
193.252	0.47	Control	0.7	n/a	No	2.928	n/a	n/a	NoResponse	0	n/a	n/a	2	19	Blank	Neutral	True
193.322	0.3	Control	0.7	0.004	No	2.928	-0.004	1.0	NoResponse	0	0.304	n/a	2	19	ButtonPress	Neutral	True
193.72	1.45	Control	0.7	n/a	No	2.928	n/a	5.0	NoResponse	0	0.01	192.73	2	19	Feedback	Neutral	True
195.174	2.928	Control	0.7	n/a	No	2.928	n/a	n/a	NoResponse	0	0.0	n/a	2	19	ISIslide	Neutral	True
198.116	0.25	Control	0.6667000000000001	0.0	No	2.634	0.016	n/a	NoResponse	0	n/a	n/a	2	20	Cue	Neutral	True
198.367	4.05	Control	0.6667000000000001	0.0	No	2.634	0.001	n/a	NoResponse	0	n/a	n/a	2	20	Fixation	Neutral	True
202.413	0.22	Control	0.6667000000000001	0.003	No	2.634	-0.003	1.0	NoResponse	0	0.392	201.805	2	20	Target	Neutral	True
202.647	0.48	Control	0.6667000000000001	n/a	No	2.634	n/a	n/a	NoResponse	0	n/a	n/a	2	20	Blank	Neutral	True
202.805	0.3	Control	0.6667000000000001	0.003	No	2.634	-0.003	1.0	NoResponse	0	0.392	n/a	2	20	ButtonPress	Neutral	True
203.115	1.45	Control	0.6667000000000001	n/a	No	2.634	n/a	5.0	NoResponse	0	0.03	202.145	2	20	Feedback	Neutral	True
204.569	2.634	Control	0.6667000000000001	n/a	No	2.634	n/a	n/a	NoResponse	0	0.0	n/a	2	20	ISIslide	Neutral	True
207.227	0.25	Control	0.6818000000000001	0.0	Yes	2.773	0.027	n/a	GoodResponse	0	n/a	n/a	2	21	Cue	Neutral	True
207.478	4.1	Control	0.6818000000000001	0.0	Yes	2.773	0.001	n/a	GoodResponse	0	n/a	n/a	2	21	Fixation	Neutral	True
211.573	0.21	Control	0.6818000000000001	0.004	Yes	2.773	-0.004	1.0	GoodResponse	0	0.203	210.776	2	21	Target	Neutral	True
211.776	0.3	Control	0.6818000000000001	0.004	Yes	2.773	-0.004	1.0	GoodResponse	0	0.203	n/a	2	21	ButtonPress	Neutral	True
211.791	0.49	Control	0.6818000000000001	n/a	Yes	2.773	n/a	n/a	GoodResponse	0	n/a	n/a	2	21	Blank	Neutral	True
212.276	1.45	Control	0.6818000000000001	n/a	Yes	2.773	n/a	5.0	GoodResponse	0	0.04	211.316	2	21	Feedback	Neutral	True
213.73	2.773	Control	0.6818000000000001	n/a	Yes	2.773	n/a	n/a	GoodResponse	0	0.0	n/a	2	21	ISIslide	Neutral	True
216.522	0.25	Control	0.6522	0.0	No	2.778	0.022	n/a	NoResponse	0	n/a	n/a	2	22	Cue	Neutral	True
216.772	4.0	Control	0.6522	0.0	No	2.778	0.0	n/a	NoResponse	0	n/a	n/a	2	22	Fixation	Neutral	True
220.768	0.2	Control	0.6522	0.004	No	2.778	-0.004	1.0	NoResponse	0	0.256	220.024	2	22	Target	Neutral	True
220.968	0.5	Control	0.6522	n/a	No	2.778	n/a	n/a	NoResponse	0	n/a	n/a	2	22	Blank	Neutral	True
221.024	0.3	Control	0.6522	0.004	No	2.778	-0.004	1.0	NoResponse	0	0.256	n/a	2	22	ButtonPress	Neutral	True
221.47	1.45	Control	0.6522	n/a	No	2.778	n/a	5.0	NoResponse	0	0.017	220.487	2	22	Feedback	Neutral	True
222.924	2.778	Control	0.6522	n/a	No	2.778	n/a	n/a	NoResponse	0	0.0	n/a	2	22	ISIslide	Neutral	True
225.716	0.25	Control	0.625	0.0	No	2.784	0.016	n/a	NoResponse	0	n/a	n/a	2	23	Cue	Neutral	False
225.967	3.9	Control	0.625	0.0	No	2.784	0.001	n/a	NoResponse	0	n/a	n/a	2	23	Fixation	Neutral	False
229.862	0.21	Control	0.625	0.004	No	2.784	-0.004	n/a	NoResponse	0	n/a	n/a	2	23	Target	Neutral	False
230.079	0.49	Control	0.625	n/a	No	2.784	n/a	n/a	NoResponse	0	n/a	n/a	2	23	Blank	Neutral	False
230.564	1.45	Control	0.625	n/a	No	2.784	n/a	5.0	NoResponse	0	0.045	229.609	2	23	Feedback	Neutral	False
232.018	2.784	Control	0.625	n/a	No	2.784	n/a	n/a	NoResponse	0	0.0	n/a	2	23	ISIslide	Neutral	False
234.827	0.25	Win2	0.6	0.0	No	3.123	0.027	n/a	NoResponse	0	n/a	n/a	2	24	Cue	MissedWin	True
235.077	3.95	Win2	0.6	0.0	No	3.123	0.0	n/a	NoResponse	0	n/a	n/a	2	24	Fixation	MissedWin	True
239.039	0.22	Win2	0.6	0.0	No	3.123	0.012	1.0	NoResponse	0	0.226	238.265	2	24	Target	MissedWin	True
239.256	0.48	Win2	0.6	n/a	No	3.123	n/a	n/a	NoResponse	0	n/a	n/a	2	24	Blank	MissedWin	True
239.265	0.3	Win2	0.6	0.0	No	3.123	0.012	1.0	NoResponse	0	0.226	n/a	2	24	ButtonPress	MissedWin	True
239.725	1.45	Win2	0.6	n/a	No	3.123	n/a	5.0	NoResponse	0	0.008	238.733	2	24	Feedback	MissedWin	True
241.179	3.123	Win2	0.6	n/a	No	3.123	n/a	n/a	NoResponse	0	0.0	n/a	2	24	ISIslide	MissedWin	True
244.322	0.25	Win2	0.5769	0.0	No	3.078	0.022	n/a	LatePress	0	n/a	n/a	2	25	Cue	MissedWin	True
244.572	4.0	Win2	0.5769	0.001	No	3.078	0.0	n/a	LatePress	0	n/a	n/a	2	25	Fixation	MissedWin	True
248.568	0.23	Win2	0.5769	0.004	No	3.078	-0.004	1.0	LatePress	0	0.233	247.801	2	25	Target	MissedWin	True
248.801	0.3	Win2	0.5769	0.004	No	3.078	-0.004	1.0	LatePress	0	0.233	n/a	2	25	ButtonPress	MissedWin	True
248.802	0.47	Win2	0.5769	n/a	No	3.078	n/a	n/a	LatePress	0	n/a	n/a	2	25	Blank	MissedWin	True
249.27	1.45	Win2	0.5769	n/a	No	3.078	n/a	5.0	LatePress	0	0.022	248.292	2	25	Feedback	MissedWin	True
250.724	3.078	Win2	0.5769	n/a	No	3.078	n/a	n/a	LatePress	0	0.0	n/a	2	25	ISIslide	MissedWin	True
253.817	0.25	Win2	0.5926	0.0	Yes	2.933	0.017	n/a	GoodResponse	1	n/a	n/a	3	26	Cue	Win	True
254.068	3.95	Win2	0.5926	0.0	Yes	2.933	0.001	n/a	GoodResponse	1	n/a	n/a	3	26	Fixation	Win	True
258.013	0.24	Win2	0.5926	0.004	Yes	2.933	-0.004	1.0	GoodResponse	1	0.219	257.232	3	26	Target	Win	True
258.232	0.3	Win2	0.5926	0.004	Yes	2.933	-0.004	1.0	GoodResponse	1	0.219	n/a	3	26	ButtonPress	Win	True
258.264	0.46	Win2	0.5926	n/a	Yes	2.933	n/a	n/a	GoodResponse	1	n/a	n/a	3	26	Blank	Win	True
258.715	1.45	Win2	0.5926	n/a	Yes	2.933	n/a	5.0	GoodResponse	1	0.04	257.755	3	26	Feedback	Win	True
260.169	2.933	Win2	0.5926	n/a	Yes	2.933	n/a	n/a	GoodResponse	1	0.0	n/a	3	26	ISIslide	Win	True
263.128	0.25	Lose2	0.6071	0.0	Yes	2.822	0.028	n/a	GoodResponse	0	n/a	n/a	3	27	Cue	AvoidedLoss	True
263.379	4.05	Lose2	0.6071	0.0	Yes	2.822	0.001	n/a	GoodResponse	0	n/a	n/a	3	27	Fixation	AvoidedLoss	True
267.424	0.25	Lose2	0.6071	0.004	Yes	2.822	-0.004	1.0	GoodResponse	0	0.217	266.641	3	27	Target	AvoidedLoss	True
267.641	0.3	Lose2	0.6071	0.004	Yes	2.822	-0.004	1.0	GoodResponse	0	0.217	n/a	3	27	ButtonPress	AvoidedLoss	True
267.675	0.45	Lose2	0.6071	n/a	Yes	2.822	n/a	n/a	GoodResponse	0	n/a	n/a	3	27	Blank	AvoidedLoss	True
268.126	1.45	Lose2	0.6071	n/a	Yes	2.822	n/a	5.0	GoodResponse	0	0.043	267.169	3	27	Feedback	AvoidedLoss	True
269.581	2.822	Lose2	0.6071	n/a	Yes	2.822	n/a	n/a	GoodResponse	0	0.0	n/a	3	27	ISIslide	AvoidedLoss	True
272.423	0.25	Control	0.6207	0.0	Yes	2.827	0.023	n/a	GoodResponse	0	n/a	n/a	3	28	Cue	Neutral	True
272.673	4.05	Control	0.6207	0.0	Yes	2.827	0.0	n/a	GoodResponse	0	n/a	n/a	3	28	Fixation	Neutral	True
276.719	0.26	Control	0.6207	0.004	Yes	2.827	-0.004	1.0	GoodResponse	0	0.236	275.955	3	28	Target	Neutral	True
276.955	0.3	Control	0.6207	0.004	Yes	2.827	-0.004	1.0	GoodResponse	0	0.236	n/a	3	28	ButtonPress	Neutral	True
276.986	0.44	Control	0.6207	n/a	Yes	2.827	n/a	n/a	GoodResponse	0	n/a	n/a	3	28	Blank	Neutral	True
277.421	1.45	Control	0.6207	n/a	Yes	2.827	n/a	5.0	GoodResponse	0	0.017	276.438	3	28	Feedback	Neutral	True
278.875	2.827	Control	0.6207	n/a	Yes	2.827	n/a	n/a	GoodResponse	0	0.0	n/a	3	28	ISIslide	Neutral	True
281.717	0.25	Lose2	0.6333	0.0	Yes	2.833	0.017	n/a	GoodResponse	0	n/a	n/a	3	29	Cue	AvoidedLoss	True
281.968	3.95	Lose2	0.6333	0.0	Yes	2.833	0.001	n/a	GoodResponse	0	n/a	n/a	3	29	Fixation	AvoidedLoss	True
285.913	0.27	Lose2	0.6333	0.004	Yes	2.833	-0.004	1.0	GoodResponse	0	0.231	285.144	3	29	Target	AvoidedLoss	True
286.144	0.3	Lose2	0.6333	0.004	Yes	2.833	-0.004	1.0	GoodResponse	0	0.231	n/a	3	29	ButtonPress	AvoidedLoss	True
286.197	0.43	Lose2	0.6333	n/a	Yes	2.833	n/a	n/a	GoodResponse	0	n/a	n/a	3	29	Blank	AvoidedLoss	True
286.615	1.45	Lose2	0.6333	n/a	Yes	2.833	n/a	5.0	GoodResponse	0	0.042	285.657	3	29	Feedback	AvoidedLoss	True
288.07	2.833	Lose2	0.6333	n/a	Yes	2.833	n/a	n/a	GoodResponse	0	0.0	n/a	3	29	ISIslide	AvoidedLoss	True
290.928	0.25	Win2	0.6452	0.0	Yes	2.772	0.028	n/a	GoodResponse	1	n/a	n/a	4	30	Cue	Win	True
291.179	3.9	Win2	0.6452	0.0	Yes	2.772	0.001	n/a	GoodResponse	1	n/a	n/a	4	30	Fixation	Win	True
295.074	0.28	Win2	0.6452	0.004	Yes	2.772	-0.004	1.0	GoodResponse	1	0.271	294.345	4	30	Target	Win	True
295.345	0.3	Win2	0.6452	0.004	Yes	2.772	-0.004	1.0	GoodResponse	1	0.271	n/a	4	30	ButtonPress	Win	True
295.358	0.42	Win2	0.6452	n/a	Yes	2.772	n/a	n/a	GoodResponse	1	n/a	n/a	4	30	Blank	Win	True
295.776	1.45	Win2	0.6452	n/a	Yes	2.772	n/a	5.0	GoodResponse	1	0.007	294.783	4	30	Feedback	Win	True
297.23	2.772	Win2	0.6452	n/a	Yes	2.772	n/a	n/a	GoodResponse	1	0.0	n/a	4	30	ISIslide	Win	True
300.022	0.25	Lose2	0.625	0.0	No	2.828	0.022	n/a	NoResponse	-1	n/a	n/a	3	31	Cue	Loss	True
300.273	4.05	Lose2	0.625	0.0	No	2.828	0.001	n/a	NoResponse	-1	n/a	n/a	3	31	Fixation	Loss	True
304.318	0.29	Lose2	0.625	0.004	No	2.828	-0.004	1.0	NoResponse	-1	0.369	303.687	3	31	Target	Loss	True
304.619	0.41	Lose2	0.625	n/a	No	2.828	n/a	n/a	NoResponse	-1	n/a	n/a	3	31	Blank	Loss	True
304.687	0.3	Lose2	0.625	0.004	No	2.828	-0.004	1.0	NoResponse	-1	0.369	n/a	3	31	ButtonPress	Loss	True
305.02	1.45	Lose2	0.625	n/a	No	2.828	n/a	5.0	NoResponse	-1	0.028	304.048	3	31	Feedback	Loss	True
306.475	2.828	Lose2	0.625	n/a	No	2.828	n/a	n/a	NoResponse	-1	0.0	n/a	3	31	ISIslide	Loss	True
309.317	0.25	Lose2	0.6364	0.0	Yes	2.633	0.017	n/a	GoodResponse	0	n/a	n/a	3	32	Cue	AvoidedLoss	True
309.567	4.15	Lose2	0.6364	0.0	Yes	2.633	0.0	n/a	GoodResponse	0	n/a	n/a	3	32	Fixation	AvoidedLoss	True
313.713	0.3	Lose2	0.6364	0.004	Yes	2.633	-0.004	1.0	GoodResponse	0	0.207	312.92	3	32	Target	AvoidedLoss	True
313.92	0.3	Lose2	0.6364	0.004	Yes	2.633	-0.004	1.0	GoodResponse	0	0.207	n/a	3	32	ButtonPress	AvoidedLoss	True
314.014	0.4	Lose2	0.6364	n/a	Yes	2.633	n/a	n/a	GoodResponse	0	n/a	n/a	3	32	Blank	AvoidedLoss	True
314.415	1.45	Lose2	0.6364	n/a	Yes	2.633	n/a	5.0	GoodResponse	0	0.047	313.462	3	32	Feedback	AvoidedLoss	True
315.87	2.633	Lose2	0.6364	n/a	Yes	2.633	n/a	n/a	GoodResponse	0	0.0	n/a	3	32	ISIslide	AvoidedLoss	True
318.528	0.25	Win2	0.6470999999999999	0.0	Yes	2.672	0.028	n/a	GoodResponse	1	n/a	n/a	4	33	Cue	Win	True
318.778	4.0	Win2	0.6470999999999999	0.0	Yes	2.672	0.0	n/a	GoodResponse	1	n/a	n/a	4	33	Fixation	Win	True
322.774	0.31	Win2	0.6470999999999999	0.004	Yes	2.672	-0.004	1.0	GoodResponse	1	0.231	322.005	4	33	Target	Win	True
323.005	0.3	Win2	0.6470999999999999	0.004	Yes	2.672	-0.004	1.0	GoodResponse	1	0.231	n/a	4	33	ButtonPress	Win	True
323.091	0.39	Win2	0.6470999999999999	n/a	Yes	2.672	n/a	n/a	GoodResponse	1	n/a	n/a	4	33	Blank	Win	True
323.476	1.45	Win2	0.6470999999999999	n/a	Yes	2.672	n/a	5.0	GoodResponse	1	0.011	322.487	4	33	Feedback	Win	True
324.93	2.672	Win2	0.6470999999999999	n/a	Yes	2.672	n/a	n/a	GoodResponse	1	0.0	n/a	4	33	ISIslide	Win	True
327.622	0.25	Lose2	0.6570999999999999	0.0	Yes	2.628	0.022	n/a	GoodResponse	0	n/a	n/a	4	34	Cue	AvoidedLoss	True
327.872	4.05	Lose2	0.6570999999999999	0.0	Yes	2.628	0.0	n/a	GoodResponse	0	n/a	n/a	4	34	Fixation	AvoidedLoss	True
331.918	0.32	Lose2	0.6570999999999999	0.004	Yes	2.628	-0.004	1.0	GoodResponse	0	0.222	331.14	4	34	Target	AvoidedLoss	True
332.14	0.3	Lose2	0.6570999999999999	0.004	Yes	2.628	-0.004	1.0	GoodResponse	0	0.222	n/a	4	34	ButtonPress	AvoidedLoss	True
332.252	0.38	Lose2	0.6570999999999999	n/a	Yes	2.628	n/a	n/a	GoodResponse	0	n/a	n/a	4	34	Blank	AvoidedLoss	True
332.62	1.45	Lose2	0.6570999999999999	n/a	Yes	2.628	n/a	5.0	GoodResponse	0	0.037	331.657	4	34	Feedback	AvoidedLoss	True
334.074	2.628	Lose2	0.6570999999999999	n/a	Yes	2.628	n/a	n/a	GoodResponse	0	0.0	n/a	4	34	ISIslide	AvoidedLoss	True
336.716	0.25	Lose2	0.6389	0.0	No	2.684	0.016	n/a	NoResponse	-1	n/a	n/a	3	35	Cue	Loss	True
336.966	4.0	Lose2	0.6389	0.0	No	2.684	0.0	n/a	NoResponse	-1	n/a	n/a	3	35	Fixation	Loss	True
340.962	0.32	Lose2	0.6389	0.004	No	2.684	-0.004	1.0	NoResponse	-1	0.37	340.332	3	35	Target	Loss	True
341.296	0.38	Lose2	0.6389	n/a	No	2.684	n/a	n/a	NoResponse	-1	n/a	n/a	3	35	Blank	Loss	True
341.332	0.3	Lose2	0.6389	0.004	No	2.684	-0.004	1.0	NoResponse	-1	0.37	n/a	3	35	ButtonPress	Loss	True
341.664	1.45	Lose2	0.6389	n/a	No	2.684	n/a	5.0	NoResponse	-1	0.017	340.681	3	35	Feedback	Loss	True
343.118	2.684	Lose2	0.6389	n/a	No	2.684	n/a	n/a	NoResponse	-1	0.0	n/a	3	35	ISIslide	Loss	True
345.826	0.25	Control	0.6486	0.0	Yes	2.674	0.026	n/a	GoodResponse	0	n/a	n/a	3	36	Cue	Neutral	True
346.077	4.0	Control	0.6486	0.0	Yes	2.674	0.001	n/a	GoodResponse	0	n/a	n/a	3	36	Fixation	Neutral	True
350.072	0.33	Control	0.6486	0.004	Yes	2.674	-0.004	1.0	GoodResponse	0	0.226	349.298	3	36	Target	Neutral	True
350.298	0.3	Control	0.6486	0.004	Yes	2.674	-0.004	1.0	GoodResponse	0	0.226	n/a	3	36	ButtonPress	Neutral	True
350.407	0.37	Control	0.6486	n/a	Yes	2.674	n/a	n/a	GoodResponse	0	n/a	n/a	3	36	Blank	Neutral	True
350.774	1.45	Control	0.6486	n/a	Yes	2.674	n/a	5.0	GoodResponse	0	0.029	349.803	3	36	Feedback	Neutral	True
352.229	2.674	Control	0.6486	n/a	Yes	2.674	n/a	n/a	GoodResponse	0	0.0	n/a	3	36	ISIslide	Neutral	True
354.92	0.25	Win2	0.6315999999999999	0.0	No	2.88	0.02	n/a	NoResponse	0	n/a	n/a	3	37	Cue	MissedWin	True
355.171	4.0	Win2	0.6315999999999999	0.0	No	2.88	0.001	1.0	NoResponse	0	3.897	358.068	3	37	Fixation	MissedWin	True
359.068	0.3	Win2	0.6315999999999999	0.0	No	2.88	0.001	1.0	NoResponse	0	3.897	n/a	3	37	ButtonPress	MissedWin	True
359.166	0.34	Win2	0.6315999999999999	0.004	No	2.88	-0.004	n/a	NoResponse	0	n/a	n/a	3	37	Target	MissedWin	True
359.517	0.36	Win2	0.6315999999999999	n/a	No	2.88	n/a	n/a	NoResponse	0	n/a	n/a	3	37	Blank	MissedWin	True
359.868	1.45	Win2	0.6315999999999999	n/a	No	2.88	n/a	5.0	NoResponse	0	0.009	358.877	3	37	Feedback	MissedWin	True
361.323	2.88	Win2	0.6315999999999999	n/a	No	2.88	n/a	n/a	NoResponse	0	0.0	n/a	3	37	ISIslide	MissedWin	True
364.215	0.25	Lose2	0.6409999999999999	0.0	Yes	2.835	0.015	n/a	GoodResponse	0	n/a	n/a	3	38	Cue	AvoidedLoss	True
364.465	3.95	Lose2	0.6409999999999999	0.001	Yes	2.835	0.0	n/a	GoodResponse	0	n/a	n/a	3	38	Fixation	AvoidedLoss	True
368.411	0.35	Lose2	0.6409999999999999	0.004	Yes	2.835	-0.004	1.0	GoodResponse	0	0.219	367.63	3	38	Target	AvoidedLoss	True
368.63	0.3	Lose2	0.6409999999999999	0.004	Yes	2.835	-0.004	1.0	GoodResponse	0	0.219	n/a	3	38	ButtonPress	AvoidedLoss	True
368.762	0.35	Lose2	0.6409999999999999	n/a	Yes	2.835	n/a	n/a	GoodResponse	0	n/a	n/a	3	38	Blank	AvoidedLoss	True
369.113	1.45	Lose2	0.6409999999999999	n/a	Yes	2.835	n/a	5.0	GoodResponse	0	0.032	368.145	3	38	Feedback	AvoidedLoss	True
370.567	2.835	Lose2	0.6409999999999999	n/a	Yes	2.835	n/a	n/a	GoodResponse	0	0.0	n/a	3	38	ISIslide	AvoidedLoss	True
373.426	0.25	Win2	0.65	0.0	Yes	2.974	0.026	n/a	GoodResponse	1	n/a	n/a	4	39	Cue	Win	True
373.676	4.1	Win2	0.65	0.0	Yes	2.974	0.0	n/a	GoodResponse	1	n/a	n/a	4	39	Fixation	Win	True
377.772	0.36	Win2	0.65	0.004	Yes	2.974	-0.004	1.0	GoodResponse	1	0.221	376.993	4	39	Target	Win	True
377.993	0.3	Win2	0.65	0.004	Yes	2.974	-0.004	1.0	GoodResponse	1	0.221	n/a	4	39	ButtonPress	Win	True
378.14	0.34	Win2	0.65	n/a	Yes	2.974	n/a	n/a	GoodResponse	1	n/a	n/a	4	39	Blank	Win	True
378.474	1.45	Win2	0.65	n/a	Yes	2.974	n/a	5.0	GoodResponse	1	0.037	377.511	4	39	Feedback	Win	True
379.928	2.974	Win2	0.65	n/a	Yes	2.974	n/a	n/a	GoodResponse	1	0.0	n/a	4	39	ISIslide	Win	True
382.921	0.25	Win2	0.6585	0.0	Yes	2.729	0.021	n/a	GoodResponse	1	n/a	n/a	5	40	Cue	Win	True
383.172	3.95	Win2	0.6585	0.0	Yes	2.729	0.001	n/a	GoodResponse	1	n/a	n/a	5	40	Fixation	Win	True
387.117	0.37	Win2	0.6585	0.004	Yes	2.729	-0.004	1.0	GoodResponse	1	0.21	386.327	5	40	Target	Win	True
387.327	0.3	Win2	0.6585	0.004	Yes	2.729	-0.004	1.0	GoodResponse	1	0.21	n/a	5	40	ButtonPress	Win	True
387.501	0.33	Win2	0.6585	n/a	Yes	2.729	n/a	n/a	GoodResponse	1	n/a	n/a	5	40	Blank	Win	True
387.819	1.45	Win2	0.6585	n/a	Yes	2.729	n/a	5.0	GoodResponse	1	0.009	386.828	5	40	Feedback	Win	True
389.273	2.729	Win2	0.6585	n/a	Yes	2.729	n/a	n/a	GoodResponse	1	0.0	n/a	5	40	ISIslide	Win	True
392.031	0.25	Win2	0.6667000000000001	0.001	Yes	2.769	0.031	n/a	GoodResponse	1	n/a	n/a	6	41	Cue	Win	True
392.282	3.9	Win2	0.6667000000000001	0.0	Yes	2.769	0.001	n/a	GoodResponse	1	n/a	n/a	6	41	Fixation	Win	True
396.177	0.37	Win2	0.6667000000000001	0.004	Yes	2.769	-0.004	1.0	GoodResponse	1	0.218	395.395	6	41	Target	Win	True
396.395	0.3	Win2	0.6667000000000001	0.004	Yes	2.769	-0.004	1.0	GoodResponse	1	0.218	n/a	6	41	ButtonPress	Win	True
396.562	0.33	Win2	0.6667000000000001	n/a	Yes	2.769	n/a	n/a	GoodResponse	1	n/a	n/a	6	41	Blank	Win	True
396.879	1.45	Win2	0.6667000000000001	n/a	Yes	2.769	n/a	5.0	GoodResponse	1	0.022	395.901	6	41	Feedback	Win	True
398.334	2.769	Win2	0.6667000000000001	n/a	Yes	2.769	n/a	n/a	GoodResponse	1	0.0	n/a	6	41	ISIslide	Win	True
401.125	0.25	Control	0.6744	0.0	Yes	2.925	0.025	n/a	GoodResponse	0	n/a	n/a	6	42	Cue	Neutral	True
401.376	3.85	Control	0.6744	0.0	Yes	2.925	0.001	n/a	GoodResponse	0	n/a	n/a	6	42	Fixation	Neutral	True
405.221	0.36	Control	0.6744	0.004	Yes	2.925	-0.004	1.0	GoodResponse	0	0.251	404.472	6	42	Target	Neutral	True
405.472	0.3	Control	0.6744	0.004	Yes	2.925	-0.004	1.0	GoodResponse	0	0.251	n/a	6	42	ButtonPress	Neutral	True
405.589	0.34	Control	0.6744	n/a	Yes	2.925	n/a	n/a	GoodResponse	0	n/a	n/a	6	42	Blank	Neutral	True
405.923	1.45	Control	0.6744	n/a	Yes	2.925	n/a	5.0	GoodResponse	0	0.008	404.931	6	42	Feedback	Neutral	True
407.377	2.925	Control	0.6744	n/a	Yes	2.925	n/a	n/a	GoodResponse	0	0.0	n/a	6	42	ISIslide	Neutral	True
410.32	0.25	Win2	0.6818000000000001	0.0	Yes	3.18	0.02	n/a	GoodResponse	1	n/a	n/a	7	43	Cue	Win	True
410.57	4.0	Win2	0.6818000000000001	0.0	Yes	3.18	0.0	n/a	GoodResponse	1	n/a	n/a	7	43	Fixation	Win	True
414.566	0.35	Win2	0.6818000000000001	0.004	Yes	3.18	-0.004	1.0	GoodResponse	1	0.268	413.834	7	43	Target	Win	True
414.834	0.3	Win2	0.6818000000000001	0.004	Yes	3.18	-0.004	1.0	GoodResponse	1	0.268	n/a	7	43	ButtonPress	Win	True
414.917	0.35	Win2	0.6818000000000001	n/a	Yes	3.18	n/a	n/a	GoodResponse	1	n/a	n/a	7	43	Blank	Win	True
415.268	1.45	Win2	0.6818000000000001	n/a	Yes	3.18	n/a	5.0	GoodResponse	1	0.023	414.291	7	43	Feedback	Win	True
416.722	3.18	Win2	0.6818000000000001	n/a	Yes	3.18	n/a	n/a	GoodResponse	1	0.0	n/a	7	43	ISIslide	Win	True
419.932	0.25	Win2	0.6889	0.0	Yes	2.968	0.032	n/a	GoodResponse	1	n/a	n/a	8	44	Cue	Win	True
420.183	4.0	Win2	0.6889	0.0	Yes	2.968	0.001	n/a	GoodResponse	1	n/a	n/a	8	44	Fixation	Win	True
424.178	0.34	Win2	0.6889	0.004	Yes	2.968	-0.004	1.0	GoodResponse	1	0.206	423.384	8	44	Target	Win	True
424.384	0.3	Win2	0.6889	0.004	Yes	2.968	-0.004	1.0	GoodResponse	1	0.206	n/a	8	44	ButtonPress	Win	True
424.529	0.36	Win2	0.6889	n/a	Yes	2.968	n/a	n/a	GoodResponse	1	n/a	n/a	8	44	Blank	Win	True
424.88	1.45	Win2	0.6889	n/a	Yes	2.968	n/a	5.0	GoodResponse	1	0.021	423.901	8	44	Feedback	Win	True
426.334	2.968	Win2	0.6889	n/a	Yes	2.968	n/a	n/a	GoodResponse	1	0.0	n/a	8	44	ISIslide	Win	True
429.327	0.25	Control	0.6957	0.0	Yes	2.873	0.027	n/a	GoodResponse	0	n/a	n/a	8	45	Cue	Neutral	True
429.577	4.1	Control	0.6957	0.001	Yes	2.873	0.0	n/a	GoodResponse	0	n/a	n/a	8	45	Fixation	Neutral	True
433.673	0.33	Control	0.6957	0.004	Yes	2.873	-0.004	1.0	GoodResponse	0	0.265	432.938	8	45	Target	Neutral	True
433.938	0.3	Control	0.6957	0.004	Yes	2.873	-0.004	1.0	GoodResponse	0	0.265	n/a	8	45	ButtonPress	Neutral	True
434.007	0.37	Control	0.6957	n/a	Yes	2.873	n/a	n/a	GoodResponse	0	n/a	n/a	8	45	Blank	Neutral	True
434.375	1.45	Control	0.6957	n/a	Yes	2.873	n/a	5.0	GoodResponse	0	0.038	433.413	8	45	Feedback	Neutral	True
435.83	2.873	Control	0.6957	n/a	Yes	2.873	n/a	n/a	GoodResponse	0	0.0	n/a	8	45	ISIslide	Neutral	True
438.722	0.25	Lose2	0.7021	0.0	Yes	3.378	0.022	n/a	GoodResponse	0	n/a	n/a	8	46	Cue	AvoidedLoss	True
438.972	4.0	Lose2	0.7021	0.0	Yes	3.378	0.0	n/a	GoodResponse	0	n/a	n/a	8	46	Fixation	AvoidedLoss	True
442.968	0.32	Lose2	0.7021	0.004	Yes	3.378	-0.004	1.0	GoodResponse	0	0.211	442.179	8	46	Target	AvoidedLoss	True
443.179	0.3	Lose2	0.7021	0.004	Yes	3.378	-0.004	1.0	GoodResponse	0	0.211	n/a	8	46	ButtonPress	AvoidedLoss	True
443.302	0.38	Lose2	0.7021	n/a	Yes	3.378	n/a	n/a	GoodResponse	0	n/a	n/a	8	46	Blank	AvoidedLoss	True
443.67	1.45	Lose2	0.7021	n/a	Yes	3.378	n/a	5.0	GoodResponse	0	0.011	442.681	8	46	Feedback	AvoidedLoss	True
445.124	3.378	Lose2	0.7021	n/a	Yes	3.378	n/a	n/a	GoodResponse	0	0.0	n/a	8	46	ISIslide	AvoidedLoss	True
448.518	0.25	Lose2	0.7082999999999999	0.0	Yes	2.682	0.018	n/a	GoodResponse	0	n/a	n/a	8	47	Cue	AvoidedLoss	True
448.768	4.0	Lose2	0.7082999999999999	0.0	Yes	2.682	0.0	n/a	GoodResponse	0	n/a	n/a	8	47	Fixation	AvoidedLoss	True
452.764	0.31	Lose2	0.7082999999999999	0.004	Yes	2.682	-0.004	1.0	GoodResponse	0	0.25	452.014	8	47	Target	AvoidedLoss	True
453.014	0.3	Lose2	0.7082999999999999	0.004	Yes	2.682	-0.004	1.0	GoodResponse	0	0.25	n/a	8	47	ButtonPress	AvoidedLoss	True
453.081	0.39	Lose2	0.7082999999999999	n/a	Yes	2.682	n/a	n/a	GoodResponse	0	n/a	n/a	8	47	Blank	AvoidedLoss	True
453.466	1.45	Lose2	0.7082999999999999	n/a	Yes	2.682	n/a	5.0	GoodResponse	0	0.02	452.486	8	47	Feedback	AvoidedLoss	True
454.92	2.682	Lose2	0.7082999999999999	n/a	Yes	2.682	n/a	n/a	GoodResponse	0	0.0	n/a	8	47	ISIslide	AvoidedLoss	True
457.628	0.25	Lose2	0.7143	0.0	Yes	3.022	0.028	n/a	GoodResponse	0	n/a	n/a	8	48	Cue	AvoidedLoss	True
457.879	3.95	Lose2	0.7143	0.0	Yes	3.022	0.001	n/a	GoodResponse	0	n/a	n/a	8	48	Fixation	AvoidedLoss	True
461.824	0.3	Lose2	0.7143	0.004	Yes	3.022	-0.004	1.0	GoodResponse	0	0.208	461.032	8	48	Target	AvoidedLoss	True
462.032	0.3	Lose2	0.7143	0.004	Yes	3.022	-0.004	1.0	GoodResponse	0	0.208	n/a	8	48	ButtonPress	AvoidedLoss	True
462.125	0.4	Lose2	0.7143	n/a	Yes	3.022	n/a	n/a	GoodResponse	0	n/a	n/a	8	48	Blank	AvoidedLoss	True
462.526	1.45	Lose2	0.7143	n/a	Yes	3.022	n/a	5.0	GoodResponse	0	0.034	461.56	8	48	Feedback	AvoidedLoss	True
463.981	3.022	Lose2	0.7143	n/a	Yes	3.022	n/a	n/a	GoodResponse	0	0.0	n/a	8	48	ISIslide	AvoidedLoss	True
467.023	0.25	Control	0.7	0.0	No	2.877	0.023	n/a	NoResponse	0	n/a	n/a	8	49	Cue	Neutral	True
467.274	4.0	Control	0.7	0.0	No	2.877	0.001	n/a	NoResponse	0	n/a	n/a	8	49	Fixation	Neutral	True
471.269	0.29	Control	0.7	0.004	No	2.877	-0.004	1.0	NoResponse	0	0.392	470.661	8	49	Target	Neutral	True
471.57	0.41	Control	0.7	n/a	No	2.877	n/a	n/a	NoResponse	0	n/a	n/a	8	49	Blank	Neutral	True
471.661	0.3	Control	0.7	0.004	No	2.877	-0.004	1.0	NoResponse	0	0.392	n/a	8	49	ButtonPress	Neutral	True
471.971	1.45	Control	0.7	n/a	No	2.877	n/a	5.0	NoResponse	0	0.008	470.979	8	49	Feedback	Neutral	True
473.426	2.877	Control	0.7	n/a	No	2.877	n/a	n/a	NoResponse	0	0.0	n/a	8	49	ISIslide	Neutral	True
476.318	0.25	Control	0.6862999999999999	0.0	No	2.782	0.018	n/a	NoResponse	0	n/a	n/a	8	50	Cue	Neutral	True
476.568	4.0	Control	0.6862999999999999	0.0	No	2.782	0.0	n/a	NoResponse	0	n/a	n/a	8	50	Fixation	Neutral	True
480.564	0.28	Control	0.6862999999999999	0.004	No	2.782	-0.004	1.0	NoResponse	0	0.407	479.971	8	50	Target	Neutral	True
480.848	0.42	Control	0.6862999999999999	n/a	No	2.782	n/a	n/a	NoResponse	0	n/a	n/a	8	50	Blank	Neutral	True
480.971	0.3	Control	0.6862999999999999	0.004	No	2.782	-0.004	1.0	NoResponse	0	0.407	n/a	8	50	ButtonPress	Neutral	True
481.266	1.45	Control	0.6862999999999999	n/a	No	2.782	n/a	5.0	NoResponse	0	0.025	480.291	8	50	Feedback	Neutral	True
482.72	2.782	Control	0.6862999999999999	n/a	No	2.782	n/a	n/a	NoResponse	0	0.0	n/a	8	50	ISIslide	Neutral	True
485.529	0.25	Control	0.6923	0.0	Yes	2.721	0.029	n/a	GoodResponse	0	n/a	n/a	8	51	Cue	Neutral	True
485.779	3.95	Control	0.6923	0.0	Yes	2.721	0.0	n/a	GoodResponse	0	n/a	n/a	8	51	Fixation	Neutral	True
489.741	0.27	Control	0.6923	0.0	Yes	2.721	0.012	1.0	GoodResponse	0	0.247	488.988	8	51	Target	Neutral	True
489.988	0.3	Control	0.6923	0.0	Yes	2.721	0.012	1.0	GoodResponse	0	0.247	n/a	8	51	ButtonPress	Neutral	True
490.009	0.43	Control	0.6923	n/a	Yes	2.721	n/a	n/a	GoodResponse	0	n/a	n/a	8	51	Blank	Neutral	True
490.427	1.45	Control	0.6923	n/a	Yes	2.721	n/a	5.0	GoodResponse	0	0.034	489.461	8	51	Feedback	Neutral	True
491.881	2.721	Control	0.6923	n/a	Yes	2.721	n/a	n/a	GoodResponse	0	0.0	n/a	8	51	ISIslide	Neutral	True
494.623	0.25	Control	0.6792	0.0	No	2.627	0.023	n/a	NoResponse	0	n/a	n/a	8	52	Cue	Neutral	False
494.873	4.05	Control	0.6792	0.0	No	2.627	0.0	n/a	NoResponse	0	n/a	n/a	8	52	Fixation	Neutral	False
498.919	0.26	Control	0.6792	0.004	No	2.627	-0.004	n/a	NoResponse	0	n/a	n/a	8	52	Target	Neutral	False
499.186	0.44	Control	0.6792	n/a	No	2.627	n/a	n/a	NoResponse	0	n/a	n/a	8	52	Blank	Neutral	False
499.621	1.45	Control	0.6792	n/a	No	2.627	n/a	5.0	NoResponse	0	0.011	498.632	8	52	Feedback	Neutral	False
501.075	2.627	Control	0.6792	n/a	No	2.627	n/a	n/a	NoResponse	0	0.0	n/a	8	52	ISIslide	Neutral	False
503.716	0.25	Win2	0.6851999999999999	0.001	Yes	2.934	0.016	n/a	GoodResponse	1	n/a	n/a	9	53	Cue	Win	True
503.967	4.05	Win2	0.6851999999999999	0.0	Yes	2.934	0.001	n/a	GoodResponse	1	n/a	n/a	9	53	Fixation	Win	True
508.013	0.25	Win2	0.6851999999999999	0.003	Yes	2.934	-0.003	1.0	GoodResponse	1	0.195	507.208	9	53	Target	Win	True
508.208	0.3	Win2	0.6851999999999999	0.003	Yes	2.934	-0.003	1.0	GoodResponse	1	0.195	n/a	9	53	ButtonPress	Win	True
508.263	0.45	Win2	0.6851999999999999	n/a	Yes	2.934	n/a	n/a	GoodResponse	1	n/a	n/a	9	53	Blank	Win	True
508.715	1.45	Win2	0.6851999999999999	n/a	Yes	2.934	n/a	5.0	GoodResponse	1	0.039	507.754	9	53	Feedback	Win	True
510.169	2.934	Win2	0.6851999999999999	n/a	Yes	2.934	n/a	n/a	GoodResponse	1	0.0	n/a	9	53	ISIslide	Win	True
513.128	0.25	Win2	0.6909000000000001	0.0	Yes	2.722	0.028	n/a	GoodResponse	1	n/a	n/a	10	54	Cue	Win	True
513.379	3.95	Win2	0.6909000000000001	0.0	Yes	2.722	0.001	n/a	GoodResponse	1	n/a	n/a	10	54	Fixation	Win	True
517.324	0.24	Win2	0.6909000000000001	0.004	Yes	2.722	-0.004	1.0	GoodResponse	1	0.202	516.526	10	54	Target	Win	True
517.526	0.3	Win2	0.6909000000000001	0.004	Yes	2.722	-0.004	1.0	GoodResponse	1	0.202	n/a	10	54	ButtonPress	Win	True
517.575	0.46	Win2	0.6909000000000001	n/a	Yes	2.722	n/a	n/a	GoodResponse	1	n/a	n/a	10	54	Blank	Win	True
518.026	1.45	Win2	0.6909000000000001	n/a	Yes	2.722	n/a	5.0	GoodResponse	1	0.045	517.071	10	54	Feedback	Win	True
519.48	2.722	Win2	0.6909000000000001	n/a	Yes	2.722	n/a	n/a	GoodResponse	1	0.0	n/a	10	54	ISIslide	Win	True
522.222	0.25	Control	0.6786	0.0	No	3.028	0.022	n/a	NoResponse	0	n/a	n/a	10	55	Cue	Neutral	False
522.473	3.95	Control	0.6786	0.0	No	3.028	0.001	n/a	NoResponse	0	n/a	n/a	10	55	Fixation	Neutral	False
526.418	0.23	Control	0.6786	0.004	No	3.028	-0.004	n/a	NoResponse	0	n/a	n/a	10	55	Target	Neutral	False
526.652	0.47	Control	0.6786	n/a	No	3.028	n/a	n/a	NoResponse	0	n/a	n/a	10	55	Blank	Neutral	False
527.12	1.45	Control	0.6786	n/a	No	3.028	n/a	5.0	NoResponse	0	0.025	526.145	10	55	Feedback	Neutral	False
528.574	3.028	Control	0.6786	n/a	No	3.028	n/a	n/a	NoResponse	0	0.0	n/a	10	55	ISIslide	Neutral	False
531.617	0.25	Control	0.6667000000000001	0.0	No	2.833	0.017	n/a	NoResponse	0	n/a	n/a	10	56	Cue	Neutral	False
531.868	3.95	Control	0.6667000000000001	0.0	No	2.833	0.001	n/a	NoResponse	0	n/a	n/a	10	56	Fixation	Neutral	False
535.813	0.22	Control	0.6667000000000001	0.004	No	2.833	-0.004	n/a	NoResponse	0	n/a	n/a	10	56	Target	Neutral	False
536.047	0.48	Control	0.6667000000000001	n/a	No	2.833	n/a	n/a	NoResponse	0	n/a	n/a	10	56	Blank	Neutral	False
536.515	1.45	Control	0.6667000000000001	n/a	No	2.833	n/a	5.0	NoResponse	0	0.044	535.559	10	56	Feedback	Neutral	False
537.969	2.833	Control	0.6667000000000001	n/a	No	2.833	n/a	n/a	NoResponse	0	0.0	n/a	10	56	ISIslide	Neutral	False
540.828	0.25	Control	0.6552	0.0	No	3.472	0.028	n/a	NoResponse	0	n/a	n/a	10	57	Cue	Neutral	False
541.079	4.0	Control	0.6552	0.0	No	3.472	0.001	n/a	NoResponse	0	n/a	n/a	10	57	Fixation	Neutral	False
545.074	0.21	Control	0.6552	0.004	No	3.472	-0.004	n/a	NoResponse	0	n/a	n/a	10	57	Target	Neutral	False
545.291	0.49	Control	0.6552	n/a	No	3.472	n/a	n/a	NoResponse	0	n/a	n/a	10	57	Blank	Neutral	False
545.776	1.45	Control	0.6552	n/a	No	3.472	n/a	5.0	NoResponse	0	0.008	544.784	10	57	Feedback	Neutral	False
547.23	3.472	Control	0.6552	n/a	No	3.472	n/a	n/a	NoResponse	0	0.0	n/a	10	57	ISIslide	Neutral	False
550.724	0.25	Win2	0.6441	0.0	No	2.726	0.024	n/a	LatePress	0	n/a	n/a	10	58	Cue	MissedWin	True
550.975	4.05	Win2	0.6441	0.0	No	2.726	0.001	n/a	LatePress	0	n/a	n/a	10	58	Fixation	MissedWin	True
555.02	0.21	Win2	0.6441	0.004	No	2.726	-0.004	1.0	LatePress	0	0.217	554.237	10	58	Target	MissedWin	True
555.237	0.3	Win2	0.6441	0.004	No	2.726	-0.004	1.0	LatePress	0	0.217	n/a	10	58	ButtonPress	MissedWin	True
555.238	0.49	Win2	0.6441	n/a	No	2.726	n/a	n/a	LatePress	0	n/a	n/a	10	58	Blank	MissedWin	True
555.722	1.45	Win2	0.6441	n/a	No	2.726	n/a	5.0	LatePress	0	0.008	554.73	10	58	Feedback	MissedWin	True
557.177	2.726	Win2	0.6441	n/a	No	2.726	n/a	n/a	LatePress	0	0.0	n/a	10	58	ISIslide	MissedWin	True
559.918	0.25	Lose2	0.65	0.0	Yes	2.682	0.018	n/a	GoodResponse	0	n/a	n/a	10	59	Cue	AvoidedLoss	True
560.169	4.0	Lose2	0.65	0.0	Yes	2.682	0.001	n/a	GoodResponse	0	n/a	n/a	10	59	Fixation	AvoidedLoss	True
564.164	0.22	Lose2	0.65	0.004	Yes	2.682	-0.004	1.0	GoodResponse	0	0.204	563.368	10	59	Target	AvoidedLoss	True
564.368	0.3	Lose2	0.65	0.004	Yes	2.682	-0.004	1.0	GoodResponse	0	0.204	n/a	10	59	ButtonPress	AvoidedLoss	True
564.399	0.48	Lose2	0.65	n/a	Yes	2.682	n/a	n/a	GoodResponse	0	n/a	n/a	10	59	Blank	AvoidedLoss	True
564.867	1.45	Lose2	0.65	n/a	Yes	2.682	n/a	5.0	GoodResponse	0	0.033	563.9	10	59	Feedback	AvoidedLoss	True
566.321	2.682	Lose2	0.65	n/a	Yes	2.682	n/a	n/a	GoodResponse	0	0.0	n/a	10	59	ISIslide	AvoidedLoss	True
569.029	0.25	Control	0.6393	0.0	No	2.671	0.029	n/a	NoResponse	0	n/a	n/a	10	60	Cue	Neutral	True
569.28	4.0	Control	0.6393	0.0	No	2.671	0.001	n/a	NoResponse	0	n/a	n/a	10	60	Fixation	Neutral	True
573.275	0.23	Control	0.6393	0.004	No	2.671	-0.004	1.0	NoResponse	0	0.243	572.518	10	60	Target	Neutral	True
573.509	0.47	Control	0.6393	n/a	No	2.671	n/a	n/a	NoResponse	0	n/a	n/a	10	60	Blank	Neutral	True
573.518	0.3	Control	0.6393	0.004	No	2.671	-0.004	1.0	NoResponse	0	0.243	n/a	10	60	ButtonPress	Neutral	True
573.977	1.45	Control	0.6393	n/a	No	2.671	n/a	5.0	NoResponse	0	0.045	573.022	10	60	Feedback	Neutral	True
575.432	2.671	Control	0.6393	n/a	No	2.671	n/a	n/a	NoResponse	0	0.0	n/a	10	60	ISIslide	Neutral	True
578.123	0.25	Lose2	0.6452	0.0	Yes	2.977	0.023	n/a	GoodResponse	0	n/a	n/a	10	61	Cue	AvoidedLoss	True
578.374	4.0	Lose2	0.6452	0.0	Yes	2.977	0.001	n/a	GoodResponse	0	n/a	n/a	10	61	Fixation	AvoidedLoss	True
582.369	0.24	Lose2	0.6452	0.004	Yes	2.977	-0.004	1.0	GoodResponse	0	0.211	581.58	10	61	Target	AvoidedLoss	True
582.58	0.3	Lose2	0.6452	0.004	Yes	2.977	-0.004	1.0	GoodResponse	0	0.211	n/a	10	61	ButtonPress	AvoidedLoss	True
582.62	0.46	Lose2	0.6452	n/a	Yes	2.977	n/a	n/a	GoodResponse	0	n/a	n/a	10	61	Blank	AvoidedLoss	True
583.071	1.45	Lose2	0.6452	n/a	Yes	2.977	n/a	5.0	GoodResponse	0	0.024	582.095	10	61	Feedback	AvoidedLoss	True
584.526	2.977	Lose2	0.6452	n/a	Yes	2.977	n/a	n/a	GoodResponse	0	0.0	n/a	10	61	ISIslide	AvoidedLoss	True
587.518	0.25	Lose2	0.6507999999999999	0.0	Yes	2.882	0.018	n/a	GoodResponse	0	n/a	n/a	10	62	Cue	AvoidedLoss	True
587.769	3.9	Lose2	0.6507999999999999	0.0	Yes	2.882	0.001	n/a	GoodResponse	0	n/a	n/a	10	62	Fixation	AvoidedLoss	True
591.664	0.25	Lose2	0.6507999999999999	0.004	Yes	2.882	-0.004	1.0	GoodResponse	0	0.236	590.9	10	62	Target	AvoidedLoss	True
591.9	0.3	Lose2	0.6507999999999999	0.004	Yes	2.882	-0.004	1.0	GoodResponse	0	0.236	n/a	10	62	ButtonPress	AvoidedLoss	True
591.914	0.45	Lose2	0.6507999999999999	n/a	Yes	2.882	n/a	n/a	GoodResponse	0	n/a	n/a	10	62	Blank	AvoidedLoss	True
592.366	1.45	Lose2	0.6507999999999999	n/a	Yes	2.882	n/a	5.0	GoodResponse	0	0.047	591.413	10	62	Feedback	AvoidedLoss	True
593.82	2.882	Lose2	0.6507999999999999	n/a	Yes	2.882	n/a	n/a	GoodResponse	0	0.0	n/a	10	62	ISIslide	AvoidedLoss	True
596.729	0.25	Lose2	0.6406000000000001	0.0	No	2.621	0.029	n/a	NoResponse	-1	n/a	n/a	9	63	Cue	Loss	True
596.98	4.05	Lose2	0.6406000000000001	0.0	No	2.621	0.001	n/a	NoResponse	-1	n/a	n/a	9	63	Fixation	Loss	True
601.025	0.26	Lose2	0.6406000000000001	0.004	No	2.621	-0.004	1.0	NoResponse	-1	0.331	600.356	9	63	Target	Loss	True
601.293	0.44	Lose2	0.6406000000000001	n/a	No	2.621	n/a	n/a	NoResponse	-1	n/a	n/a	9	63	Blank	Loss	True
601.356	0.3	Lose2	0.6406000000000001	0.004	No	2.621	-0.004	1.0	NoResponse	-1	0.331	n/a	9	63	ButtonPress	Loss	True
601.727	1.45	Lose2	0.6406000000000001	n/a	No	2.621	n/a	5.0	NoResponse	-1	0.008	600.735	9	63	Feedback	Loss	True
603.182	2.621	Lose2	0.6406000000000001	n/a	No	2.621	n/a	n/a	NoResponse	-1	0.0	n/a	9	63	ISIslide	Loss	True
605.823	0.25	Win2	0.6462	0.0	Yes	3.127	0.023	n/a	GoodResponse	1	n/a	n/a	10	64	Cue	Win	True
606.074	4.15	Win2	0.6462	0.0	Yes	3.127	0.001	n/a	GoodResponse	1	n/a	n/a	10	64	Fixation	Win	True
610.219	0.27	Win2	0.6462	0.004	Yes	3.127	-0.004	1.0	GoodResponse	1	0.199	609.418	10	64	Target	Win	True
610.418	0.3	Win2	0.6462	0.004	Yes	3.127	-0.004	1.0	GoodResponse	1	0.199	n/a	10	64	ButtonPress	Win	True
610.503	0.43	Win2	0.6462	n/a	Yes	3.127	n/a	n/a	GoodResponse	1	n/a	n/a	10	64	Blank	Win	True
610.921	1.45	Win2	0.6462	n/a	Yes	3.127	n/a	5.0	GoodResponse	1	0.028	609.949	10	64	Feedback	Win	True
612.376	3.127	Win2	0.6462	n/a	Yes	3.127	n/a	n/a	GoodResponse	1	0.0	n/a	10	64	ISIslide	Win	True
615.519	0.25	Control	0.6515000000000001	0.0	Yes	2.781	0.019	n/a	GoodResponse	0	n/a	n/a	10	65	Cue	Neutral	True
615.769	4.0	Control	0.6515000000000001	0.0	Yes	2.781	0.0	n/a	GoodResponse	0	n/a	n/a	10	65	Fixation	Neutral	True
619.765	0.28	Control	0.6515000000000001	0.004	Yes	2.781	-0.004	1.0	GoodResponse	0	0.229	618.994	10	65	Target	Neutral	True
619.994	0.3	Control	0.6515000000000001	0.004	Yes	2.781	-0.004	1.0	GoodResponse	0	0.229	n/a	10	65	ButtonPress	Neutral	True
620.049	0.42	Control	0.6515000000000001	n/a	Yes	2.781	n/a	n/a	GoodResponse	0	n/a	n/a	10	65	Blank	Neutral	True
620.467	1.45	Control	0.6515000000000001	n/a	Yes	2.781	n/a	5.0	GoodResponse	0	0.044	619.511	10	65	Feedback	Neutral	True
621.921	2.781	Control	0.6515000000000001	n/a	Yes	2.781	n/a	n/a	GoodResponse	0	0.0	n/a	10	65	ISIslide	Neutral	True
624.73	0.25	Win2	0.6567000000000001	0.0	Yes	2.77	0.03	n/a	GoodResponse	1	n/a	n/a	11	66	Cue	Win	True
624.98	3.9	Win2	0.6567000000000001	0.0	Yes	2.77	0.0	n/a	GoodResponse	1	n/a	n/a	11	66	Fixation	Win	True
628.892	0.29	Win2	0.6567000000000001	0.0	Yes	2.77	0.012	1.0	GoodResponse	1	0.245	628.137	11	66	Target	Win	True
629.137	0.3	Win2	0.6567000000000001	0.0	Yes	2.77	0.012	1.0	GoodResponse	1	0.245	n/a	11	66	ButtonPress	Win	True
629.176	0.41	Win2	0.6567000000000001	n/a	Yes	2.77	n/a	n/a	GoodResponse	1	n/a	n/a	11	66	Blank	Win	True
629.577	1.45	Win2	0.6567000000000001	n/a	Yes	2.77	n/a	5.0	GoodResponse	1	0.009	628.586	11	66	Feedback	Win	True
631.032	2.77	Win2	0.6567000000000001	n/a	Yes	2.77	n/a	n/a	GoodResponse	1	0.0	n/a	11	66	ISIslide	Win	True
633.823	0.25	Control	0.6470999999999999	0.001	No	2.727	0.023	n/a	NoResponse	0	n/a	n/a	11	67	Cue	Neutral	False
634.074	3.95	Control	0.6470999999999999	0.0	No	2.727	0.001	n/a	NoResponse	0	n/a	n/a	11	67	Fixation	Neutral	False
638.019	0.29	Control	0.6470999999999999	0.004	No	2.727	-0.004	n/a	NoResponse	0	n/a	n/a	11	67	Target	Neutral	False
638.32	0.41	Control	0.6470999999999999	n/a	No	2.727	n/a	n/a	NoResponse	0	n/a	n/a	11	67	Blank	Neutral	False
638.721	1.45	Control	0.6470999999999999	n/a	No	2.727	n/a	5.0	NoResponse	0	0.033	637.754	11	67	Feedback	Neutral	False
640.176	2.727	Control	0.6470999999999999	n/a	No	2.727	n/a	n/a	NoResponse	0	0.0	n/a	11	67	ISIslide	Neutral	False
642.917	0.25	Win2	0.6377	0.0	No	3.083	0.017	n/a	NoResponse	0	n/a	n/a	11	68	Cue	MissedWin	True
643.168	4.0	Win2	0.6377	0.0	No	3.083	0.001	n/a	NoResponse	0	n/a	n/a	11	68	Fixation	MissedWin	True
647.163	0.3	Win2	0.6377	0.004	No	3.083	-0.004	1.0	NoResponse	0	0.353	646.516	11	68	Target	MissedWin	True
647.464	0.4	Win2	0.6377	n/a	No	3.083	n/a	n/a	NoResponse	0	n/a	n/a	11	68	Blank	MissedWin	True
647.516	0.3	Win2	0.6377	0.004	No	3.083	-0.004	1.0	NoResponse	0	0.353	n/a	11	68	ButtonPress	MissedWin	True
647.866	1.45	Win2	0.6377	n/a	No	3.083	n/a	5.0	NoResponse	0	0.01	646.876	11	68	Feedback	MissedWin	True
649.32	3.083	Win2	0.6377	n/a	No	3.083	n/a	n/a	NoResponse	0	0.0	n/a	11	68	ISIslide	MissedWin	True
652.429	0.25	Win2	0.6429	0.0	Yes	3.221	0.029	n/a	GoodResponse	1	n/a	n/a	12	69	Cue	Win	True
652.68	3.95	Win2	0.6429	0.0	Yes	3.221	0.001	n/a	GoodResponse	1	n/a	n/a	12	69	Fixation	Win	True
656.625	0.31	Win2	0.6429	0.004	Yes	3.221	-0.004	1.0	GoodResponse	1	0.213	655.838	12	69	Target	Win	True
656.838	0.3	Win2	0.6429	0.004	Yes	3.221	-0.004	1.0	GoodResponse	1	0.213	n/a	12	69	ButtonPress	Win	True
656.943	0.39	Win2	0.6429	n/a	Yes	3.221	n/a	n/a	GoodResponse	1	n/a	n/a	12	69	Blank	Win	True
657.327	1.45	Win2	0.6429	n/a	Yes	3.221	n/a	5.0	GoodResponse	1	0.012	656.339	12	69	Feedback	Win	True
658.782	3.221	Win2	0.6429	n/a	Yes	3.221	n/a	n/a	GoodResponse	1	0.0	n/a	12	69	ISIslide	Win	True
662.025	0.25	Lose2	0.6479	0.0	Yes	3.025	0.025	n/a	GoodResponse	0	n/a	n/a	12	70	Cue	AvoidedLoss	True
662.275	4.05	Lose2	0.6479	0.001	Yes	3.025	0.0	n/a	GoodResponse	0	n/a	n/a	12	70	Fixation	AvoidedLoss	True
666.321	0.32	Lose2	0.6479	0.004	Yes	3.025	-0.004	1.0	GoodResponse	0	0.206	665.527	12	70	Target	AvoidedLoss	True
666.527	0.3	Lose2	0.6479	0.004	Yes	3.025	-0.004	1.0	GoodResponse	0	0.206	n/a	12	70	ButtonPress	AvoidedLoss	True
666.655	0.38	Lose2	0.6479	n/a	Yes	3.025	n/a	n/a	GoodResponse	0	n/a	n/a	12	70	Blank	AvoidedLoss	True
667.023	1.45	Lose2	0.6479	n/a	Yes	3.025	n/a	5.0	GoodResponse	0	0.024	666.047	12	70	Feedback	AvoidedLoss	True
668.477	3.025	Lose2	0.6479	n/a	Yes	3.025	n/a	n/a	GoodResponse	0	0.0	n/a	12	70	ISIslide	AvoidedLoss	True
671.52	0.25	Win2	0.6528	0.0	Yes	2.73	0.02	n/a	GoodResponse	1	n/a	n/a	13	71	Cue	Win	True
671.771	4.05	Win2	0.6528	0.0	Yes	2.73	0.001	n/a	GoodResponse	1	n/a	n/a	13	71	Fixation	Win	True
675.816	0.33	Win2	0.6528	0.004	Yes	2.73	-0.004	1.0	GoodResponse	1	0.219	675.035	13	71	Target	Win	True
676.035	0.3	Win2	0.6528	0.004	Yes	2.73	-0.004	1.0	GoodResponse	1	0.219	n/a	13	71	ButtonPress	Win	True
676.15	0.37	Win2	0.6528	n/a	Yes	2.73	n/a	n/a	GoodResponse	1	n/a	n/a	13	71	Blank	Win	True
676.518	1.45	Win2	0.6528	n/a	Yes	2.73	n/a	5.0	GoodResponse	1	0.041	675.559	13	71	Feedback	Win	True
677.973	2.73	Win2	0.6528	n/a	Yes	2.73	n/a	n/a	GoodResponse	1	0.0	n/a	13	71	ISIslide	Win	True
680.731	0.25	Win2	0.6575	0.0	Yes	2.769	0.031	n/a	GoodResponse	1	n/a	n/a	14	72	Cue	Win	True
680.982	4.1	Win2	0.6575	0.0	Yes	2.769	0.001	n/a	GoodResponse	1	n/a	n/a	14	72	Fixation	Win	True
685.077	0.34	Win2	0.6575	0.004	Yes	2.769	-0.004	1.0	GoodResponse	1	0.204	684.281	14	72	Target	Win	True
685.281	0.3	Win2	0.6575	0.004	Yes	2.769	-0.004	1.0	GoodResponse	1	0.204	n/a	14	72	ButtonPress	Win	True
685.428	0.36	Win2	0.6575	n/a	Yes	2.769	n/a	n/a	GoodResponse	1	n/a	n/a	14	72	Blank	Win	True
685.779	1.45	Win2	0.6575	n/a	Yes	2.769	n/a	5.0	GoodResponse	1	0.048	684.827	14	72	Feedback	Win	True
687.234	2.769	Win2	0.6575	n/a	Yes	2.769	n/a	n/a	GoodResponse	1	0.0	n/a	14	72	ISIslide	Win	True
690.025	0.25	Win2	0.6622	0.001	Yes	2.675	0.025	n/a	GoodResponse	1	n/a	n/a	15	73	Cue	Win	True
690.276	4.0	Win2	0.6622	0.0	Yes	2.675	0.001	n/a	GoodResponse	1	n/a	n/a	15	73	Fixation	Win	True
694.271	0.34	Win2	0.6622	0.004	Yes	2.675	-0.004	1.0	GoodResponse	1	0.209	693.48	15	73	Target	Win	True
694.48	0.3	Win2	0.6622	0.004	Yes	2.675	-0.004	1.0	GoodResponse	1	0.209	n/a	15	73	ButtonPress	Win	True
694.623	0.36	Win2	0.6622	n/a	Yes	2.675	n/a	n/a	GoodResponse	1	n/a	n/a	15	73	Blank	Win	True
694.974	1.45	Win2	0.6622	n/a	Yes	2.675	n/a	5.0	GoodResponse	1	0.024	693.998	15	73	Feedback	Win	True
696.428	2.675	Win2	0.6622	n/a	Yes	2.675	n/a	n/a	GoodResponse	1	0.0	n/a	15	73	ISIslide	Win	True
699.119	0.25	Lose2	0.6667000000000001	0.0	Yes	2.631	0.019	n/a	GoodResponse	0	n/a	n/a	15	74	Cue	AvoidedLoss	True
699.37	4.05	Lose2	0.6667000000000001	0.0	Yes	2.631	0.001	n/a	GoodResponse	0	n/a	n/a	15	74	Fixation	AvoidedLoss	True
703.416	0.34	Lose2	0.6667000000000001	0.003	Yes	2.631	-0.003	1.0	GoodResponse	0	0.196	702.612	15	74	Target	AvoidedLoss	True
703.612	0.3	Lose2	0.6667000000000001	0.003	Yes	2.631	-0.003	1.0	GoodResponse	0	0.196	n/a	15	74	ButtonPress	AvoidedLoss	True
703.767	0.36	Lose2	0.6667000000000001	n/a	Yes	2.631	n/a	n/a	GoodResponse	0	n/a	n/a	15	74	Blank	AvoidedLoss	True
704.118	1.45	Lose2	0.6667000000000001	n/a	Yes	2.631	n/a	5.0	GoodResponse	0	0.007	703.125	15	74	Feedback	AvoidedLoss	True
705.572	2.631	Lose2	0.6667000000000001	n/a	Yes	2.631	n/a	n/a	GoodResponse	0	0.0	n/a	15	74	ISIslide	AvoidedLoss	True
708.23	0.25	Lose2	0.6711	0.0	Yes	2.92	0.03	n/a	GoodResponse	0	n/a	n/a	15	75	Cue	AvoidedLoss	True
708.481	3.95	Lose2	0.6711	0.0	Yes	2.92	0.001	n/a	GoodResponse	0	n/a	n/a	15	75	Fixation	AvoidedLoss	True
712.426	0.33	Lose2	0.6711	0.004	Yes	2.92	-0.004	1.0	GoodResponse	0	0.253	711.679	15	75	Target	AvoidedLoss	True
712.679	0.3	Lose2	0.6711	0.004	Yes	2.92	-0.004	1.0	GoodResponse	0	0.253	n/a	15	75	ButtonPress	AvoidedLoss	True
712.76	0.37	Lose2	0.6711	n/a	Yes	2.92	n/a	n/a	GoodResponse	0	n/a	n/a	15	75	Blank	AvoidedLoss	True
713.128	1.45	Lose2	0.6711	n/a	Yes	2.92	n/a	5.0	GoodResponse	0	0.016	712.144	15	75	Feedback	AvoidedLoss	True
714.582	2.92	Lose2	0.6711	n/a	Yes	2.92	n/a	n/a	GoodResponse	0	0.0	n/a	15	75	ISIslide	AvoidedLoss	True
717.525	0.25	Control	0.6623	0.0	No	3.225	0.025	n/a	NoResponse	0	n/a	n/a	15	76	Cue	Neutral	False
717.775	4.05	Control	0.6623	0.0	No	3.225	0.0	n/a	NoResponse	0	n/a	n/a	15	76	Fixation	Neutral	False
721.821	0.32	Control	0.6623	0.004	No	3.225	-0.004	n/a	NoResponse	0	n/a	n/a	15	76	Target	Neutral	False
722.155	0.38	Control	0.6623	n/a	No	3.225	n/a	n/a	NoResponse	0	n/a	n/a	15	76	Blank	Neutral	False
722.523	1.45	Control	0.6623	n/a	No	3.225	n/a	5.0	NoResponse	0	0.035	721.558	15	76	Feedback	Neutral	False
723.977	3.225	Control	0.6623	n/a	No	3.225	n/a	n/a	NoResponse	0	0.0	n/a	15	76	ISIslide	Neutral	False
727.22	0.25	Lose2	0.6667000000000001	0.0	Yes	2.58	0.02	n/a	GoodResponse	0	n/a	n/a	15	77	Cue	AvoidedLoss	True
727.471	3.95	Lose2	0.6667000000000001	0.0	Yes	2.58	0.001	n/a	GoodResponse	0	n/a	n/a	15	77	Fixation	AvoidedLoss	True
731.416	0.32	Lose2	0.6667000000000001	0.004	Yes	2.58	-0.004	1.0	GoodResponse	0	0.18	730.596	15	77	Target	AvoidedLoss	True
731.596	0.3	Lose2	0.6667000000000001	0.004	Yes	2.58	-0.004	1.0	GoodResponse	0	0.18	n/a	15	77	ButtonPress	AvoidedLoss	True
731.751	0.38	Lose2	0.6667000000000001	n/a	Yes	2.58	n/a	n/a	GoodResponse	0	n/a	n/a	15	77	Blank	AvoidedLoss	True
732.118	1.45	Lose2	0.6667000000000001	n/a	Yes	2.58	n/a	5.0	GoodResponse	0	0.001	731.119	15	77	Feedback	AvoidedLoss	True
733.573	2.58	Lose2	0.6667000000000001	n/a	Yes	2.58	n/a	n/a	GoodResponse	0	0.0	n/a	15	77	ISIslide	AvoidedLoss	True
