onset	duration	cue_type	current_mean_accuracy	duration_error	is_hit	isi_adjusted	onset_delay	response	response_type	reward	rt	rt_time	total_reward	trial_number	trial_phase	trial_type	one_press
11.1	0.25	Control	1.0	0.0	Yes	2.95	0.0	n/a	GoodResponse	0	n/a	n/a	0	0	Cue	Neutral	True
11.351	3.85	Control	1.0	0.0	Yes	2.95	0.001	n/a	GoodResponse	0	n/a	n/a	0	0	Fixation	Neutral	True
15.196	0.4	Control	1.0	0.004	Yes	2.95	-0.004	2.0	GoodResponse	0	0.284	14.48	0	0	Target	Neutral	True
15.48	0.3	Control	1.0	0.004	Yes	2.95	-0.004	2.0	GoodResponse	0	0.284	n/a	0	0	ButtonPress	Neutral	True
15.597	0.3	Control	1.0	n/a	Yes	2.95	n/a	n/a	GoodResponse	0	n/a	n/a	0	0	Blank	Neutral	True
15.898	1.45	Control	1.0	n/a	Yes	2.95	n/a	5.0	GoodResponse	0	0.029	14.927	0	0	Feedback	Neutral	True
17.352	2.95	Control	1.0	n/a	Yes	2.95	n/a	n/a	GoodResponse	0	0.0	n/a	0	0	ISIslide	Neutral	True
20.328	0.25	Lose2	0.5	0.0	No	2.772	0.028	n/a	NoResponse	-1	n/a	n/a	-1	1	Cue	Loss	True
20.579	4.0	Lose2	0.5	0.0	No	2.772	0.001	n/a	NoResponse	-1	n/a	n/a	-1	1	Fixation	Loss	True
24.574	0.39	Lose2	0.5	0.004	No	2.772	-0.004	2.0	NoResponse	-1	0.41	23.984	-1	1	Target	Loss	True
24.975	0.31	Lose2	0.5	n/a	No	2.772	n/a	n/a	NoResponse	-1	n/a	n/a	-1	1	Blank	Loss	True
24.984	0.3	Lose2	0.5	0.004	No	2.772	-0.004	2.0	NoResponse	-1	0.41	n/a	-1	1	ButtonPress	Loss	True
25.276	1.45	Lose2	0.5	n/a	No	2.772	n/a	5.0	NoResponse	-1	0.017	24.293	-1	1	Feedback	Loss	True
26.73	2.772	Lose2	0.5	n/a	No	2.772	n/a	n/a	NoResponse	-1	0.0	n/a	-1	1	ISIslide	Loss	True
29.522	0.25	Control	0.6667000000000001	0.0	Yes	2.578	0.022	n/a	GoodResponse	0	n/a	n/a	-1	2	Cue	Neutral	True
29.773	4.1	Control	0.6667000000000001	0.0	Yes	2.578	0.001	n/a	GoodResponse	0	n/a	n/a	-1	2	Fixation	Neutral	True
33.868	0.4	Control	0.6667000000000001	0.004	Yes	2.578	-0.004	2.0	GoodResponse	0	0.229	33.097	-1	2	Target	Neutral	True
34.097	0.3	Control	0.6667000000000001	0.004	Yes	2.578	-0.004	2.0	GoodResponse	0	0.229	n/a	-1	2	ButtonPress	Neutral	True
34.27	0.3	Control	0.6667000000000001	n/a	Yes	2.578	n/a	n/a	GoodResponse	0	n/a	n/a	-1	2	Blank	Neutral	True
34.571	1.45	Control	0.6667000000000001	n/a	Yes	2.578	n/a	5.0	GoodResponse	0	0.039	33.61	-1	2	Feedback	Neutral	True
36.025	2.578	Control	0.6667000000000001	n/a	Yes	2.578	n/a	n/a	GoodResponse	0	0.0	n/a	-1	2	ISIslide	Neutral	True
38.616	0.25	Win2	0.75	0.0	Yes	2.834	0.016	n/a	GoodResponse	1	n/a	n/a	0	3	Cue	Win	True
38.867	3.95	Win2	0.75	0.0	Yes	2.834	0.001	n/a	GoodResponse	1	n/a	n/a	0	3	Fixation	Win	True
42.812	0.39	Win2	0.75	0.004	Yes	2.834	-0.004	2.0	GoodResponse	1	0.188	42.0	0	3	Target	Win	True
43	0.3	Win2	0.75	0.004	Yes	2.834	-0.004	2.0	GoodResponse	1	0.188	n/a	0	3	ButtonPress	Win	True
43.213	0.31	Win2	0.75	n/a	Yes	2.834	n/a	n/a	GoodResponse	1	n/a	n/a	0	3	Blank	Win	True
43.514	1.45	Win2	0.75	n/a	Yes	2.834	n/a	5.0	GoodResponse	1	0.022	42.536	0	3	Feedback	Win	True
44.968	2.834	Win2	0.75	n/a	Yes	2.834	n/a	n/a	GoodResponse	1	0.0	n/a	0	3	ISIslide	Win	True
47.827	0.25	Win2	0.8	0.0	Yes	3.273	0.027	n/a	GoodResponse	1	n/a	n/a	1	4	Cue	Win	True
48.078	4.0	Win2	0.8	0.0	Yes	3.273	0.001	n/a	GoodResponse	1	n/a	n/a	1	4	Fixation	Win	True
52.073	0.38	Win2	0.8	0.004	Yes	3.273	-0.004	2.0	GoodResponse	1	0.176	51.249	1	4	Target	Win	True
52.249	0.3	Win2	0.8	0.004	Yes	3.273	-0.004	2.0	GoodResponse	1	0.176	n/a	1	4	ButtonPress	Win	True
52.458	0.32	Win2	0.8	n/a	Yes	3.273	n/a	n/a	GoodResponse	1	n/a	n/a	1	4	Blank	Win	True
52.775	1.45	Win2	0.8	n/a	Yes	3.273	n/a	5.0	GoodResponse	1	0.029	51.804	1	4	Feedback	Win	True
54.23	3.273	Win2	0.8	n/a	Yes	3.273	n/a	n/a	GoodResponse	1	0.0	n/a	1	4	ISIslide	Win	True
57.523	0.25	Win2	0.8332999999999999	0.0	Yes	2.777	0.023	n/a	GoodResponse	1	n/a	n/a	2	5	Cue	Win	True
57.774	4.0	Win2	0.8332999999999999	0.0	Yes	2.777	0.001	n/a	GoodResponse	1	n/a	n/a	2	5	Fixation	Win	True
61.769	0.37	Win2	0.8332999999999999	0.004	Yes	2.777	-0.004	2.0	GoodResponse	1	0.21	60.979	2	5	Target	Win	True
61.979	0.3	Win2	0.8332999999999999	0.004	Yes	2.777	-0.004	2.0	GoodResponse	1	0.21	n/a	2	5	ButtonPress	Win	True
62.153	0.33	Win2	0.8332999999999999	n/a	Yes	2.777	n/a	n/a	GoodResponse	1	n/a	n/a	2	5	Blank	Win	True
62.471	1.45	Win2	0.8332999999999999	n/a	Yes	2.777	n/a	5.0	GoodResponse	1	0.041	61.512	2	5	Feedback	Win	True
63.925	2.777	Win2	0.8332999999999999	n/a	Yes	2.777	n/a	n/a	GoodResponse	1	0.0	n/a	2	5	ISIslide	Win	True
66.717	0.25	Lose2	0.8571	0.0	Yes	2.733	0.017	n/a	GoodResponse	0	n/a	n/a	2	6	Cue	AvoidedLoss	True
66.968	3.95	Lose2	0.8571	0.0	Yes	2.733	0.001	n/a	GoodResponse	0	n/a	n/a	2	6	Fixation	AvoidedLoss	True
70.913	0.36	Lose2	0.8571	0.004	Yes	2.733	-0.004	2.0	GoodResponse	0	0.284	70.197	2	6	Target	AvoidedLoss	True
71.197	0.3	Lose2	0.8571	0.004	Yes	2.733	-0.004	2.0	GoodResponse	0	0.284	n/a	2	6	ButtonPress	AvoidedLoss	True
71.281	0.34	Lose2	0.8571	n/a	Yes	2.733	n/a	n/a	GoodResponse	0	n/a	n/a	2	6	Blank	AvoidedLoss	True
71.615	1.45	Lose2	0.8571	n/a	Yes	2.733	n/a	5.0	GoodResponse	0	0.019	70.634	2	6	Feedback	AvoidedLoss	True
73.069	2.733	Lose2	0.8571	n/a	Yes	2.733	n/a	n/a	GoodResponse	0	0.0	n/a	2	6	ISIslide	AvoidedLoss	True
75.828	0.25	Lose2	0.875	0.0	Yes	4.022	0.028	n/a	GoodResponse	0	n/a	n/a	2	7	Cue	AvoidedLoss	True
76.078	4.05	Lose2	0.875	0.001	Yes	4.022	0.0	n/a	GoodResponse	0	n/a	n/a	2	7	Fixation	AvoidedLoss	True
80.124	0.35	Lose2	0.875	0.004	Yes	4.022	-0.004	2.0	GoodResponse	0	0.179	79.303	2	7	Target	AvoidedLoss	True
80.303	0.3	Lose2	0.875	0.004	Yes	4.022	-0.004	2.0	GoodResponse	0	0.179	n/a	2	7	ButtonPress	AvoidedLoss	True
80.475	0.35	Lose2	0.875	n/a	Yes	4.022	n/a	n/a	GoodResponse	0	n/a	n/a	2	7	Blank	AvoidedLoss	True
80.826	1.45	Lose2	0.875	n/a	Yes	4.022	n/a	5.0	GoodResponse	0	0.027	79.853	2	7	Feedback	AvoidedLoss	True
82.28	4.022	Lose2	0.875	n/a	Yes	4.022	n/a	n/a	GoodResponse	0	0.0	n/a	2	7	ISIslide	AvoidedLoss	True
86.326	0.25	Lose2	0.8889	0.0	Yes	3.024	0.026	n/a	GoodResponse	0	n/a	n/a	2	8	Cue	AvoidedLoss	True
86.577	3.95	Lose2	0.8889	0.0	Yes	3.024	0.001	n/a	GoodResponse	0	n/a	n/a	2	8	Fixation	AvoidedLoss	True
90.522	0.34	Lose2	0.8889	0.004	Yes	3.024	-0.004	2.0	GoodResponse	0	0.182	89.704	2	8	Target	AvoidedLoss	True
90.704	0.3	Lose2	0.8889	0.004	Yes	3.024	-0.004	2.0	GoodResponse	0	0.182	n/a	2	8	ButtonPress	AvoidedLoss	True
90.873	0.36	Lose2	0.8889	n/a	Yes	3.024	n/a	n/a	GoodResponse	0	n/a	n/a	2	8	Blank	AvoidedLoss	True
91.224	1.45	Lose2	0.8889	n/a	Yes	3.024	n/a	5.0	GoodResponse	0	0.02	90.244	2	8	Feedback	AvoidedLoss	True
92.678	3.024	Lose2	0.8889	n/a	Yes	3.024	n/a	n/a	GoodResponse	0	0.0	n/a	2	8	ISIslide	AvoidedLoss	True
95.721	0.25	Lose2	0.8	0.0	No	3.129	0.021	n/a	NoResponse	-1	n/a	n/a	1	9	Cue	Loss	True
95.971	3.95	Lose2	0.8	0.0	No	3.129	0.0	n/a	NoResponse	-1	n/a	n/a	1	9	Fixation	Loss	True
99.917	0.33	Lose2	0.8	0.004	No	3.129	-0.004	2.0	NoResponse	-1	0.394	99.311	1	9	Target	Loss	True
100.251	0.37	Lose2	0.8	n/a	No	3.129	n/a	n/a	NoResponse	-1	n/a	n/a	1	9	Blank	Loss	True
100.311	0.3	Lose2	0.8	0.004	No	3.129	-0.004	2.0	NoResponse	-1	0.394	n/a	1	9	ButtonPress	Loss	True
100.619	1.45	Lose2	0.8	n/a	No	3.129	n/a	5.0	NoResponse	-1	0.04	99.659	1	9	Feedback	Loss	True
102.073	3.129	Lose2	0.8	n/a	No	3.129	n/a	n/a	NoResponse	-1	0.0	n/a	1	9	ISIslide	Loss	True
105.216	0.25	Control	0.8181999999999999	0.0	Yes	3.284	0.016	n/a	GoodResponse	0	n/a	n/a	1	10	Cue	Neutral	True
105.467	4.0	Control	0.8181999999999999	0.0	Yes	3.284	0.001	n/a	GoodResponse	0	n/a	n/a	1	10	Fixation	Neutral	True
109.462	0.32	Control	0.8181999999999999	0.004	Yes	3.284	-0.004	2.0	GoodResponse	0	0.238	108.7	1	10	Target	Neutral	True
109.7	0.3	Control	0.8181999999999999	0.004	Yes	3.284	-0.004	2.0	GoodResponse	0	0.238	n/a	1	10	ButtonPress	Neutral	True
109.796	0.38	Control	0.8181999999999999	n/a	Yes	3.284	n/a	n/a	GoodResponse	0	n/a	n/a	1	10	Blank	Neutral	True
110.164	1.45	Control	0.8181999999999999	n/a	Yes	3.284	n/a	5.0	GoodResponse	0	0.008	109.172	1	10	Feedback	Neutral	True
111.618	3.284	Control	0.8181999999999999	n/a	Yes	3.284	n/a	n/a	GoodResponse	0	0.0	n/a	1	10	ISIslide	Neutral	True
114.928	0.25	Lose2	0.8332999999999999	0.0	Yes	2.722	0.028	n/a	GoodResponse	0	n/a	n/a	1	11	Cue	AvoidedLoss	True
115.179	4.05	Lose2	0.8332999999999999	0.0	Yes	2.722	0.001	n/a	GoodResponse	0	n/a	n/a	1	11	Fixation	AvoidedLoss	True
119.225	0.31	Lose2	0.8332999999999999	0.003	Yes	2.722	-0.003	2.0	GoodResponse	0	0.2	118.425	1	11	Target	AvoidedLoss	True
119.425	0.3	Lose2	0.8332999999999999	0.003	Yes	2.722	-0.003	2.0	GoodResponse	0	0.2	n/a	1	11	ButtonPress	AvoidedLoss	True
119.542	0.39	Lose2	0.8332999999999999	n/a	Yes	2.722	n/a	n/a	GoodResponse	0	n/a	n/a	1	11	Blank	AvoidedLoss	True
119.927	1.45	Lose2	0.8332999999999999	n/a	Yes	2.722	n/a	5.0	GoodResponse	0	0.048	118.975	1	11	Feedback	AvoidedLoss	True
121.381	2.722	Lose2	0.8332999999999999	n/a	Yes	2.722	n/a	n/a	GoodResponse	0	0.0	n/a	1	11	ISIslide	AvoidedLoss	True
124.123	0.25	Control	0.8462000000000001	0.0	Yes	2.977	0.023	n/a	GoodResponse	0	n/a	n/a	1	12	Cue	Neutral	True
124.373	3.9	Control	0.8462000000000001	0.0	Yes	2.977	0.0	n/a	GoodResponse	0	n/a	n/a	1	12	Fixation	Neutral	True
128.285	0.3	Control	0.8462000000000001	0.0	Yes	2.977	0.012	2.0	GoodResponse	0	0.196	127.481	1	12	Target	Neutral	True
128.481	0.3	Control	0.8462000000000001	0.0	Yes	2.977	0.012	2.0	GoodResponse	0	0.196	n/a	1	12	ButtonPress	Neutral	True
128.569	0.4	Control	0.8462000000000001	n/a	Yes	2.977	n/a	n/a	GoodResponse	0	n/a	n/a	1	12	Blank	Neutral	True
128.97	1.45	Control	0.8462000000000001	n/a	Yes	2.977	n/a	5.0	GoodResponse	0	0.029	127.999	1	12	Feedback	Neutral	True
130.425	2.977	Control	0.8462000000000001	n/a	Yes	2.977	n/a	n/a	GoodResponse	0	0.0	n/a	1	12	ISIslide	Neutral	True
133.417	0.25	Control	0.8571	0.0	Yes	2.783	0.017	n/a	GoodResponse	0	n/a	n/a	1	13	Cue	Neutral	True
133.668	4.0	Control	0.8571	0.0	Yes	2.783	0.001	n/a	GoodResponse	0	n/a	n/a	1	13	Fixation	Neutral	True
137.663	0.29	Control	0.8571	0.004	Yes	2.783	-0.004	2.0	GoodResponse	0	0.198	136.861	1	13	Target	Neutral	True
137.861	0.3	Control	0.8571	0.004	Yes	2.783	-0.004	2.0	GoodResponse	0	0.198	n/a	1	13	ButtonPress	Neutral	True
137.964	0.41	Control	0.8571	n/a	Yes	2.783	n/a	n/a	GoodResponse	0	n/a	n/a	1	13	Blank	Neutral	True
138.365	1.45	Control	0.8571	n/a	Yes	2.783	n/a	5.0	GoodResponse	0	0.049	137.414	1	13	Feedback	Neutral	True
139.82	2.783	Control	0.8571	n/a	Yes	2.783	n/a	n/a	GoodResponse	0	0.0	n/a	1	13	ISIslide	Neutral	True
142.628	0.25	Win2	0.8667	0.0	Yes	2.672	0.028	n/a	GoodResponse	1	n/a	n/a	2	14	Cue	Win	True
142.879	4.1	Win2	0.8667	0.0	Yes	2.672	0.001	n/a	GoodResponse	1	n/a	n/a	2	14	Fixation	Win	True
146.974	0.28	Win2	0.8667	0.004	Yes	2.672	-0.004	2.0	GoodResponse	1	0.206	146.18	2	14	Target	Win	True
147.18	0.3	Win2	0.8667	0.004	Yes	2.672	-0.004	2.0	GoodResponse	1	0.206	n/a	2	14	ButtonPress	Win	True
147.259	0.42	Win2	0.8667	n/a	Yes	2.672	n/a	n/a	GoodResponse	1	n/a	n/a	2	14	Blank	Win	True
147.677	1.45	Win2	0.8667	n/a	Yes	2.672	n/a	5.0	GoodResponse	1	0.007	146.684	2	14	Feedback	Win	True
149.131	2.672	Win2	0.8667	n/a	Yes	2.672	n/a	n/a	GoodResponse	1	0.0	n/a	2	14	ISIslide	Win	True
151.822	0.25	Control	0.875	0.0	Yes	2.978	0.022	n/a	GoodResponse	0	n/a	n/a	2	15	Cue	Neutral	True
152.073	4.0	Control	0.875	0.0	Yes	2.978	0.001	n/a	GoodResponse	0	n/a	n/a	2	15	Fixation	Neutral	True
156.068	0.27	Control	0.875	0.004	Yes	2.978	-0.004	2.0	GoodResponse	0	0.193	155.261	2	15	Target	Neutral	True
156.261	0.3	Control	0.875	0.004	Yes	2.978	-0.004	2.0	GoodResponse	0	0.193	n/a	2	15	ButtonPress	Neutral	True
156.353	0.43	Control	0.875	n/a	Yes	2.978	n/a	n/a	GoodResponse	0	n/a	n/a	2	15	Blank	Neutral	True
156.77	1.45	Control	0.875	n/a	Yes	2.978	n/a	5.0	GoodResponse	0	0.035	155.805	2	15	Feedback	Neutral	True
158.225	2.978	Control	0.875	n/a	Yes	2.978	n/a	n/a	GoodResponse	0	0.0	n/a	2	15	ISIslide	Neutral	True
161.217	0.25	Win2	0.8824	0.0	Yes	2.883	0.017	n/a	GoodResponse	1	n/a	n/a	3	16	Cue	Win	True
161.468	4.0	Win2	0.8824	0.0	Yes	2.883	0.001	n/a	GoodResponse	1	n/a	n/a	3	16	Fixation	Win	True
165.463	0.26	Win2	0.8824	0.004	Yes	2.883	-0.004	2.0	GoodResponse	1	0.185	164.648	3	16	Target	Win	True
165.648	0.3	Win2	0.8824	0.004	Yes	2.883	-0.004	2.0	GoodResponse	1	0.185	n/a	3	16	ButtonPress	Win	True
165.731	0.44	Win2	0.8824	n/a	Yes	2.883	n/a	n/a	GoodResponse	1	n/a	n/a	3	16	Blank	Win	True
166.165	1.45	Win2	0.8824	n/a	Yes	2.883	n/a	5.0	GoodResponse	1	0.008	165.173	3	16	Feedback	Win	True
167.62	2.883	Win2	0.8824	n/a	Yes	2.883	n/a	n/a	GoodResponse	1	0.0	n/a	3	16	ISIslide	Win	True
170.528	0.25	Lose2	0.8889	0.0	Yes	2.722	0.028	n/a	GoodResponse	0	n/a	n/a	3	17	Cue	AvoidedLoss	True
170.779	3.95	Lose2	0.8889	0.0	Yes	2.722	0.001	n/a	GoodResponse	0	n/a	n/a	3	17	Fixation	AvoidedLoss	True
174.724	0.25	Lose2	0.8889	0.004	Yes	2.722	-0.004	2.0	GoodResponse	0	0.197	173.921	3	17	Target	AvoidedLoss	True
174.921	0.3	Lose2	0.8889	0.004	Yes	2.722	-0.004	2.0	GoodResponse	0	0.197	n/a	3	17	ButtonPress	AvoidedLoss	True
174.975	0.45	Lose2	0.8889	n/a	Yes	2.722	n/a	n/a	GoodResponse	0	n/a	n/a	3	17	Blank	AvoidedLoss	True
175.426	1.45	Lose2	0.8889	n/a	Yes	2.722	n/a	5.0	GoodResponse	0	0.013	174.439	3	17	Feedback	AvoidedLoss	True
176.881	2.722	Lose2	0.8889	n/a	Yes	2.722	n/a	n/a	GoodResponse	0	0.0	n/a	3	17	ISIslide	AvoidedLoss	True
179.622	0.25	Lose2	0.8421	0.0	No	2.728	0.022	n/a	NoResponse	-1	n/a	n/a	2	18	Cue	Loss	False
179.873	4.05	Lose2	0.8421	0.0	No	2.728	0.001	n/a	NoResponse	-1	n/a	n/a	2	18	Fixation	Loss	False
183.919	0.24	Lose2	0.8421	0.003	No	2.728	-0.003	n/a	NoResponse	-1	n/a	n/a	2	18	Target	Loss	False
184.169	0.46	Lose2	0.8421	n/a	No	2.728	n/a	n/a	NoResponse	-1	n/a	n/a	2	18	Blank	Loss	False
184.621	1.45	Lose2	0.8421	n/a	No	2.728	n/a	5.0	NoResponse	-1	0.038	183.659	2	18	Feedback	Loss	False
186.075	2.728	Lose2	0.8421	n/a	No	2.728	n/a	n/a	NoResponse	-1	0.0	n/a	2	18	ISIslide	Loss	False
188.817	0.25	Control	0.85	0.0	Yes	2.933	0.017	n/a	GoodResponse	0	n/a	n/a	2	19	Cue	Neutral	True
189.067	3.95	Control	0.85	0.0	Yes	2.933	0.0	n/a	GoodResponse	0	n/a	n/a	2	19	Fixation	Neutral	True
193.013	0.23	Control	0.85	0.004	Yes	2.933	-0.004	2.0	GoodResponse	0	0.186	192.199	2	19	Target	Neutral	True
193.199	0.3	Control	0.85	0.004	Yes	2.933	-0.004	2.0	GoodResponse	0	0.186	n/a	2	19	ButtonPress	Neutral	True
193.247	0.47	Control	0.85	n/a	Yes	2.933	n/a	n/a	GoodResponse	0	n/a	n/a	2	19	Blank	Neutral	True
193.715	1.45	Control	0.85	n/a	Yes	2.933	n/a	5.0	GoodResponse	0	0.016	192.731	2	19	Feedback	Neutral	True
195.169	2.933	Control	0.85	n/a	Yes	2.933	n/a	n/a	GoodResponse	0	0.0	n/a	2	19	ISIslide	Neutral	True
198.128	0.25	Control	0.8571	0.0	Yes	2.622	0.028	n/a	GoodResponse	0	n/a	n/a	2	20	Cue	Neutral	True
198.379	4.05	Control	0.8571	0.0	Yes	2.622	0.001	n/a	GoodResponse	0	n/a	n/a	2	20	Fixation	Neutral	True
202.424	0.22	Control	0.8571	0.004	Yes	2.622	-0.004	2.0	GoodResponse	0	0.174	201.598	2	20	Target	Neutral	True
202.598	0.3	Control	0.8571	0.004	Yes	2.622	-0.004	2.0	GoodResponse	0	0.174	n/a	2	20	ButtonPress	Neutral	True
202.658	0.48	Control	0.8571	n/a	Yes	2.622	n/a	n/a	GoodResponse	0	n/a	n/a	2	20	Blank	Neutral	True
203.126	1.45	Control	0.8571	n/a	Yes	2.622	n/a	5.0	GoodResponse	0	0.02	202.146	2	20	Feedback	Neutral	True
204.581	2.622	Control	0.8571	n/a	Yes	2.622	n/a	n/a	GoodResponse	0	0.0	n/a	2	20	ISIslide	Neutral	True
207.222	0.25	Control	0.8636	0.0	Yes	2.778	0.022	n/a	GoodResponse	0	n/a	n/a	2	21	Cue	Neutral	True
207.473	4.1	Control	0.8636	0.0	Yes	2.778	0.001	n/a	GoodResponse	0	n/a	n/a	2	21	Fixation	Neutral	True
211.568	0.21	Control	0.8636	0.004	Yes	2.778	-0.004	2.0	GoodResponse	0	0.194	210.762	2	21	Target	Neutral	True
211.762	0.3	Control	0.8636	0.004	Yes	2.778	-0.004	2.0	GoodResponse	0	0.194	n/a	2	21	ButtonPress	Neutral	True
211.786	0.49	Control	0.8636	n/a	Yes	2.778	n/a	n/a	GoodResponse	0	n/a	n/a	2	21	Blank	Neutral	True
212.27	1.45	Control	0.8636	n/a	Yes	2.778	n/a	5.0	GoodResponse	0	0.046	211.316	2	21	Feedback	Neutral	True
213.725	2.778	Control	0.8636	n/a	Yes	2.778	n/a	n/a	GoodResponse	0	0.0	n/a	2	21	ISIslide	Neutral	True
216.516	0.25	Control	0.8695999999999999	0.0	Yes	2.784	0.016	n/a	GoodResponse	0	n/a	n/a	2	22	Cue	Neutral	True
216.767	4.0	Control	0.8695999999999999	0.0	Yes	2.784	0.001	n/a	GoodResponse	0	n/a	n/a	2	22	Fixation	Neutral	True
220.762	0.2	Control	0.8695999999999999	0.004	Yes	2.784	-0.004	2.0	GoodResponse	0	0.171	219.933	2	22	Target	Neutral	True
220.933	0.3	Control	0.8695999999999999	0.004	Yes	2.784	-0.004	2.0	GoodResponse	0	0.171	n/a	2	22	ButtonPress	Neutral	True
220.963	0.5	Control	0.8695999999999999	n/a	Yes	2.784	n/a	n/a	GoodResponse	0	n/a	n/a	2	22	Blank	Neutral	True
221.465	1.45	Control	0.8695999999999999	n/a	Yes	2.784	n/a	5.0	GoodResponse	0	0.022	220.487	2	22	Feedback	Neutral	True
222.919	2.784	Control	0.8695999999999999	n/a	Yes	2.784	n/a	n/a	GoodResponse	0	0.0	n/a	2	22	ISIslide	Neutral	True
225.727	0.25	Control	0.875	0.0	Yes	2.773	0.027	n/a	GoodResponse	0	n/a	n/a	2	23	Cue	Neutral	True
225.978	3.9	Control	0.875	0.0	Yes	2.773	0.001	n/a	GoodResponse	0	n/a	n/a	2	23	Fixation	Neutral	True
229.873	0.19	Control	0.875	0.004	Yes	2.773	-0.004	2.0	GoodResponse	0	0.174	229.047	2	23	Target	Neutral	True
230.047	0.3	Control	0.875	0.004	Yes	2.773	-0.004	2.0	GoodResponse	0	0.174	n/a	2	23	ButtonPress	Neutral	True
230.074	0.51	Control	0.875	n/a	Yes	2.773	n/a	n/a	GoodResponse	0	n/a	n/a	2	23	Blank	Neutral	True
230.575	1.45	Control	0.875	n/a	Yes	2.773	n/a	5.0	GoodResponse	0	0.034	229.609	2	23	Feedback	Neutral	True
232.03	2.773	Control	0.875	n/a	Yes	2.773	n/a	n/a	GoodResponse	0	0.0	n/a	2	23	ISIslide	Neutral	True
234.821	0.25	Win2	0.88	0.0	Yes	3.129	0.021	n/a	GoodResponse	1	n/a	n/a	3	24	Cue	Win	True
235.072	3.95	Win2	0.88	0.0	Yes	3.129	0.001	n/a	GoodResponse	1	n/a	n/a	3	24	Fixation	Win	True
239.017	0.18	Win2	0.88	0.004	Yes	3.129	-0.004	2.0	GoodResponse	1	0.177	238.194	3	24	Target	Win	True
239.194	0.3	Win2	0.88	0.004	Yes	3.129	-0.004	2.0	GoodResponse	1	0.177	n/a	3	24	ButtonPress	Win	True
239.201	0.52	Win2	0.88	n/a	Yes	3.129	n/a	n/a	GoodResponse	1	n/a	n/a	3	24	Blank	Win	True
239.719	1.45	Win2	0.88	n/a	Yes	3.129	n/a	5.0	GoodResponse	1	0.012	238.731	3	24	Feedback	Win	True
241.174	3.129	Win2	0.88	n/a	Yes	3.129	n/a	n/a	GoodResponse	1	0.0	n/a	3	24	ISIslide	Win	True
244.316	0.25	Win2	0.8462000000000001	0.001	No	3.084	0.016	n/a	NoResponse	0	n/a	n/a	3	25	Cue	MissedWin	True
244.567	4.0	Win2	0.8462000000000001	0.0	No	3.084	0.001	2.0	NoResponse	0	3.745	247.312	3	25	Fixation	MissedWin	True
248.312	0.3	Win2	0.8462000000000001	0.0	No	3.084	0.001	2.0	NoResponse	0	3.745	n/a	3	25	ButtonPress	MissedWin	True
248.562	0.17	Win2	0.8462000000000001	0.004	No	3.084	-0.004	n/a	NoResponse	0	n/a	n/a	3	25	Target	MissedWin	True
248.746	0.53	Win2	0.8462000000000001	n/a	No	3.084	n/a	n/a	NoResponse	0	n/a	n/a	3	25	Blank	MissedWin	True
249.265	1.45	Win2	0.8462000000000001	n/a	No	3.084	n/a	5.0	NoResponse	0	0.027	248.292	3	25	Feedback	MissedWin	True
250.719	3.084	Win2	0.8462000000000001	n/a	No	3.084	n/a	n/a	NoResponse	0	0.0	n/a	3	25	ISIslide	MissedWin	True
253.828	0.25	Win2	0.8148000000000001	0.0	No	2.922	0.028	n/a	NoResponse	0	n/a	n/a	3	26	Cue	MissedWin	True
254.079	3.95	Win2	0.8148000000000001	0.0	No	2.922	0.001	n/a	NoResponse	0	n/a	n/a	3	26	Fixation	MissedWin	True
258.024	0.16	Win2	0.8148000000000001	0.004	No	2.922	-0.004	2.0	NoResponse	0	0.196	257.22	3	26	Target	MissedWin	True
258.191	0.54	Win2	0.8148000000000001	n/a	No	2.922	n/a	n/a	NoResponse	0	n/a	n/a	3	26	Blank	MissedWin	True
258.22	0.3	Win2	0.8148000000000001	0.004	No	2.922	-0.004	2.0	NoResponse	0	0.196	n/a	3	26	ButtonPress	MissedWin	True
258.726	1.45	Win2	0.8148000000000001	n/a	No	2.922	n/a	5.0	NoResponse	0	0.03	257.756	3	26	Feedback	MissedWin	True
260.181	2.922	Win2	0.8148000000000001	n/a	No	2.922	n/a	n/a	NoResponse	0	0.0	n/a	3	26	ISIslide	MissedWin	True
263.123	0.25	Lose2	0.7857	0.0	No	2.827	0.023	n/a	NoResponse	-1	n/a	n/a	2	27	Cue	Loss	True
263.374	4.05	Lose2	0.7857	0.0	No	2.827	0.001	2.0	NoResponse	-1	3.929	266.303	2	27	Fixation	Loss	True
267.303	0.3	Lose2	0.7857	0.0	No	2.827	0.001	2.0	NoResponse	-1	3.929	n/a	2	27	ButtonPress	Loss	True
267.419	0.15	Lose2	0.7857	0.004	No	2.827	-0.004	n/a	NoResponse	-1	n/a	n/a	2	27	Target	Loss	True
267.57	0.55	Lose2	0.7857	n/a	No	2.827	n/a	n/a	NoResponse	-1	n/a	n/a	2	27	Blank	Loss	True
268.121	1.45	Lose2	0.7857	n/a	No	2.827	n/a	5.0	NoResponse	-1	0.0	267.121	2	27	Feedback	Loss	True
269.576	2.827	Lose2	0.7857	n/a	No	2.827	n/a	n/a	NoResponse	-1	0.0	n/a	2	27	ISIslide	Loss	True
272.417	0.25	Control	0.7585999999999999	0.001	No	2.833	0.017	n/a	NoResponse	0	n/a	n/a	2	28	Cue	Neutral	True
272.668	4.05	Control	0.7585999999999999	0.0	No	2.833	0.001	n/a	NoResponse	0	n/a	n/a	2	28	Fixation	Neutral	True
276.714	0.15	Control	0.7585999999999999	0.003	No	2.833	-0.003	2.0	NoResponse	0	0.189	275.903	2	28	Target	Neutral	True
276.864	0.55	Control	0.7585999999999999	n/a	No	2.833	n/a	n/a	NoResponse	0	n/a	n/a	2	28	Blank	Neutral	True
276.903	0.3	Control	0.7585999999999999	0.003	No	2.833	-0.003	2.0	NoResponse	0	0.189	n/a	2	28	ButtonPress	Neutral	True
277.416	1.45	Control	0.7585999999999999	n/a	No	2.833	n/a	5.0	NoResponse	0	0.022	276.438	2	28	Feedback	Neutral	True
278.87	2.833	Control	0.7585999999999999	n/a	No	2.833	n/a	n/a	NoResponse	0	0.0	n/a	2	28	ISIslide	Neutral	True
281.729	0.25	Lose2	0.7333	0.0	No	2.821	0.029	n/a	NoResponse	-1	n/a	n/a	1	29	Cue	Loss	True
281.979	3.95	Lose2	0.7333	0.001	No	2.821	0.0	n/a	NoResponse	-1	n/a	n/a	1	29	Fixation	Loss	True
285.925	0.15	Lose2	0.7333	0.004	No	2.821	-0.004	2.0	NoResponse	-1	0.187	285.112	1	29	Target	Loss	True
286.075	0.55	Lose2	0.7333	n/a	No	2.821	n/a	n/a	NoResponse	-1	n/a	n/a	1	29	Blank	Loss	True
286.112	0.3	Lose2	0.7333	0.004	No	2.821	-0.004	2.0	NoResponse	-1	0.187	n/a	1	29	ButtonPress	Loss	True
286.627	1.45	Lose2	0.7333	n/a	No	2.821	n/a	5.0	NoResponse	-1	0.031	285.658	1	29	Feedback	Loss	True
288.081	2.821	Lose2	0.7333	n/a	No	2.821	n/a	n/a	NoResponse	-1	0.0	n/a	1	29	ISIslide	Loss	True
290.923	0.25	Win2	0.7097	0.0	No	2.777	0.023	n/a	NoResponse	0	n/a	n/a	1	30	Cue	MissedWin	True
291.174	3.9	Win2	0.7097	0.0	No	2.777	0.001	n/a	NoResponse	0	n/a	n/a	1	30	Fixation	MissedWin	True
295.069	0.15	Win2	0.7097	0.004	No	2.777	-0.004	2.0	NoResponse	0	0.206	294.275	1	30	Target	MissedWin	True
295.219	0.55	Win2	0.7097	n/a	No	2.777	n/a	n/a	NoResponse	0	n/a	n/a	1	30	Blank	MissedWin	True
295.275	0.3	Win2	0.7097	0.004	No	2.777	-0.004	2.0	NoResponse	0	0.206	n/a	1	30	ButtonPress	MissedWin	True
295.771	1.45	Win2	0.7097	n/a	No	2.777	n/a	5.0	NoResponse	0	0.009	294.78	1	30	Feedback	MissedWin	True
297.225	2.777	Win2	0.7097	n/a	No	2.777	n/a	n/a	NoResponse	0	0.0	n/a	1	30	ISIslide	MissedWin	True
300.017	0.25	Lose2	0.6875	0.0	No	2.833	0.017	n/a	NoResponse	-1	n/a	n/a	0	31	Cue	Loss	True
300.268	4.05	Lose2	0.6875	0.0	No	2.833	0.001	2.0	NoResponse	-1	3.919	303.187	0	31	Fixation	Loss	True
304.187	0.3	Lose2	0.6875	0.0	No	2.833	0.001	2.0	NoResponse	-1	3.919	n/a	0	31	ButtonPress	Loss	True
304.313	0.15	Lose2	0.6875	0.004	No	2.833	-0.004	n/a	NoResponse	-1	n/a	n/a	0	31	Target	Loss	True
304.464	0.55	Lose2	0.6875	n/a	No	2.833	n/a	n/a	NoResponse	-1	n/a	n/a	0	31	Blank	Loss	True
305.015	1.45	Lose2	0.6875	n/a	No	2.833	n/a	5.0	NoResponse	-1	0.033	304.048	0	31	Feedback	Loss	True
306.47	2.833	Lose2	0.6875	n/a	No	2.833	n/a	n/a	NoResponse	-1	0.0	n/a	0	31	ISIslide	Loss	True
309.328	0.25	Lose2	0.6667000000000001	0.0	No	2.622	0.028	n/a	NoResponse	-1	n/a	n/a	-1	32	Cue	Loss	True
309.579	4.15	Lose2	0.6667000000000001	0.0	No	2.622	0.001	n/a	NoResponse	-1	n/a	n/a	-1	32	Fixation	Loss	True
313.725	0.15	Lose2	0.6667000000000001	0.003	No	2.622	-0.003	2.0	NoResponse	-1	0.19	312.915	-1	32	Target	Loss	True
313.875	0.55	Lose2	0.6667000000000001	n/a	No	2.622	n/a	n/a	NoResponse	-1	n/a	n/a	-1	32	Blank	Loss	True
313.915	0.3	Lose2	0.6667000000000001	0.003	No	2.622	-0.003	2.0	NoResponse	-1	0.19	n/a	-1	32	ButtonPress	Loss	True
314.427	1.45	Lose2	0.6667000000000001	n/a	No	2.622	n/a	5.0	NoResponse	-1	0.036	313.463	-1	32	Feedback	Loss	True
315.881	2.622	Lose2	0.6667000000000001	n/a	No	2.622	n/a	n/a	NoResponse	-1	0.0	n/a	-1	32	ISIslide	Loss	True
318.522	0.25	Win2	0.6470999999999999	0.0	No	2.678	0.022	n/a	NoResponse	0	n/a	n/a	-1	33	Cue	MissedWin	True
318.773	4.0	Win2	0.6470999999999999	0.0	No	2.678	0.001	n/a	NoResponse	0	n/a	n/a	-1	33	Fixation	MissedWin	True
322.768	0.15	Win2	0.6470999999999999	0.004	No	2.678	-0.004	2.0	NoResponse	0	0.309	322.077	-1	33	Target	MissedWin	True
322.919	0.55	Win2	0.6470999999999999	n/a	No	2.678	n/a	n/a	NoResponse	0	n/a	n/a	-1	33	Blank	MissedWin	True
323.077	0.3	Win2	0.6470999999999999	0.004	No	2.678	-0.004	2.0	NoResponse	0	0.309	n/a	-1	33	ButtonPress	MissedWin	True
323.471	1.45	Win2	0.6470999999999999	n/a	No	2.678	n/a	5.0	NoResponse	0	0.016	322.487	-1	33	Feedback	MissedWin	True
324.925	2.678	Win2	0.6470999999999999	n/a	No	2.678	n/a	n/a	NoResponse	0	0.0	n/a	-1	33	ISIslide	MissedWin	True
327.616	0.25	Lose2	0.6570999999999999	0.0	Yes	2.634	0.016	n/a	GoodResponse	0	n/a	n/a	-1	34	Cue	AvoidedLoss	True
327.867	4.05	Lose2	0.6570999999999999	0.0	Yes	2.634	0.001	n/a	GoodResponse	0	n/a	n/a	-1	34	Fixation	AvoidedLoss	True
331.913	0.16	Lose2	0.6570999999999999	0.003	Yes	2.634	-0.003	2.0	GoodResponse	0	0.109	331.022	-1	34	Target	AvoidedLoss	True
332.022	0.3	Lose2	0.6570999999999999	0.003	Yes	2.634	-0.003	2.0	GoodResponse	0	0.109	n/a	-1	34	ButtonPress	AvoidedLoss	True
332.08	0.54	Lose2	0.6570999999999999	n/a	Yes	2.634	n/a	n/a	GoodResponse	0	n/a	n/a	-1	34	Blank	AvoidedLoss	True
332.615	1.45	Lose2	0.6570999999999999	n/a	Yes	2.634	n/a	5.0	GoodResponse	0	0.043	331.658	-1	34	Feedback	AvoidedLoss	True
334.069	2.634	Lose2	0.6570999999999999	n/a	Yes	2.634	n/a	n/a	GoodResponse	0	0.0	n/a	-1	34	ISIslide	AvoidedLoss	True
336.727	0.25	Lose2	0.6389	0.0	No	2.673	0.027	n/a	NoResponse	-1	n/a	n/a	-2	35	Cue	Loss	True
336.978	4.0	Lose2	0.6389	0.0	No	2.673	0.001	n/a	NoResponse	-1	n/a	n/a	-2	35	Fixation	Loss	True
340.973	0.16	Lose2	0.6389	0.004	No	2.673	-0.004	2.0	NoResponse	-1	0.175	340.148	-2	35	Target	Loss	True
341.14	0.54	Lose2	0.6389	n/a	No	2.673	n/a	n/a	NoResponse	-1	n/a	n/a	-2	35	Blank	Loss	True
341.148	0.3	Lose2	0.6389	0.004	No	2.673	-0.004	2.0	NoResponse	-1	0.175	n/a	-2	35	ButtonPress	Loss	True
341.675	1.45	Lose2	0.6389	n/a	No	2.673	n/a	5.0	NoResponse	-1	0.008	340.683	-2	35	Feedback	Loss	True
343.13	2.673	Lose2	0.6389	n/a	No	2.673	n/a	n/a	NoResponse	-1	0.0	n/a	-2	35	ISIslide	Loss	True
345.821	0.25	Control	0.6486	0.0	Yes	2.679	0.021	n/a	GoodResponse	0	n/a	n/a	-2	36	Cue	Neutral	True
346.072	4.0	Control	0.6486	0.0	Yes	2.679	0.001	n/a	GoodResponse	0	n/a	n/a	-2	36	Fixation	Neutral	True
350.067	0.17	Control	0.6486	0.004	Yes	2.679	-0.004	2.0	GoodResponse	0	0.168	349.235	-2	36	Target	Neutral	True
350.235	0.3	Control	0.6486	0.004	Yes	2.679	-0.004	2.0	GoodResponse	0	0.168	n/a	-2	36	ButtonPress	Neutral	True
350.251	0.53	Control	0.6486	n/a	Yes	2.679	n/a	n/a	GoodResponse	0	n/a	n/a	-2	36	Blank	Neutral	True
350.769	1.45	Control	0.6486	n/a	Yes	2.679	n/a	5.0	GoodResponse	0	0.035	349.804	-2	36	Feedback	Neutral	True
352.223	2.679	Control	0.6486	n/a	Yes	2.679	n/a	n/a	GoodResponse	0	0.0	n/a	-2	36	ISIslide	Neutral	True
354.932	0.25	Win2	0.6579	0.0	Yes	2.868	0.032	n/a	GoodResponse	1	n/a	n/a	-1	37	Cue	Win	True
355.182	4.0	Win2	0.6579	0.0	Yes	2.868	0.0	n/a	GoodResponse	1	n/a	n/a	-1	37	Fixation	Win	True
359.178	0.18	Win2	0.6579	0.004	Yes	2.868	-0.004	2.0	GoodResponse	1	0.166	358.344	-1	37	Target	Win	True
359.344	0.3	Win2	0.6579	0.004	Yes	2.868	-0.004	2.0	GoodResponse	1	0.166	n/a	-1	37	ButtonPress	Win	True
359.362	0.52	Win2	0.6579	n/a	Yes	2.868	n/a	n/a	GoodResponse	1	n/a	n/a	-1	37	Blank	Win	True
359.88	1.45	Win2	0.6579	n/a	Yes	2.868	n/a	5.0	GoodResponse	1	0.046	358.926	-1	37	Feedback	Win	True
361.334	2.868	Win2	0.6579	n/a	Yes	2.868	n/a	n/a	GoodResponse	1	0.0	n/a	-1	37	ISIslide	Win	True
364.226	0.25	Lose2	0.6409999999999999	0.0	No	2.824	0.026	n/a	NoResponse	-1	n/a	n/a	-2	38	Cue	Loss	True
364.477	3.95	Lose2	0.6409999999999999	0.0	No	2.824	0.001	n/a	NoResponse	-1	n/a	n/a	-2	38	Fixation	Loss	True
368.422	0.18	Lose2	0.6409999999999999	0.004	No	2.824	-0.004	2.0	NoResponse	-1	0.205	367.627	-2	38	Target	Loss	True
368.606	0.52	Lose2	0.6409999999999999	n/a	No	2.824	n/a	n/a	NoResponse	-1	n/a	n/a	-2	38	Blank	Loss	True
368.627	0.3	Lose2	0.6409999999999999	0.004	No	2.824	-0.004	2.0	NoResponse	-1	0.205	n/a	-2	38	ButtonPress	Loss	True
369.124	1.45	Lose2	0.6409999999999999	n/a	No	2.824	n/a	5.0	NoResponse	-1	0.021	368.145	-2	38	Feedback	Loss	True
370.579	2.824	Lose2	0.6409999999999999	n/a	No	2.824	n/a	n/a	NoResponse	-1	0.0	n/a	-2	38	ISIslide	Loss	True
373.42	0.25	Win2	0.625	0.0	No	2.98	0.02	n/a	NoResponse	0	n/a	n/a	-2	39	Cue	MissedWin	True
373.671	4.1	Win2	0.625	0.0	No	2.98	0.001	n/a	NoResponse	0	n/a	n/a	-2	39	Fixation	MissedWin	True
377.767	0.19	Win2	0.625	0.003	No	2.98	-0.003	2.0	NoResponse	0	0.21	376.977	-2	39	Target	MissedWin	True
377.967	0.51	Win2	0.625	n/a	No	2.98	n/a	n/a	NoResponse	0	n/a	n/a	-2	39	Blank	MissedWin	True
377.977	0.3	Win2	0.625	0.003	No	2.98	-0.003	2.0	NoResponse	0	0.21	n/a	-2	39	ButtonPress	MissedWin	True
378.469	1.45	Win2	0.625	n/a	No	2.98	n/a	5.0	NoResponse	0	0.042	377.511	-2	39	Feedback	MissedWin	True
379.923	2.98	Win2	0.625	n/a	No	2.98	n/a	n/a	NoResponse	0	0.0	n/a	-2	39	ISIslide	MissedWin	True
382.916	0.25	Win2	0.6341	0.0	Yes	2.734	0.016	n/a	GoodResponse	1	n/a	n/a	-1	40	Cue	Win	True
383.166	3.95	Win2	0.6341	0.0	Yes	2.734	0.0	n/a	GoodResponse	1	n/a	n/a	-1	40	Fixation	Win	True
387.128	0.2	Win2	0.6341	0.0	Yes	2.734	0.012	2.0	GoodResponse	1	0.177	386.305	-1	40	Target	Win	True
387.305	0.3	Win2	0.6341	0.0	Yes	2.734	0.012	2.0	GoodResponse	1	0.177	n/a	-1	40	ButtonPress	Win	True
387.312	0.5	Win2	0.6341	n/a	Yes	2.734	n/a	n/a	GoodResponse	1	n/a	n/a	-1	40	Blank	Win	True
387.814	1.45	Win2	0.6341	n/a	Yes	2.734	n/a	5.0	GoodResponse	1	0.015	386.829	-1	40	Feedback	Win	True
389.268	2.734	Win2	0.6341	n/a	Yes	2.734	n/a	n/a	GoodResponse	1	0.0	n/a	-1	40	ISIslide	Win	True
392.026	0.25	Win2	0.6429	0.0	Yes	2.774	0.026	n/a	GoodResponse	1	n/a	n/a	0	41	Cue	Win	True
392.277	3.9	Win2	0.6429	0.0	Yes	2.774	0.001	n/a	GoodResponse	1	n/a	n/a	0	41	Fixation	Win	True
396.172	0.21	Win2	0.6429	0.004	Yes	2.774	-0.004	2.0	GoodResponse	1	0.178	395.35	0	41	Target	Win	True
396.35	0.3	Win2	0.6429	0.004	Yes	2.774	-0.004	2.0	GoodResponse	1	0.178	n/a	0	41	ButtonPress	Win	True
396.389	0.49	Win2	0.6429	n/a	Yes	2.774	n/a	n/a	GoodResponse	1	n/a	n/a	0	41	Blank	Win	True
396.874	1.45	Win2	0.6429	n/a	Yes	2.774	n/a	5.0	GoodResponse	1	0.028	395.902	0	41	Feedback	Win	True
398.328	2.774	Win2	0.6429	n/a	Yes	2.774	n/a	n/a	GoodResponse	1	0.0	n/a	0	41	ISIslide	Win	True
401.12	0.25	Control	0.6512	0.0	Yes	2.93	0.02	n/a	GoodResponse	0	n/a	n/a	0	42	Cue	Neutral	True
401.371	3.85	Control	0.6512	0.0	Yes	2.93	0.001	n/a	GoodResponse	0	n/a	n/a	0	42	Fixation	Neutral	True
405.216	0.22	Control	0.6512	0.004	Yes	2.93	-0.004	2.0	GoodResponse	0	0.162	404.378	0	42	Target	Neutral	True
405.378	0.3	Control	0.6512	0.004	Yes	2.93	-0.004	2.0	GoodResponse	0	0.162	n/a	0	42	ButtonPress	Neutral	True
405.45	0.48	Control	0.6512	n/a	Yes	2.93	n/a	n/a	GoodResponse	0	n/a	n/a	0	42	Blank	Neutral	True
405.918	1.45	Control	0.6512	n/a	Yes	2.93	n/a	5.0	GoodResponse	0	0.008	404.926	0	42	Feedback	Neutral	True
407.372	2.93	Control	0.6512	n/a	Yes	2.93	n/a	n/a	GoodResponse	0	0.0	n/a	0	42	ISIslide	Neutral	True
410.331	0.25	Win2	0.6591	0.0	Yes	3.169	0.031	n/a	GoodResponse	1	n/a	n/a	1	43	Cue	Win	True
410.582	4.0	Win2	0.6591	0.0	Yes	3.169	0.001	n/a	GoodResponse	1	n/a	n/a	1	43	Fixation	Win	True
414.577	0.23	Win2	0.6591	0.004	Yes	3.169	-0.004	2.0	GoodResponse	1	0.185	413.762	1	43	Target	Win	True
414.762	0.3	Win2	0.6591	0.004	Yes	3.169	-0.004	2.0	GoodResponse	1	0.185	n/a	1	43	ButtonPress	Win	True
414.811	0.47	Win2	0.6591	n/a	Yes	3.169	n/a	n/a	GoodResponse	1	n/a	n/a	1	43	Blank	Win	True
415.279	1.45	Win2	0.6591	n/a	Yes	3.169	n/a	5.0	GoodResponse	1	0.012	414.291	1	43	Feedback	Win	True
416.734	3.169	Win2	0.6591	n/a	Yes	3.169	n/a	n/a	GoodResponse	1	0.0	n/a	1	43	ISIslide	Win	True
419.927	0.25	Win2	0.6667000000000001	0.0	Yes	2.973	0.027	n/a	GoodResponse	1	n/a	n/a	2	44	Cue	Win	True
420.177	4.0	Win2	0.6667000000000001	0.0	Yes	2.973	0.0	n/a	GoodResponse	1	n/a	n/a	2	44	Fixation	Win	True
424.173	0.23	Win2	0.6667000000000001	0.004	Yes	2.973	-0.004	2.0	GoodResponse	1	0.173	423.346	2	44	Target	Win	True
424.346	0.3	Win2	0.6667000000000001	0.004	Yes	2.973	-0.004	2.0	GoodResponse	1	0.173	n/a	2	44	ButtonPress	Win	True
424.407	0.47	Win2	0.6667000000000001	n/a	Yes	2.973	n/a	n/a	GoodResponse	1	n/a	n/a	2	44	Blank	Win	True
424.875	1.45	Win2	0.6667000000000001	n/a	Yes	2.973	n/a	5.0	GoodResponse	1	0.026	423.901	2	44	Feedback	Win	True
426.329	2.973	Win2	0.6667000000000001	n/a	Yes	2.973	n/a	n/a	GoodResponse	1	0.0	n/a	2	44	ISIslide	Win	True
429.321	0.25	Control	0.6739	0.0	Yes	2.879	0.021	n/a	GoodResponse	0	n/a	n/a	2	45	Cue	Neutral	True
429.572	4.1	Control	0.6739	0.0	Yes	2.879	0.001	n/a	GoodResponse	0	n/a	n/a	2	45	Fixation	Neutral	True
433.668	0.22	Control	0.6739	0.003	Yes	2.879	-0.003	2.0	GoodResponse	0	0.172	432.84	2	45	Target	Neutral	True
433.84	0.3	Control	0.6739	0.003	Yes	2.879	-0.003	2.0	GoodResponse	0	0.172	n/a	2	45	ButtonPress	Neutral	True
433.902	0.48	Control	0.6739	n/a	Yes	2.879	n/a	n/a	GoodResponse	0	n/a	n/a	2	45	Blank	Neutral	True
434.37	1.45	Control	0.6739	n/a	Yes	2.879	n/a	5.0	GoodResponse	0	0.043	433.413	2	45	Feedback	Neutral	True
435.824	2.879	Control	0.6739	n/a	Yes	2.879	n/a	n/a	GoodResponse	0	0.0	n/a	2	45	ISIslide	Neutral	True
438.716	0.25	Lose2	0.6809000000000001	0.0	Yes	3.384	0.016	n/a	GoodResponse	0	n/a	n/a	2	46	Cue	AvoidedLoss	True
438.967	4.0	Lose2	0.6809000000000001	0.0	Yes	3.384	0.001	n/a	GoodResponse	0	n/a	n/a	2	46	Fixation	AvoidedLoss	True
442.962	0.21	Lose2	0.6809000000000001	0.004	Yes	3.384	-0.004	2.0	GoodResponse	0	0.198	442.16	2	46	Target	AvoidedLoss	True
443.16	0.3	Lose2	0.6809000000000001	0.004	Yes	3.384	-0.004	2.0	GoodResponse	0	0.198	n/a	2	46	ButtonPress	AvoidedLoss	True
443.18	0.49	Lose2	0.6809000000000001	n/a	Yes	3.384	n/a	n/a	GoodResponse	0	n/a	n/a	2	46	Blank	AvoidedLoss	True
443.664	1.45	Lose2	0.6809000000000001	n/a	Yes	3.384	n/a	5.0	GoodResponse	0	0.018	442.682	2	46	Feedback	AvoidedLoss	True
445.119	3.384	Lose2	0.6809000000000001	n/a	Yes	3.384	n/a	n/a	GoodResponse	0	0.0	n/a	2	46	ISIslide	AvoidedLoss	True
448.529	0.25	Lose2	0.6667000000000001	0.0	No	2.671	0.029	n/a	LatePress	-1	n/a	n/a	1	47	Cue	Loss	True
448.78	4.0	Lose2	0.6667000000000001	0.0	No	2.671	0.001	n/a	LatePress	-1	n/a	n/a	1	47	Fixation	Loss	True
452.775	0.2	Lose2	0.6667000000000001	0.004	No	2.671	-0.004	2.0	LatePress	-1	0.203	451.978	1	47	Target	Loss	True
452.976	0.5	Lose2	0.6667000000000001	n/a	No	2.671	n/a	n/a	LatePress	-1	n/a	n/a	1	47	Blank	Loss	True
452.978	0.3	Lose2	0.6667000000000001	0.004	No	2.671	-0.004	2.0	LatePress	-1	0.203	n/a	1	47	ButtonPress	Loss	True
453.477	1.45	Lose2	0.6667000000000001	n/a	No	2.671	n/a	5.0	LatePress	-1	0.01	452.487	1	47	Feedback	Loss	True
454.932	2.671	Lose2	0.6667000000000001	n/a	No	2.671	n/a	n/a	LatePress	-1	0.0	n/a	1	47	ISIslide	Loss	True
457.623	0.25	Lose2	0.6531	0.0	No	3.027	0.023	n/a	NoResponse	-1	n/a	n/a	0	48	Cue	Loss	True
457.874	3.95	Lose2	0.6531	0.0	No	3.027	0.001	n/a	NoResponse	-1	n/a	n/a	0	48	Fixation	Loss	True
461.819	0.19	Lose2	0.6531	0.004	No	3.027	-0.004	2.0	NoResponse	-1	0.209	461.028	0	48	Target	Loss	True
462.019	0.51	Lose2	0.6531	n/a	No	3.027	n/a	n/a	NoResponse	-1	n/a	n/a	0	48	Blank	Loss	True
462.028	0.3	Lose2	0.6531	0.004	No	3.027	-0.004	2.0	NoResponse	-1	0.209	n/a	0	48	ButtonPress	Loss	True
462.521	1.45	Lose2	0.6531	n/a	No	3.027	n/a	5.0	NoResponse	-1	0.039	461.56	0	48	Feedback	Loss	True
463.975	3.027	Lose2	0.6531	n/a	No	3.027	n/a	n/a	NoResponse	-1	0.0	n/a	0	48	ISIslide	Loss	True
467.018	0.25	Control	0.66	0.0	Yes	2.882	0.018	n/a	GoodResponse	0	n/a	n/a	0	49	Cue	Neutral	True
467.269	4.0	Control	0.66	0.0	Yes	2.882	0.001	n/a	GoodResponse	0	n/a	n/a	0	49	Fixation	Neutral	True
471.264	0.2	Control	0.66	0.004	Yes	2.882	-0.004	2.0	GoodResponse	0	0.177	470.441	0	49	Target	Neutral	True
471.441	0.3	Control	0.66	0.004	Yes	2.882	-0.004	2.0	GoodResponse	0	0.177	n/a	0	49	ButtonPress	Neutral	True
471.464	0.5	Control	0.66	n/a	Yes	2.882	n/a	n/a	GoodResponse	0	n/a	n/a	0	49	Blank	Neutral	True
471.966	1.45	Control	0.66	n/a	Yes	2.882	n/a	5.0	GoodResponse	0	0.009	470.975	0	49	Feedback	Neutral	True
473.42	2.882	Control	0.66	n/a	Yes	2.882	n/a	n/a	GoodResponse	0	0.0	n/a	0	49	ISIslide	Neutral	True
476.329	0.25	Control	0.6667000000000001	0.0	Yes	2.771	0.029	n/a	GoodResponse	0	n/a	n/a	0	50	Cue	Neutral	True
476.58	4.0	Control	0.6667000000000001	0.0	Yes	2.771	0.001	n/a	GoodResponse	0	n/a	n/a	0	50	Fixation	Neutral	True
480.575	0.2	Control	0.6667000000000001	0.004	Yes	2.771	-0.004	2.0	GoodResponse	0	0.154	479.729	0	50	Target	Neutral	True
480.729	0.3	Control	0.6667000000000001	0.004	Yes	2.771	-0.004	2.0	GoodResponse	0	0.154	n/a	0	50	ButtonPress	Neutral	True
480.776	0.5	Control	0.6667000000000001	n/a	Yes	2.771	n/a	n/a	GoodResponse	0	n/a	n/a	0	50	Blank	Neutral	True
481.277	1.45	Control	0.6667000000000001	n/a	Yes	2.771	n/a	5.0	GoodResponse	0	0.015	480.292	0	50	Feedback	Neutral	True
482.732	2.771	Control	0.6667000000000001	n/a	Yes	2.771	n/a	n/a	GoodResponse	0	0.0	n/a	0	50	ISIslide	Neutral	True
485.523	0.25	Control	0.6731	0.0	Yes	2.727	0.023	n/a	GoodResponse	0	n/a	n/a	0	51	Cue	Neutral	True
485.774	3.95	Control	0.6731	0.0	Yes	2.727	0.001	n/a	GoodResponse	0	n/a	n/a	0	51	Fixation	Neutral	True
489.719	0.19	Control	0.6731	0.004	Yes	2.727	-0.004	2.0	GoodResponse	0	0.158	488.877	0	51	Target	Neutral	True
489.877	0.3	Control	0.6731	0.004	Yes	2.727	-0.004	2.0	GoodResponse	0	0.158	n/a	0	51	ButtonPress	Neutral	True
489.92	0.51	Control	0.6731	n/a	Yes	2.727	n/a	n/a	GoodResponse	0	n/a	n/a	0	51	Blank	Neutral	True
490.421	1.45	Control	0.6731	n/a	Yes	2.727	n/a	5.0	GoodResponse	0	0.041	489.462	0	51	Feedback	Neutral	True
491.876	2.727	Control	0.6731	n/a	Yes	2.727	n/a	n/a	GoodResponse	0	0.0	n/a	0	51	ISIslide	Neutral	True
494.617	0.25	Control	0.6604000000000001	0.0	No	2.633	0.017	n/a	NoResponse	0	n/a	n/a	0	52	Cue	Neutral	False
494.868	4.05	Control	0.6604000000000001	0.0	No	2.633	0.001	2.0	NoResponse	0	3.727	497.595	0	52	Fixation	Neutral	False
498.595	0.3	Control	0.6604000000000001	0.0	No	2.633	0.001	2.0	NoResponse	0	3.727	n/a	0	52	ButtonPress	Neutral	False
498.914	0.18	Control	0.6604000000000001	0.003	No	2.633	-0.003	2.0	NoResponse	0	0.201	498.115	0	52	Target	Neutral	False
499.097	0.52	Control	0.6604000000000001	n/a	No	2.633	n/a	n/a	NoResponse	0	n/a	n/a	0	52	Blank	Neutral	False
499.115	0.3	Control	0.6604000000000001	0.003	No	2.633	-0.003	2.0	NoResponse	0	0.201	n/a	0	52	ButtonPress	Neutral	False
499.616	1.45	Control	0.6604000000000001	n/a	No	2.633	n/a	5.0	NoResponse	0	0.017	498.633	0	52	Feedback	Neutral	False
501.07	2.633	Control	0.6604000000000001	n/a	No	2.633	n/a	n/a	NoResponse	0	0.0	n/a	0	52	ISIslide	Neutral	False
503.728	0.25	Win2	0.6667000000000001	0.0	Yes	2.922	0.028	n/a	GoodResponse	1	n/a	n/a	1	53	Cue	Win	True
503.979	4.05	Win2	0.6667000000000001	0.0	Yes	2.922	0.001	n/a	GoodResponse	1	n/a	n/a	1	53	Fixation	Win	True
508.024	0.18	Win2	0.6667000000000001	0.004	Yes	2.922	-0.004	2.0	GoodResponse	1	0.172	507.196	1	53	Target	Win	True
508.196	0.3	Win2	0.6667000000000001	0.004	Yes	2.922	-0.004	2.0	GoodResponse	1	0.172	n/a	1	53	ButtonPress	Win	True
508.208	0.52	Win2	0.6667000000000001	n/a	Yes	2.922	n/a	n/a	GoodResponse	1	n/a	n/a	1	53	Blank	Win	True
508.726	1.45	Win2	0.6667000000000001	n/a	Yes	2.922	n/a	5.0	GoodResponse	1	0.029	507.755	1	53	Feedback	Win	True
510.181	2.922	Win2	0.6667000000000001	n/a	Yes	2.922	n/a	n/a	GoodResponse	1	0.0	n/a	1	53	ISIslide	Win	True
513.123	0.25	Win2	0.6545000000000001	0.0	No	2.727	0.023	n/a	NoResponse	0	n/a	n/a	1	54	Cue	MissedWin	True
513.374	3.95	Win2	0.6545000000000001	0.0	No	2.727	0.001	n/a	NoResponse	0	n/a	n/a	1	54	Fixation	MissedWin	True
517.319	0.17	Win2	0.6545000000000001	0.004	No	2.727	-0.004	2.0	NoResponse	0	0.191	516.51	1	54	Target	MissedWin	True
517.503	0.53	Win2	0.6545000000000001	n/a	No	2.727	n/a	n/a	NoResponse	0	n/a	n/a	1	54	Blank	MissedWin	True
517.51	0.3	Win2	0.6545000000000001	0.004	No	2.727	-0.004	2.0	NoResponse	0	0.191	n/a	1	54	ButtonPress	MissedWin	True
518.021	1.45	Win2	0.6545000000000001	n/a	No	2.727	n/a	5.0	NoResponse	0	0.002	517.023	1	54	Feedback	MissedWin	True
519.475	2.727	Win2	0.6545000000000001	n/a	No	2.727	n/a	n/a	NoResponse	0	0.0	n/a	1	54	ISIslide	MissedWin	True
522.217	0.25	Control	0.6607	0.0	Yes	3.033	0.017	n/a	GoodResponse	0	n/a	n/a	1	55	Cue	Neutral	True
522.467	3.95	Control	0.6607	0.001	Yes	3.033	0.0	n/a	GoodResponse	0	n/a	n/a	1	55	Fixation	Neutral	True
526.413	0.18	Control	0.6607	0.004	Yes	3.033	-0.004	2.0	GoodResponse	0	0.176	525.589	1	55	Target	Neutral	True
526.589	0.3	Control	0.6607	0.004	Yes	3.033	-0.004	2.0	GoodResponse	0	0.176	n/a	1	55	ButtonPress	Neutral	True
526.597	0.52	Control	0.6607	n/a	Yes	3.033	n/a	n/a	GoodResponse	0	n/a	n/a	1	55	Blank	Neutral	True
527.115	1.45	Control	0.6607	n/a	Yes	3.033	n/a	5.0	GoodResponse	0	0.03	526.145	1	55	Feedback	Neutral	True
528.569	3.033	Control	0.6607	n/a	Yes	3.033	n/a	n/a	GoodResponse	0	0.0	n/a	1	55	ISIslide	Neutral	True
531.628	0.25	Control	0.6667000000000001	0.0	Yes	2.822	0.028	n/a	GoodResponse	0	n/a	n/a	1	56	Cue	Neutral	True
531.879	3.95	Control	0.6667000000000001	0.0	Yes	2.822	0.001	n/a	GoodResponse	0	n/a	n/a	1	56	Fixation	Neutral	True
535.824	0.18	Control	0.6667000000000001	0.004	Yes	2.822	-0.004	2.0	GoodResponse	0	0.172	534.996	1	56	Target	Neutral	True
535.996	0.3	Control	0.6667000000000001	0.004	Yes	2.822	-0.004	2.0	GoodResponse	0	0.172	n/a	1	56	ButtonPress	Neutral	True
536.008	0.52	Control	0.6667000000000001	n/a	Yes	2.822	n/a	n/a	GoodResponse	0	n/a	n/a	1	56	Blank	Neutral	True
536.526	1.45	Control	0.6667000000000001	n/a	Yes	2.822	n/a	5.0	GoodResponse	0	0.034	535.56	1	56	Feedback	Neutral	True
537.981	2.822	Control	0.6667000000000001	n/a	Yes	2.822	n/a	n/a	GoodResponse	0	0.0	n/a	1	56	ISIslide	Neutral	True
540.823	0.25	Control	0.6724	0.0	Yes	3.477	0.023	n/a	GoodResponse	0	n/a	n/a	1	57	Cue	Neutral	True
541.073	4.0	Control	0.6724	0.0	Yes	3.477	0.0	n/a	GoodResponse	0	n/a	n/a	1	57	Fixation	Neutral	True
545.069	0.17	Control	0.6724	0.004	Yes	3.477	-0.004	2.0	GoodResponse	0	0.158	544.227	1	57	Target	Neutral	True
545.227	0.3	Control	0.6724	0.004	Yes	3.477	-0.004	2.0	GoodResponse	0	0.158	n/a	1	57	ButtonPress	Neutral	True
545.253	0.53	Control	0.6724	n/a	Yes	3.477	n/a	n/a	GoodResponse	0	n/a	n/a	1	57	Blank	Neutral	True
545.771	1.45	Control	0.6724	n/a	Yes	3.477	n/a	5.0	GoodResponse	0	0.009	544.78	1	57	Feedback	Neutral	True
547.225	3.477	Control	0.6724	n/a	Yes	3.477	n/a	n/a	GoodResponse	0	0.0	n/a	1	57	ISIslide	Neutral	True
550.719	0.25	Win2	0.6609999999999999	0.0	No	2.731	0.019	n/a	LatePress	0	n/a	n/a	1	58	Cue	MissedWin	True
550.97	4.05	Win2	0.6609999999999999	0.0	No	2.731	0.001	n/a	LatePress	0	n/a	n/a	1	58	Fixation	MissedWin	True
555.015	0.16	Win2	0.6609999999999999	0.004	No	2.731	-0.004	2.0	LatePress	0	0.161	554.176	1	58	Target	MissedWin	True
555.176	0.3	Win2	0.6609999999999999	0.004	No	2.731	-0.004	2.0	LatePress	0	0.161	n/a	1	58	ButtonPress	MissedWin	True
555.182	0.54	Win2	0.6609999999999999	n/a	No	2.731	n/a	n/a	LatePress	0	n/a	n/a	1	58	Blank	MissedWin	True
555.717	1.45	Win2	0.6609999999999999	n/a	No	2.731	n/a	5.0	LatePress	0	0.014	554.731	1	58	Feedback	MissedWin	True
557.172	2.731	Win2	0.6609999999999999	n/a	No	2.731	n/a	n/a	LatePress	0	0.0	n/a	1	58	ISIslide	MissedWin	True
559.93	0.25	Lose2	0.65	0.0	No	2.67	0.03	n/a	NoResponse	-1	n/a	n/a	0	59	Cue	Loss	True
560.181	4.0	Lose2	0.65	0.0	No	2.67	0.001	n/a	NoResponse	-1	n/a	n/a	0	59	Fixation	Loss	True
564.176	0.16	Lose2	0.65	0.004	No	2.67	-0.004	2.0	NoResponse	-1	0.174	563.35	0	59	Target	Loss	True
564.343	0.54	Lose2	0.65	n/a	No	2.67	n/a	n/a	NoResponse	-1	n/a	n/a	0	59	Blank	Loss	True
564.35	0.3	Lose2	0.65	0.004	No	2.67	-0.004	2.0	NoResponse	-1	0.174	n/a	0	59	ButtonPress	Loss	True
564.878	1.45	Lose2	0.65	n/a	No	2.67	n/a	5.0	NoResponse	-1	0.023	563.901	0	59	Feedback	Loss	True
566.332	2.67	Lose2	0.65	n/a	No	2.67	n/a	n/a	NoResponse	-1	0.0	n/a	0	59	ISIslide	Loss	True
569.024	0.25	Control	0.6393	0.0	No	2.676	0.024	n/a	LatePress	0	n/a	n/a	0	60	Cue	Neutral	True
569.275	4.0	Control	0.6393	0.0	No	2.676	0.001	n/a	LatePress	0	n/a	n/a	0	60	Fixation	Neutral	True
573.27	0.17	Control	0.6393	0.004	No	2.676	-0.004	2.0	LatePress	0	0.177	572.447	0	60	Target	Neutral	True
573.447	0.3	Control	0.6393	0.004	No	2.676	-0.004	2.0	LatePress	0	0.177	n/a	0	60	ButtonPress	Neutral	True
573.454	0.53	Control	0.6393	n/a	No	2.676	n/a	n/a	LatePress	0	n/a	n/a	0	60	Blank	Neutral	True
573.972	1.45	Control	0.6393	n/a	No	2.676	n/a	5.0	LatePress	0	0.008	572.98	0	60	Feedback	Neutral	True
575.426	2.676	Control	0.6393	n/a	No	2.676	n/a	n/a	LatePress	0	0.0	n/a	0	60	ISIslide	Neutral	True
578.118	0.25	Lose2	0.6452	0.0	Yes	2.982	0.018	n/a	GoodResponse	0	n/a	n/a	0	61	Cue	AvoidedLoss	True
578.369	4.0	Lose2	0.6452	0.0	Yes	2.982	0.001	n/a	GoodResponse	0	n/a	n/a	0	61	Fixation	AvoidedLoss	True
582.364	0.18	Lose2	0.6452	0.004	Yes	2.982	-0.004	2.0	GoodResponse	0	0.172	581.536	0	61	Target	AvoidedLoss	True
582.536	0.3	Lose2	0.6452	0.004	Yes	2.982	-0.004	2.0	GoodResponse	0	0.172	n/a	0	61	ButtonPress	AvoidedLoss	True
582.548	0.52	Lose2	0.6452	n/a	Yes	2.982	n/a	n/a	GoodResponse	0	n/a	n/a	0	61	Blank	AvoidedLoss	True
583.066	1.45	Lose2	0.6452	n/a	Yes	2.982	n/a	5.0	GoodResponse	0	0.03	582.096	0	61	Feedback	AvoidedLoss	True
584.52	2.982	Lose2	0.6452	n/a	Yes	2.982	n/a	n/a	GoodResponse	0	0.0	n/a	0	61	ISIslide	AvoidedLoss	True
587.529	0.25	Lose2	0.6507999999999999	0.0	Yes	2.871	0.029	n/a	GoodResponse	0	n/a	n/a	0	62	Cue	AvoidedLoss	True
587.78	3.9	Lose2	0.6507999999999999	0.0	Yes	2.871	0.001	n/a	GoodResponse	0	n/a	n/a	0	62	Fixation	AvoidedLoss	True
591.675	0.19	Lose2	0.6507999999999999	0.004	Yes	2.871	-0.004	2.0	GoodResponse	0	0.178	590.853	0	62	Target	AvoidedLoss	True
591.853	0.3	Lose2	0.6507999999999999	0.004	Yes	2.871	-0.004	2.0	GoodResponse	0	0.178	n/a	0	62	ButtonPress	AvoidedLoss	True
591.876	0.51	Lose2	0.6507999999999999	n/a	Yes	2.871	n/a	n/a	GoodResponse	0	n/a	n/a	0	62	Blank	AvoidedLoss	True
592.377	1.45	Lose2	0.6507999999999999	n/a	Yes	2.871	n/a	5.0	GoodResponse	0	0.036	591.413	0	62	Feedback	AvoidedLoss	True
593.832	2.871	Lose2	0.6507999999999999	n/a	Yes	2.871	n/a	n/a	GoodResponse	0	0.0	n/a	0	62	ISIslide	AvoidedLoss	True
596.724	0.25	Lose2	0.6562	0.0	Yes	2.626	0.024	n/a	GoodResponse	0	n/a	n/a	0	63	Cue	AvoidedLoss	False
596.974	4.05	Lose2	0.6562	0.0	Yes	2.626	0.0	2.0	GoodResponse	0	3.874	599.848	0	63	Fixation	AvoidedLoss	False
600.848	0.3	Lose2	0.6562	0.0	Yes	2.626	0.0	2.0	GoodResponse	0	3.874	n/a	0	63	ButtonPress	AvoidedLoss	False
601.02	0.2	Lose2	0.6562	0.004	Yes	2.626	-0.004	2.0	GoodResponse	0	0.156	600.176	0	63	Target	AvoidedLoss	False
601.176	0.3	Lose2	0.6562	0.004	Yes	2.626	-0.004	2.0	GoodResponse	0	0.156	n/a	0	63	ButtonPress	AvoidedLoss	False
601.22	0.5	Lose2	0.6562	n/a	Yes	2.626	n/a	n/a	GoodResponse	0	n/a	n/a	0	63	Blank	AvoidedLoss	False
601.722	1.45	Lose2	0.6562	n/a	Yes	2.626	n/a	5.0	GoodResponse	0	0.008	600.73	0	63	Feedback	AvoidedLoss	False
603.176	2.626	Lose2	0.6562	n/a	Yes	2.626	n/a	n/a	GoodResponse	0	0.0	n/a	0	63	ISIslide	AvoidedLoss	False
605.818	0.25	Win2	0.6615000000000001	0.0	Yes	3.132	0.018	n/a	GoodResponse	1	n/a	n/a	1	64	Cue	Win	True
606.068	4.15	Win2	0.6615000000000001	0.0	Yes	3.132	0.0	n/a	GoodResponse	1	n/a	n/a	1	64	Fixation	Win	True
610.214	0.2	Win2	0.6615000000000001	0.004	Yes	3.132	-0.004	2.0	GoodResponse	1	0.16	609.374	1	64	Target	Win	True
610.374	0.3	Win2	0.6615000000000001	0.004	Yes	3.132	-0.004	2.0	GoodResponse	1	0.16	n/a	1	64	ButtonPress	Win	True
610.415	0.5	Win2	0.6615000000000001	n/a	Yes	3.132	n/a	n/a	GoodResponse	1	n/a	n/a	1	64	Blank	Win	True
610.916	1.45	Win2	0.6615000000000001	n/a	Yes	3.132	n/a	5.0	GoodResponse	1	0.034	609.95	1	64	Feedback	Win	True
612.371	3.132	Win2	0.6615000000000001	n/a	Yes	3.132	n/a	n/a	GoodResponse	1	0.0	n/a	1	64	ISIslide	Win	True
615.53	0.25	Control	0.6667000000000001	0.0	Yes	2.77	0.03	n/a	GoodResponse	0	n/a	n/a	1	65	Cue	Neutral	True
615.781	4.0	Control	0.6667000000000001	0.0	Yes	2.77	0.001	n/a	GoodResponse	0	n/a	n/a	1	65	Fixation	Neutral	True
619.776	0.2	Control	0.6667000000000001	0.004	Yes	2.77	-0.004	2.0	GoodResponse	0	0.166	618.942	1	65	Target	Neutral	True
619.942	0.3	Control	0.6667000000000001	0.004	Yes	2.77	-0.004	2.0	GoodResponse	0	0.166	n/a	1	65	ButtonPress	Neutral	True
619.977	0.5	Control	0.6667000000000001	n/a	Yes	2.77	n/a	n/a	GoodResponse	0	n/a	n/a	1	65	Blank	Neutral	True
620.478	1.45	Control	0.6667000000000001	n/a	Yes	2.77	n/a	5.0	GoodResponse	0	0.033	619.511	1	65	Feedback	Neutral	True
621.933	2.77	Control	0.6667000000000001	n/a	Yes	2.77	n/a	n/a	GoodResponse	0	0.0	n/a	1	65	ISIslide	Neutral	True
624.724	0.25	Win2	0.6716	0.0	Yes	2.776	0.024	n/a	GoodResponse	1	n/a	n/a	2	66	Cue	Win	True
624.975	3.9	Win2	0.6716	0.0	Yes	2.776	0.001	n/a	GoodResponse	1	n/a	n/a	2	66	Fixation	Win	True
628.87	0.19	Win2	0.6716	0.004	Yes	2.776	-0.004	2.0	GoodResponse	1	0.184	628.054	2	66	Target	Win	True
629.054	0.3	Win2	0.6716	0.004	Yes	2.776	-0.004	2.0	GoodResponse	1	0.184	n/a	2	66	ButtonPress	Win	True
629.071	0.51	Win2	0.6716	n/a	Yes	2.776	n/a	n/a	GoodResponse	1	n/a	n/a	2	66	Blank	Win	True
629.572	1.45	Win2	0.6716	n/a	Yes	2.776	n/a	5.0	GoodResponse	1	0.012	628.584	2	66	Feedback	Win	True
631.026	2.776	Win2	0.6716	n/a	Yes	2.776	n/a	n/a	GoodResponse	1	0.0	n/a	2	66	ISIslide	Win	True
633.818	0.25	Control	0.6765000000000001	0.0	Yes	2.732	0.018	n/a	GoodResponse	0	n/a	n/a	2	67	Cue	Neutral	True
634.069	3.95	Control	0.6765000000000001	0.0	Yes	2.732	0.001	n/a	GoodResponse	0	n/a	n/a	2	67	Fixation	Neutral	True
638.014	0.18	Control	0.6765000000000001	0.004	Yes	2.732	-0.004	2.0	GoodResponse	0	0.174	637.188	2	67	Target	Neutral	True
638.188	0.3	Control	0.6765000000000001	0.004	Yes	2.732	-0.004	2.0	GoodResponse	0	0.174	n/a	2	67	ButtonPress	Neutral	True
638.198	0.52	Control	0.6765000000000001	n/a	Yes	2.732	n/a	n/a	GoodResponse	0	n/a	n/a	2	67	Blank	Neutral	True
638.716	1.45	Control	0.6765000000000001	n/a	Yes	2.732	n/a	5.0	GoodResponse	0	0.038	637.754	2	67	Feedback	Neutral	True
640.171	2.732	Control	0.6765000000000001	n/a	Yes	2.732	n/a	n/a	GoodResponse	0	0.0	n/a	2	67	ISIslide	Neutral	True
642.929	0.25	Win2	0.6667000000000001	0.0	No	3.071	0.029	n/a	LatePress	0	n/a	n/a	2	68	Cue	MissedWin	True
643.18	4.0	Win2	0.6667000000000001	0.0	No	3.071	0.001	n/a	LatePress	0	n/a	n/a	2	68	Fixation	MissedWin	True
647.175	0.17	Win2	0.6667000000000001	0.004	No	3.071	-0.004	2.0	LatePress	0	0.18	646.355	2	68	Target	MissedWin	True
647.355	0.3	Win2	0.6667000000000001	0.004	No	3.071	-0.004	2.0	LatePress	0	0.18	n/a	2	68	ButtonPress	MissedWin	True
647.359	0.53	Win2	0.6667000000000001	n/a	No	3.071	n/a	n/a	LatePress	0	n/a	n/a	2	68	Blank	MissedWin	True
647.877	1.45	Win2	0.6667000000000001	n/a	No	3.071	n/a	5.0	LatePress	0	0.048	646.925	2	68	Feedback	MissedWin	True
649.331	3.071	Win2	0.6667000000000001	n/a	No	3.071	n/a	n/a	LatePress	0	0.0	n/a	2	68	ISIslide	MissedWin	True
652.424	0.25	Win2	0.6570999999999999	0.0	No	3.226	0.024	n/a	NoResponse	0	n/a	n/a	2	69	Cue	MissedWin	True
652.675	3.95	Win2	0.6570999999999999	0.0	No	3.226	0.001	n/a	NoResponse	0	n/a	n/a	2	69	Fixation	MissedWin	True
656.62	0.16	Win2	0.6570999999999999	0.004	No	3.226	-0.004	2.0	NoResponse	0	0.177	655.797	2	69	Target	MissedWin	True
656.787	0.54	Win2	0.6570999999999999	n/a	No	3.226	n/a	n/a	NoResponse	0	n/a	n/a	2	69	Blank	MissedWin	True
656.797	0.3	Win2	0.6570999999999999	0.004	No	3.226	-0.004	2.0	NoResponse	0	0.177	n/a	2	69	ButtonPress	MissedWin	True
657.322	1.45	Win2	0.6570999999999999	n/a	No	3.226	n/a	5.0	NoResponse	0	0.018	656.34	2	69	Feedback	MissedWin	True
658.776	3.226	Win2	0.6570999999999999	n/a	No	3.226	n/a	n/a	NoResponse	0	0.0	n/a	2	69	ISIslide	MissedWin	True
662.019	0.25	Lose2	0.6479	0.001	No	3.031	0.019	n/a	NoResponse	-1	n/a	n/a	1	70	Cue	Loss	True
662.27	4.05	Lose2	0.6479	0.0	No	3.031	0.001	n/a	NoResponse	-1	n/a	n/a	1	70	Fixation	Loss	True
666.316	0.16	Lose2	0.6479	0.003	No	3.031	-0.003	2.0	NoResponse	-1	0.281	665.597	1	70	Target	Loss	True
666.483	0.54	Lose2	0.6479	n/a	No	3.031	n/a	n/a	NoResponse	-1	n/a	n/a	1	70	Blank	Loss	True
666.597	0.3	Lose2	0.6479	0.003	No	3.031	-0.003	2.0	NoResponse	-1	0.281	n/a	1	70	ButtonPress	Loss	True
667.018	1.45	Lose2	0.6479	n/a	No	3.031	n/a	5.0	NoResponse	-1	0.029	666.047	1	70	Feedback	Loss	True
668.472	3.031	Lose2	0.6479	n/a	No	3.031	n/a	n/a	NoResponse	-1	0.0	n/a	1	70	ISIslide	Loss	True
671.531	0.25	Win2	0.6389	0.0	No	2.719	0.031	n/a	NoResponse	0	n/a	n/a	1	71	Cue	MissedWin	True
671.782	4.05	Win2	0.6389	0.0	No	2.719	0.001	2.0	NoResponse	0	3.975	674.757	1	71	Fixation	MissedWin	True
675.757	0.3	Win2	0.6389	0.0	No	2.719	0.001	2.0	NoResponse	0	3.975	n/a	1	71	ButtonPress	MissedWin	True
675.828	0.17	Win2	0.6389	0.003	No	2.719	-0.003	n/a	NoResponse	0	n/a	n/a	1	71	Target	MissedWin	True
676.011	0.53	Win2	0.6389	n/a	No	2.719	n/a	n/a	NoResponse	0	n/a	n/a	1	71	Blank	MissedWin	True
676.53	1.45	Win2	0.6389	n/a	No	2.719	n/a	5.0	NoResponse	0	0.03	675.56	1	71	Feedback	MissedWin	True
677.984	2.719	Win2	0.6389	n/a	No	2.719	n/a	n/a	NoResponse	0	0.0	n/a	1	71	ISIslide	MissedWin	True
680.726	0.25	Win2	0.6437999999999999	0.0	Yes	2.774	0.026	n/a	GoodResponse	1	n/a	n/a	2	72	Cue	Win	True
680.976	4.1	Win2	0.6437999999999999	0.0	Yes	2.774	0.0	n/a	GoodResponse	1	n/a	n/a	2	72	Fixation	Win	True
685.072	0.18	Win2	0.6437999999999999	0.004	Yes	2.774	-0.004	2.0	GoodResponse	1	0.173	684.245	2	72	Target	Win	True
685.245	0.3	Win2	0.6437999999999999	0.004	Yes	2.774	-0.004	2.0	GoodResponse	1	0.173	n/a	2	72	ButtonPress	Win	True
685.256	0.52	Win2	0.6437999999999999	n/a	Yes	2.774	n/a	n/a	GoodResponse	1	n/a	n/a	2	72	Blank	Win	True
685.774	1.45	Win2	0.6437999999999999	n/a	Yes	2.774	n/a	5.0	GoodResponse	1	0.007	684.781	2	72	Feedback	Win	True
687.228	2.774	Win2	0.6437999999999999	n/a	Yes	2.774	n/a	n/a	GoodResponse	1	0.0	n/a	2	72	ISIslide	Win	True
690.02	0.25	Win2	0.6486	0.0	Yes	2.68	0.02	n/a	GoodResponse	1	n/a	n/a	3	73	Cue	Win	True
690.271	4.0	Win2	0.6486	0.0	Yes	2.68	0.001	n/a	GoodResponse	1	n/a	n/a	3	73	Fixation	Win	True
694.266	0.19	Win2	0.6486	0.004	Yes	2.68	-0.004	2.0	GoodResponse	1	0.181	693.447	3	73	Target	Win	True
694.447	0.3	Win2	0.6486	0.004	Yes	2.68	-0.004	2.0	GoodResponse	1	0.181	n/a	3	73	ButtonPress	Win	True
694.467	0.51	Win2	0.6486	n/a	Yes	2.68	n/a	n/a	GoodResponse	1	n/a	n/a	3	73	Blank	Win	True
694.968	1.45	Win2	0.6486	n/a	Yes	2.68	n/a	5.0	GoodResponse	1	0.031	693.999	3	73	Feedback	Win	True
696.423	2.68	Win2	0.6486	n/a	Yes	2.68	n/a	n/a	GoodResponse	1	0.0	n/a	3	73	ISIslide	Win	True
699.131	0.25	Lose2	0.64	0.0	No	2.619	0.031	n/a	NoResponse	-1	n/a	n/a	2	74	Cue	Loss	True
699.382	4.05	Lose2	0.64	0.0	No	2.619	0.001	n/a	NoResponse	-1	n/a	n/a	2	74	Fixation	Loss	True
703.427	0.2	Lose2	0.64	0.004	No	2.619	-0.004	2.0	NoResponse	-1	0.212	702.639	2	74	Target	Loss	True
703.628	0.5	Lose2	0.64	n/a	No	2.619	n/a	n/a	NoResponse	-1	n/a	n/a	2	74	Blank	Loss	True
703.639	0.3	Lose2	0.64	0.004	No	2.619	-0.004	2.0	NoResponse	-1	0.212	n/a	2	74	ButtonPress	Loss	True
704.129	1.45	Lose2	0.64	n/a	No	2.619	n/a	5.0	NoResponse	-1	0.041	703.17	2	74	Feedback	Loss	True
705.583	2.619	Lose2	0.64	n/a	No	2.619	n/a	n/a	NoResponse	-1	0.0	n/a	2	74	ISIslide	Loss	True
708.225	0.25	Lose2	0.6446999999999999	0.0	Yes	2.925	0.025	n/a	GoodResponse	0	n/a	n/a	2	75	Cue	AvoidedLoss	True
708.475	3.95	Lose2	0.6446999999999999	0.001	Yes	2.925	0.0	n/a	GoodResponse	0	n/a	n/a	2	75	Fixation	AvoidedLoss	True
712.421	0.21	Lose2	0.6446999999999999	0.004	Yes	2.925	-0.004	2.0	GoodResponse	0	0.189	711.61	2	75	Target	AvoidedLoss	True
712.61	0.3	Lose2	0.6446999999999999	0.004	Yes	2.925	-0.004	2.0	GoodResponse	0	0.189	n/a	2	75	ButtonPress	AvoidedLoss	True
712.638	0.49	Lose2	0.6446999999999999	n/a	Yes	2.925	n/a	n/a	GoodResponse	0	n/a	n/a	2	75	Blank	AvoidedLoss	True
713.123	1.45	Lose2	0.6446999999999999	n/a	Yes	2.925	n/a	5.0	GoodResponse	0	0.022	712.145	2	75	Feedback	AvoidedLoss	True
714.577	2.925	Lose2	0.6446999999999999	n/a	Yes	2.925	n/a	n/a	GoodResponse	0	0.0	n/a	2	75	ISIslide	AvoidedLoss	True
717.519	0.25	Control	0.6494	0.0	Yes	3.231	0.019	n/a	GoodResponse	0	n/a	n/a	2	76	Cue	Neutral	True
717.77	4.05	Control	0.6494	0.0	Yes	3.231	0.001	n/a	GoodResponse	0	n/a	n/a	2	76	Fixation	Neutral	True
721.816	0.22	Control	0.6494	0.003	Yes	3.231	-0.003	2.0	GoodResponse	0	0.167	720.983	2	76	Target	Neutral	True
721.983	0.3	Control	0.6494	0.003	Yes	3.231	-0.003	2.0	GoodResponse	0	0.167	n/a	2	76	ButtonPress	Neutral	True
722.05	0.48	Control	0.6494	n/a	Yes	3.231	n/a	n/a	GoodResponse	0	n/a	n/a	2	76	Blank	Neutral	True
722.518	1.45	Control	0.6494	n/a	Yes	3.231	n/a	5.0	GoodResponse	0	0.041	721.559	2	76	Feedback	Neutral	True
723.972	3.231	Control	0.6494	n/a	Yes	3.231	n/a	n/a	GoodResponse	0	0.0	n/a	2	76	ISIslide	Neutral	True
727.215	0.25	Lose2	0.6409999999999999	0.0	No	2.585	0.015	n/a	NoResponse	-1	n/a	n/a	1	77	Cue	Loss	True
727.466	3.95	Lose2	0.6409999999999999	0.0	No	2.585	0.001	2.0	NoResponse	-1	3.875	730.341	1	77	Fixation	Loss	True
731.341	0.3	Lose2	0.6409999999999999	0.0	No	2.585	0.001	2.0	NoResponse	-1	3.875	n/a	1	77	ButtonPress	Loss	True
731.411	0.23	Lose2	0.6409999999999999	0.004	No	2.585	-0.004	n/a	NoResponse	-1	n/a	n/a	1	77	Target	Loss	True
731.645	0.47	Lose2	0.6409999999999999	n/a	No	2.585	n/a	n/a	NoResponse	-1	n/a	n/a	1	77	Blank	Loss	True
732.113	1.45	Lose2	0.6409999999999999	n/a	No	2.585	n/a	5.0	NoResponse	-1	0.008	731.121	1	77	Feedback	Loss	True
733.567	2.585	Lose2	0.6409999999999999	n/a	No	2.585	n/a	n/a	NoResponse	-1	0.0	n/a	1	77	ISIslide	Loss	True
