onset	duration	cue_type	current_mean_accuracy	duration_error	is_hit	isi_adjusted	onset_delay	response	response_type	reward	rt	rt_time	total_reward	trial_number	trial_phase	trial_type	one_press
11.104	0.25	Control	1.0	0.0	Yes	2.946	0.004	n/a	GoodResponse	0	n/a	n/a	0	0	Cue	Neutral	False
11.355	3.85	Control	1.0	0.0	Yes	2.946	0.001	3.0	GoodResponse	0	0.187	10.542	0	0	Fixation	Neutral	False
11.542	0.3	Control	1.0	0.0	Yes	2.946	0.001	3.0	GoodResponse	0	0.187	n/a	0	0	ButtonPress	Neutral	False
15.2	0.4	Control	1.0	0.004	Yes	2.946	-0.004	3.0	GoodResponse	0	0.206	14.406	0	0	Target	Neutral	False
15.406	0.3	Control	1.0	0.004	Yes	2.946	-0.004	3.0	GoodResponse	0	0.206	n/a	0	0	ButtonPress	Neutral	False
15.601	0.3	Control	1.0	n/a	Yes	2.946	n/a	n/a	GoodResponse	0	n/a	n/a	0	0	Blank	Neutral	False
15.902	1.45	Control	1.0	n/a	Yes	2.946	n/a	5.0	GoodResponse	0	0.025	14.927	0	0	Feedback	Neutral	False
17.356	2.946	Control	1.0	n/a	Yes	2.946	n/a	n/a	GoodResponse	0	0.0	n/a	0	0	ISIslide	Neutral	False
20.315	0.25	Lose2	1.0	0.0	Yes	2.785	0.015	n/a	GoodResponse	0	n/a	n/a	0	1	Cue	AvoidedLoss	True
20.566	4.0	Lose2	1.0	0.0	Yes	2.785	0.001	n/a	GoodResponse	0	n/a	n/a	0	1	Fixation	AvoidedLoss	True
24.561	0.39	Lose2	1.0	0.004	Yes	2.785	-0.004	3.0	GoodResponse	0	0.22	23.781	0	1	Target	AvoidedLoss	True
24.781	0.3	Lose2	1.0	0.004	Yes	2.785	-0.004	3.0	GoodResponse	0	0.22	n/a	0	1	ButtonPress	AvoidedLoss	True
24.962	0.31	Lose2	1.0	n/a	Yes	2.785	n/a	n/a	GoodResponse	0	n/a	n/a	0	1	Blank	AvoidedLoss	True
25.263	1.45	Lose2	1.0	n/a	Yes	2.785	n/a	5.0	GoodResponse	0	0.03	24.293	0	1	Feedback	AvoidedLoss	True
26.718	2.785	Lose2	1.0	n/a	Yes	2.785	n/a	n/a	GoodResponse	0	0.0	n/a	0	1	ISIslide	AvoidedLoss	True
29.526	0.25	Control	1.0	0.0	Yes	2.574	0.026	n/a	GoodResponse	0	n/a	n/a	0	2	Cue	Neutral	True
29.777	4.1	Control	1.0	0.0	Yes	2.574	0.001	n/a	GoodResponse	0	n/a	n/a	0	2	Fixation	Neutral	True
33.872	0.38	Control	1.0	0.004	Yes	2.574	-0.004	3.0	GoodResponse	0	0.198	33.07	0	2	Target	Neutral	True
34.07	0.3	Control	1.0	0.004	Yes	2.574	-0.004	3.0	GoodResponse	0	0.198	n/a	0	2	ButtonPress	Neutral	True
34.257	0.32	Control	1.0	n/a	Yes	2.574	n/a	n/a	GoodResponse	0	n/a	n/a	0	2	Blank	Neutral	True
34.574	1.45	Control	1.0	n/a	Yes	2.574	n/a	5.0	GoodResponse	0	0.035	33.609	0	2	Feedback	Neutral	True
36.029	2.574	Control	1.0	n/a	Yes	2.574	n/a	n/a	GoodResponse	0	0.0	n/a	0	2	ISIslide	Neutral	True
38.62	0.25	Win2	1.0	0.0	Yes	2.83	0.02	n/a	GoodResponse	1	n/a	n/a	1	3	Cue	Win	True
38.871	3.95	Win2	1.0	0.0	Yes	2.83	0.001	n/a	GoodResponse	1	n/a	n/a	1	3	Fixation	Win	True
42.833	0.37	Win2	1.0	0.0	Yes	2.83	0.013	3.0	GoodResponse	1	0.221	42.054	1	3	Target	Win	True
43.054	0.3	Win2	1.0	0.0	Yes	2.83	0.013	3.0	GoodResponse	1	0.221	n/a	1	3	ButtonPress	Win	True
43.2	0.33	Win2	1.0	n/a	Yes	2.83	n/a	n/a	GoodResponse	1	n/a	n/a	1	3	Blank	Win	True
43.518	1.45	Win2	1.0	n/a	Yes	2.83	n/a	5.0	GoodResponse	1	0.018	42.536	1	3	Feedback	Win	True
44.972	2.83	Win2	1.0	n/a	Yes	2.83	n/a	n/a	GoodResponse	1	0.0	n/a	1	3	ISIslide	Win	True
47.831	0.25	Win2	0.8	0.0	No	3.269	0.031	n/a	NoResponse	0	n/a	n/a	1	4	Cue	MissedWin	False
48.082	4.0	Win2	0.8	0.0	No	3.269	0.001	n/a	NoResponse	0	n/a	n/a	1	4	Fixation	MissedWin	False
52.077	0.36	Win2	0.8	0.004	No	3.269	-0.004	n/a	NoResponse	0	n/a	n/a	1	4	Target	MissedWin	False
52.445	0.34	Win2	0.8	n/a	No	3.269	n/a	n/a	NoResponse	0	n/a	n/a	1	4	Blank	MissedWin	False
52.779	1.45	Win2	0.8	n/a	No	3.269	n/a	5.0	NoResponse	0	0.025	51.804	1	4	Feedback	MissedWin	False
54.233	3.269	Win2	0.8	n/a	No	3.269	n/a	n/a	NoResponse	0	0.0	n/a	1	4	ISIslide	MissedWin	False
57.529	0.25	Win2	0.6667000000000001	0.0	No	2.771	0.029	n/a	NoResponse	0	n/a	n/a	1	5	Cue	MissedWin	True
57.777	4.0	Win2	0.6667000000000001	0.002	No	2.771	-0.002	3.0	NoResponse	0	2.527	59.304	1	5	Fixation	MissedWin	True
60.304	0.3	Win2	0.6667000000000001	0.002	No	2.771	-0.002	3.0	NoResponse	0	2.527	n/a	1	5	ButtonPress	MissedWin	True
61.789	0.35	Win2	0.6667000000000001	0.0	No	2.771	0.01	n/a	NoResponse	0	n/a	n/a	1	5	Target	MissedWin	True
62.14	0.35	Win2	0.6667000000000001	n/a	No	2.771	n/a	n/a	NoResponse	0	n/a	n/a	1	5	Blank	MissedWin	True
62.475	1.45	Win2	0.6667000000000001	n/a	No	2.771	n/a	5.0	NoResponse	0	0.036	61.511	1	5	Feedback	MissedWin	True
63.929	2.771	Win2	0.6667000000000001	n/a	No	2.771	n/a	n/a	NoResponse	0	0.0	n/a	1	5	ISIslide	MissedWin	True
66.721	0.25	Lose2	0.7143	0.0	Yes	2.729	0.021	n/a	GoodResponse	0	n/a	n/a	1	6	Cue	AvoidedLoss	True
66.971	3.95	Lose2	0.7143	0.001	Yes	2.729	0.0	n/a	GoodResponse	0	n/a	n/a	1	6	Fixation	AvoidedLoss	True
70.917	0.34	Lose2	0.7143	0.004	Yes	2.729	-0.004	3.0	GoodResponse	0	0.231	70.148	1	6	Target	AvoidedLoss	True
71.148	0.3	Lose2	0.7143	0.004	Yes	2.729	-0.004	3.0	GoodResponse	0	0.231	n/a	1	6	ButtonPress	AvoidedLoss	True
71.268	0.36	Lose2	0.7143	n/a	Yes	2.729	n/a	n/a	GoodResponse	0	n/a	n/a	1	6	Blank	AvoidedLoss	True
71.619	1.45	Lose2	0.7143	n/a	Yes	2.729	n/a	5.0	GoodResponse	0	0.014	70.633	1	6	Feedback	AvoidedLoss	True
73.073	2.729	Lose2	0.7143	n/a	Yes	2.729	n/a	n/a	GoodResponse	0	0.0	n/a	1	6	ISIslide	AvoidedLoss	True
75.831	0.25	Lose2	0.75	0.0	Yes	4.019	0.031	n/a	GoodResponse	0	n/a	n/a	1	7	Cue	AvoidedLoss	False
76.082	4.05	Lose2	0.75	0.0	Yes	4.019	0.001	3.0	GoodResponse	0	2.9	77.982	1	7	Fixation	AvoidedLoss	False
78.982	0.3	Lose2	0.75	0.0	Yes	4.019	0.001	3.0	GoodResponse	0	2.9	n/a	1	7	ButtonPress	AvoidedLoss	False
80.128	0.33	Lose2	0.75	0.003	Yes	4.019	-0.003	3.0	GoodResponse	0	0.192	79.32	1	7	Target	AvoidedLoss	False
80.32	0.3	Lose2	0.75	0.003	Yes	4.019	-0.003	3.0	GoodResponse	0	0.192	n/a	1	7	ButtonPress	AvoidedLoss	False
80.462	0.37	Lose2	0.75	n/a	Yes	4.019	n/a	n/a	GoodResponse	0	n/a	n/a	1	7	Blank	AvoidedLoss	False
80.83	1.45	Lose2	0.75	n/a	Yes	4.019	n/a	5.0	GoodResponse	0	0.022	79.852	1	7	Feedback	AvoidedLoss	False
82.284	4.019	Lose2	0.75	n/a	Yes	4.019	n/a	n/a	GoodResponse	0	0.0	n/a	1	7	ISIslide	AvoidedLoss	False
86.329	0.25	Lose2	0.7778	0.001	Yes	3.021	0.029	n/a	GoodResponse	0	n/a	n/a	1	8	Cue	AvoidedLoss	False
86.58	3.95	Lose2	0.7778	0.0	Yes	3.021	0.001	3.0	GoodResponse	0	2.423	88.003	1	8	Fixation	AvoidedLoss	False
89.003	0.3	Lose2	0.7778	0.0	Yes	3.021	0.001	3.0	GoodResponse	0	2.423	n/a	1	8	ButtonPress	AvoidedLoss	False
90.525	0.32	Lose2	0.7778	0.004	Yes	3.021	-0.004	3.0	GoodResponse	0	0.22	89.745	1	8	Target	AvoidedLoss	False
90.745	0.3	Lose2	0.7778	0.004	Yes	3.021	-0.004	3.0	GoodResponse	0	0.22	n/a	1	8	ButtonPress	AvoidedLoss	False
90.86	0.38	Lose2	0.7778	n/a	Yes	3.021	n/a	n/a	GoodResponse	0	n/a	n/a	1	8	Blank	AvoidedLoss	False
91.228	1.45	Lose2	0.7778	n/a	Yes	3.021	n/a	5.0	GoodResponse	0	0.014	90.242	1	8	Feedback	AvoidedLoss	False
92.682	3.021	Lose2	0.7778	n/a	Yes	3.021	n/a	n/a	GoodResponse	0	0.0	n/a	1	8	ISIslide	AvoidedLoss	False
95.724	0.25	Lose2	0.7	0.0	No	3.126	0.024	n/a	NoResponse	-1	n/a	n/a	0	9	Cue	Loss	True
95.975	3.95	Lose2	0.7	0.0	No	3.126	0.001	n/a	NoResponse	-1	n/a	n/a	0	9	Fixation	Loss	True
99.92	0.31	Lose2	0.7	0.004	No	3.126	-0.004	3.0	NoResponse	-1	0.325	99.245	0	9	Target	Loss	True
100.238	0.39	Lose2	0.7	n/a	No	3.126	n/a	n/a	NoResponse	-1	n/a	n/a	0	9	Blank	Loss	True
100.245	0.3	Lose2	0.7	0.004	No	3.126	-0.004	3.0	NoResponse	-1	0.325	n/a	0	9	ButtonPress	Loss	True
100.622	1.45	Lose2	0.7	n/a	No	3.126	n/a	5.0	NoResponse	-1	0.035	99.657	0	9	Feedback	Loss	True
102.077	3.126	Lose2	0.7	n/a	No	3.126	n/a	n/a	NoResponse	-1	0.0	n/a	0	9	ISIslide	Loss	True
105.219	0.25	Control	0.6364	0.0	No	3.281	0.019	n/a	LatePress	0	n/a	n/a	0	10	Cue	Neutral	True
105.47	4.0	Control	0.6364	0.0	No	3.281	0.001	n/a	LatePress	0	n/a	n/a	0	10	Fixation	Neutral	True
109.465	0.3	Control	0.6364	0.004	No	3.281	-0.004	3.0	LatePress	0	0.303	108.768	0	10	Target	Neutral	True
109.766	0.4	Control	0.6364	n/a	No	3.281	n/a	n/a	LatePress	0	n/a	n/a	0	10	Blank	Neutral	True
109.768	0.3	Control	0.6364	0.004	No	3.281	-0.004	3.0	LatePress	0	0.303	n/a	0	10	ButtonPress	Neutral	True
110.167	1.45	Control	0.6364	n/a	No	3.281	n/a	5.0	LatePress	0	0.002	109.169	0	10	Feedback	Neutral	True
111.622	3.281	Control	0.6364	n/a	No	3.281	n/a	n/a	LatePress	0	0.0	n/a	0	10	ISIslide	Neutral	True
114.915	0.25	Lose2	0.6667000000000001	0.0	Yes	2.735	0.015	n/a	GoodResponse	0	n/a	n/a	0	11	Cue	AvoidedLoss	True
115.166	4.05	Lose2	0.6667000000000001	0.0	Yes	2.735	0.001	n/a	GoodResponse	0	n/a	n/a	0	11	Fixation	AvoidedLoss	True
119.211	0.31	Lose2	0.6667000000000001	0.004	Yes	2.735	-0.004	3.0	GoodResponse	0	0.309	118.52	0	11	Target	AvoidedLoss	True
119.52	0.3	Lose2	0.6667000000000001	0.004	Yes	2.735	-0.004	3.0	GoodResponse	0	0.309	n/a	0	11	ButtonPress	AvoidedLoss	True
119.529	0.39	Lose2	0.6667000000000001	n/a	Yes	2.735	n/a	n/a	GoodResponse	0	n/a	n/a	0	11	Blank	AvoidedLoss	True
119.913	1.45	Lose2	0.6667000000000001	n/a	Yes	2.735	n/a	5.0	GoodResponse	0	0.013	118.926	0	11	Feedback	AvoidedLoss	True
121.368	2.735	Lose2	0.6667000000000001	n/a	Yes	2.735	n/a	n/a	GoodResponse	0	0.0	n/a	0	11	ISIslide	AvoidedLoss	True
124.126	0.25	Control	0.6923	0.0	Yes	2.974	0.026	n/a	GoodResponse	0	n/a	n/a	0	12	Cue	Neutral	True
124.377	3.9	Control	0.6923	0.0	Yes	2.974	0.001	n/a	GoodResponse	0	n/a	n/a	0	12	Fixation	Neutral	True
128.272	0.3	Control	0.6923	0.004	Yes	2.974	-0.004	3.0	GoodResponse	0	0.24	127.512	0	12	Target	Neutral	True
128.512	0.3	Control	0.6923	0.004	Yes	2.974	-0.004	3.0	GoodResponse	0	0.24	n/a	0	12	ButtonPress	Neutral	True
128.573	0.4	Control	0.6923	n/a	Yes	2.974	n/a	n/a	GoodResponse	0	n/a	n/a	0	12	Blank	Neutral	True
128.974	1.45	Control	0.6923	n/a	Yes	2.974	n/a	5.0	GoodResponse	0	0.025	127.999	0	12	Feedback	Neutral	True
130.428	2.974	Control	0.6923	n/a	Yes	2.974	n/a	n/a	GoodResponse	0	0.0	n/a	0	12	ISIslide	Neutral	True
133.42	0.25	Control	0.7143	0.0	Yes	2.78	0.02	n/a	GoodResponse	0	n/a	n/a	0	13	Cue	Neutral	True
133.671	4.0	Control	0.7143	0.0	Yes	2.78	0.001	n/a	GoodResponse	0	n/a	n/a	0	13	Fixation	Neutral	True
137.666	0.29	Control	0.7143	0.004	Yes	2.78	-0.004	3.0	GoodResponse	0	0.247	136.913	0	13	Target	Neutral	True
137.913	0.3	Control	0.7143	0.004	Yes	2.78	-0.004	3.0	GoodResponse	0	0.247	n/a	0	13	ButtonPress	Neutral	True
137.967	0.41	Control	0.7143	n/a	Yes	2.78	n/a	n/a	GoodResponse	0	n/a	n/a	0	13	Blank	Neutral	True
138.369	1.45	Control	0.7143	n/a	Yes	2.78	n/a	5.0	GoodResponse	0	0.045	137.414	0	13	Feedback	Neutral	True
139.823	2.78	Control	0.7143	n/a	Yes	2.78	n/a	n/a	GoodResponse	0	0.0	n/a	0	13	ISIslide	Neutral	True
142.631	0.25	Win2	0.7333	0.0	Yes	2.669	0.031	n/a	GoodResponse	1	n/a	n/a	1	14	Cue	Win	True
142.882	4.1	Win2	0.7333	0.0	Yes	2.669	0.001	n/a	GoodResponse	1	n/a	n/a	1	14	Fixation	Win	True
146.978	0.28	Win2	0.7333	0.003	Yes	2.669	-0.003	3.0	GoodResponse	1	0.258	146.236	1	14	Target	Win	True
147.236	0.3	Win2	0.7333	0.003	Yes	2.669	-0.003	3.0	GoodResponse	1	0.258	n/a	1	14	ButtonPress	Win	True
147.262	0.42	Win2	0.7333	n/a	Yes	2.669	n/a	n/a	GoodResponse	1	n/a	n/a	1	14	Blank	Win	True
147.68	1.45	Win2	0.7333	n/a	Yes	2.669	n/a	5.0	GoodResponse	1	0.001	146.681	1	14	Feedback	Win	True
149.134	2.669	Win2	0.7333	n/a	Yes	2.669	n/a	n/a	GoodResponse	1	0.0	n/a	1	14	ISIslide	Win	True
151.825	0.25	Control	0.75	0.001	Yes	2.975	0.025	n/a	GoodResponse	0	n/a	n/a	1	15	Cue	Neutral	True
152.076	4.0	Control	0.75	0.0	Yes	2.975	0.001	n/a	GoodResponse	0	n/a	n/a	1	15	Fixation	Neutral	True
156.072	0.27	Control	0.75	0.003	Yes	2.975	-0.003	3.0	GoodResponse	0	0.218	155.29	1	15	Target	Neutral	True
156.29	0.3	Control	0.75	0.003	Yes	2.975	-0.003	3.0	GoodResponse	0	0.218	n/a	1	15	ButtonPress	Neutral	True
156.356	0.43	Control	0.75	n/a	Yes	2.975	n/a	n/a	GoodResponse	0	n/a	n/a	1	15	Blank	Neutral	True
156.774	1.45	Control	0.75	n/a	Yes	2.975	n/a	5.0	GoodResponse	0	0.029	155.803	1	15	Feedback	Neutral	True
158.228	2.975	Control	0.75	n/a	Yes	2.975	n/a	n/a	GoodResponse	0	0.0	n/a	1	15	ISIslide	Neutral	True
161.22	0.25	Win2	0.7646999999999999	0.0	Yes	2.88	0.02	n/a	GoodResponse	1	n/a	n/a	2	16	Cue	Win	True
161.471	4.0	Win2	0.7646999999999999	0.0	Yes	2.88	0.001	n/a	GoodResponse	1	n/a	n/a	2	16	Fixation	Win	True
165.466	0.26	Win2	0.7646999999999999	0.004	Yes	2.88	-0.004	3.0	GoodResponse	1	0.201	164.667	2	16	Target	Win	True
165.667	0.3	Win2	0.7646999999999999	0.004	Yes	2.88	-0.004	3.0	GoodResponse	1	0.201	n/a	2	16	ButtonPress	Win	True
165.734	0.44	Win2	0.7646999999999999	n/a	Yes	2.88	n/a	n/a	GoodResponse	1	n/a	n/a	2	16	Blank	Win	True
166.168	1.45	Win2	0.7646999999999999	n/a	Yes	2.88	n/a	5.0	GoodResponse	1	0.001	165.169	2	16	Feedback	Win	True
167.623	2.88	Win2	0.7646999999999999	n/a	Yes	2.88	n/a	n/a	GoodResponse	1	0.0	n/a	2	16	ISIslide	Win	True
170.515	0.25	Lose2	0.7222	0.0	No	2.735	0.015	n/a	NoResponse	-1	n/a	n/a	1	17	Cue	Loss	True
170.765	3.95	Lose2	0.7222	0.001	No	2.735	0.0	n/a	NoResponse	-1	n/a	n/a	1	17	Fixation	Loss	True
174.711	0.25	Lose2	0.7222	0.004	No	2.735	-0.004	3.0	NoResponse	-1	0.277	173.988	1	17	Target	Loss	True
174.961	0.45	Lose2	0.7222	n/a	No	2.735	n/a	n/a	NoResponse	-1	n/a	n/a	1	17	Blank	Loss	True
174.988	0.3	Lose2	0.7222	0.004	No	2.735	-0.004	3.0	NoResponse	-1	0.277	n/a	1	17	ButtonPress	Loss	True
175.413	1.45	Lose2	0.7222	n/a	No	2.735	n/a	5.0	NoResponse	-1	0.024	174.437	1	17	Feedback	Loss	True
176.867	2.735	Lose2	0.7222	n/a	No	2.735	n/a	n/a	NoResponse	-1	0.0	n/a	1	17	ISIslide	Loss	True
179.625	0.25	Lose2	0.6842	0.0	No	2.725	0.025	n/a	NoResponse	-1	n/a	n/a	0	18	Cue	Loss	True
179.876	4.05	Lose2	0.6842	0.0	No	2.725	0.001	n/a	NoResponse	-1	n/a	n/a	0	18	Fixation	Loss	True
183.922	0.24	Lose2	0.6842	0.003	No	2.725	-0.003	3.0	NoResponse	-1	0.298	183.22	0	18	Target	Loss	True
184.172	0.46	Lose2	0.6842	n/a	No	2.725	n/a	n/a	NoResponse	-1	n/a	n/a	0	18	Blank	Loss	True
184.22	0.3	Lose2	0.6842	0.003	No	2.725	-0.003	3.0	NoResponse	-1	0.298	n/a	0	18	ButtonPress	Loss	True
184.624	1.45	Lose2	0.6842	n/a	No	2.725	n/a	5.0	NoResponse	-1	0.032	183.656	0	18	Feedback	Loss	True
186.078	2.725	Lose2	0.6842	n/a	No	2.725	n/a	n/a	NoResponse	-1	0.0	n/a	0	18	ISIslide	Loss	True
188.82	0.25	Control	0.65	0.0	No	2.93	0.02	n/a	NoResponse	0	n/a	n/a	0	19	Cue	Neutral	True
189.07	3.95	Control	0.65	0.0	No	2.93	0.0	n/a	NoResponse	0	n/a	n/a	0	19	Fixation	Neutral	True
193.032	0.23	Control	0.65	0.0	No	2.93	0.012	3.0	NoResponse	0	0.227	192.259	0	19	Target	Neutral	True
193.249	0.47	Control	0.65	n/a	No	2.93	n/a	n/a	NoResponse	0	n/a	n/a	0	19	Blank	Neutral	True
193.259	0.3	Control	0.65	0.0	No	2.93	0.012	3.0	NoResponse	0	0.227	n/a	0	19	ButtonPress	Neutral	True
193.718	1.45	Control	0.65	n/a	No	2.93	n/a	5.0	NoResponse	0	0.011	192.729	0	19	Feedback	Neutral	True
195.172	2.93	Control	0.65	n/a	No	2.93	n/a	n/a	NoResponse	0	0.0	n/a	0	19	ISIslide	Neutral	True
198.131	0.25	Control	0.619	0.0	No	2.619	0.031	n/a	NoResponse	0	n/a	n/a	0	20	Cue	Neutral	True
198.381	4.05	Control	0.619	0.001	No	2.619	0.0	n/a	NoResponse	0	n/a	n/a	0	20	Fixation	Neutral	True
202.427	0.24	Control	0.619	0.004	No	2.619	-0.004	3.0	NoResponse	0	0.283	201.71	0	20	Target	Neutral	True
202.678	0.46	Control	0.619	n/a	No	2.619	n/a	n/a	NoResponse	0	n/a	n/a	0	20	Blank	Neutral	True
202.71	0.3	Control	0.619	0.004	No	2.619	-0.004	3.0	NoResponse	0	0.283	n/a	0	20	ButtonPress	Neutral	True
203.129	1.45	Control	0.619	n/a	No	2.619	n/a	5.0	NoResponse	0	0.015	202.144	0	20	Feedback	Neutral	True
204.583	2.619	Control	0.619	n/a	No	2.619	n/a	n/a	NoResponse	0	0.0	n/a	0	20	ISIslide	Neutral	True
207.225	0.25	Control	0.6364	0.0	Yes	2.775	0.025	n/a	GoodResponse	0	n/a	n/a	0	21	Cue	Neutral	False
207.475	4.1	Control	0.6364	0.0	Yes	2.775	0.0	3.0	GoodResponse	0	3.806	210.281	0	21	Fixation	Neutral	False
211.281	0.3	Control	0.6364	0.0	Yes	2.775	0.0	3.0	GoodResponse	0	3.806	n/a	0	21	ButtonPress	Neutral	False
211.571	0.25	Control	0.6364	0.004	Yes	2.775	-0.004	3.0	GoodResponse	0	0.235	210.806	0	21	Target	Neutral	False
211.806	0.3	Control	0.6364	0.004	Yes	2.775	-0.004	3.0	GoodResponse	0	0.235	n/a	0	21	ButtonPress	Neutral	False
211.822	0.45	Control	0.6364	n/a	Yes	2.775	n/a	n/a	GoodResponse	0	n/a	n/a	0	21	Blank	Neutral	False
212.273	1.45	Control	0.6364	n/a	Yes	2.775	n/a	5.0	GoodResponse	0	0.042	211.315	0	21	Feedback	Neutral	False
213.727	2.775	Control	0.6364	n/a	Yes	2.775	n/a	n/a	GoodResponse	0	0.0	n/a	0	21	ISIslide	Neutral	False
216.519	0.25	Control	0.6522	0.0	Yes	2.781	0.019	n/a	GoodResponse	0	n/a	n/a	0	22	Cue	Neutral	True
216.77	4.0	Control	0.6522	0.0	Yes	2.781	0.001	n/a	GoodResponse	0	n/a	n/a	0	22	Fixation	Neutral	True
220.765	0.26	Control	0.6522	0.004	Yes	2.781	-0.004	3.0	GoodResponse	0	0.244	220.009	0	22	Target	Neutral	True
221.009	0.3	Control	0.6522	0.004	Yes	2.781	-0.004	3.0	GoodResponse	0	0.244	n/a	0	22	ButtonPress	Neutral	True
221.033	0.44	Control	0.6522	n/a	Yes	2.781	n/a	n/a	GoodResponse	0	n/a	n/a	0	22	Blank	Neutral	True
221.467	1.45	Control	0.6522	n/a	Yes	2.781	n/a	5.0	GoodResponse	0	0.019	220.486	0	22	Feedback	Neutral	True
222.922	2.781	Control	0.6522	n/a	Yes	2.781	n/a	n/a	GoodResponse	0	0.0	n/a	0	22	ISIslide	Neutral	True
225.73	0.25	Control	0.6667000000000001	0.0	Yes	2.77	0.03	n/a	GoodResponse	0	n/a	n/a	0	23	Cue	Neutral	True
225.981	3.9	Control	0.6667000000000001	0.0	Yes	2.77	0.001	n/a	GoodResponse	0	n/a	n/a	0	23	Fixation	Neutral	True
229.876	0.27	Control	0.6667000000000001	0.004	Yes	2.77	-0.004	3.0	GoodResponse	0	0.187	229.063	0	23	Target	Neutral	True
230.063	0.3	Control	0.6667000000000001	0.004	Yes	2.77	-0.004	3.0	GoodResponse	0	0.187	n/a	0	23	ButtonPress	Neutral	True
230.16	0.43	Control	0.6667000000000001	n/a	Yes	2.77	n/a	n/a	GoodResponse	0	n/a	n/a	0	23	Blank	Neutral	True
230.578	1.45	Control	0.6667000000000001	n/a	Yes	2.77	n/a	5.0	GoodResponse	0	0.029	229.607	0	23	Feedback	Neutral	True
232.032	2.77	Control	0.6667000000000001	n/a	Yes	2.77	n/a	n/a	GoodResponse	0	0.0	n/a	0	23	ISIslide	Neutral	True
234.824	0.25	Win2	0.68	0.0	Yes	3.126	0.024	n/a	GoodResponse	1	n/a	n/a	1	24	Cue	Win	True
235.075	3.95	Win2	0.68	0.0	Yes	3.126	0.001	n/a	GoodResponse	1	n/a	n/a	1	24	Fixation	Win	True
239.02	0.26	Win2	0.68	0.004	Yes	3.126	-0.004	3.0	GoodResponse	1	0.202	238.222	1	24	Target	Win	True
239.222	0.3	Win2	0.68	0.004	Yes	3.126	-0.004	3.0	GoodResponse	1	0.202	n/a	1	24	ButtonPress	Win	True
239.287	0.44	Win2	0.68	n/a	Yes	3.126	n/a	n/a	GoodResponse	1	n/a	n/a	1	24	Blank	Win	True
239.722	1.45	Win2	0.68	n/a	Yes	3.126	n/a	5.0	GoodResponse	1	0.007	238.729	1	24	Feedback	Win	True
241.176	3.126	Win2	0.68	n/a	Yes	3.126	n/a	n/a	GoodResponse	1	0.0	n/a	1	24	ISIslide	Win	True
244.319	0.25	Win2	0.6923	0.0	Yes	3.081	0.019	n/a	GoodResponse	1	n/a	n/a	2	25	Cue	Win	True
244.57	4.0	Win2	0.6923	0.0	Yes	3.081	0.001	n/a	GoodResponse	1	n/a	n/a	2	25	Fixation	Win	True
248.565	0.25	Win2	0.6923	0.004	Yes	3.081	-0.004	3.0	GoodResponse	1	0.231	247.796	2	25	Target	Win	True
248.796	0.3	Win2	0.6923	0.004	Yes	3.081	-0.004	3.0	GoodResponse	1	0.231	n/a	2	25	ButtonPress	Win	True
248.816	0.45	Win2	0.6923	n/a	Yes	3.081	n/a	n/a	GoodResponse	1	n/a	n/a	2	25	Blank	Win	True
249.267	1.45	Win2	0.6923	n/a	Yes	3.081	n/a	5.0	GoodResponse	1	0.023	248.29	2	25	Feedback	Win	True
250.721	3.081	Win2	0.6923	n/a	Yes	3.081	n/a	n/a	GoodResponse	1	0.0	n/a	2	25	ISIslide	Win	True
253.831	0.25	Win2	0.6667000000000001	0.0	No	2.919	0.031	n/a	NoResponse	0	n/a	n/a	2	26	Cue	MissedWin	True
254.082	3.95	Win2	0.6667000000000001	0.0	No	2.919	0.001	n/a	NoResponse	0	n/a	n/a	2	26	Fixation	MissedWin	True
258.027	0.24	Win2	0.6667000000000001	0.004	No	2.919	-0.004	3.0	NoResponse	0	0.501	257.528	2	26	Target	MissedWin	True
258.277	0.46	Win2	0.6667000000000001	n/a	No	2.919	n/a	n/a	NoResponse	0	n/a	n/a	2	26	Blank	MissedWin	True
258.528	0.3	Win2	0.6667000000000001	0.004	No	2.919	-0.004	3.0	NoResponse	0	0.501	n/a	2	26	ButtonPress	MissedWin	True
258.729	1.45	Win2	0.6667000000000001	n/a	No	2.919	n/a	5.0	NoResponse	0	0.024	257.753	2	26	Feedback	MissedWin	True
260.183	2.919	Win2	0.6667000000000001	n/a	No	2.919	n/a	n/a	NoResponse	0	0.0	n/a	2	26	ISIslide	MissedWin	True
263.125	0.25	Lose2	0.6786	0.0	Yes	2.825	0.025	n/a	GoodResponse	0	n/a	n/a	2	27	Cue	AvoidedLoss	True
263.376	4.05	Lose2	0.6786	0.0	Yes	2.825	0.001	n/a	GoodResponse	0	n/a	n/a	2	27	Fixation	AvoidedLoss	True
267.421	0.23	Lose2	0.6786	0.004	Yes	2.825	-0.004	3.0	GoodResponse	0	0.201	266.622	2	27	Target	AvoidedLoss	True
267.622	0.3	Lose2	0.6786	0.004	Yes	2.825	-0.004	3.0	GoodResponse	0	0.201	n/a	2	27	ButtonPress	AvoidedLoss	True
267.656	0.47	Lose2	0.6786	n/a	Yes	2.825	n/a	n/a	GoodResponse	0	n/a	n/a	2	27	Blank	AvoidedLoss	True
268.124	1.45	Lose2	0.6786	n/a	Yes	2.825	n/a	5.0	GoodResponse	0	0.044	267.168	2	27	Feedback	AvoidedLoss	True
269.578	2.825	Lose2	0.6786	n/a	Yes	2.825	n/a	n/a	GoodResponse	0	0.0	n/a	2	27	ISIslide	AvoidedLoss	True
272.42	0.25	Control	0.6552	0.0	No	2.83	0.02	n/a	NoResponse	0	n/a	n/a	2	28	Cue	Neutral	True
272.671	4.05	Control	0.6552	0.0	No	2.83	0.001	n/a	NoResponse	0	n/a	n/a	2	28	Fixation	Neutral	True
276.716	0.22	Control	0.6552	0.004	No	2.83	-0.004	3.0	NoResponse	0	0.287	276.003	2	28	Target	Neutral	True
276.95	0.48	Control	0.6552	n/a	No	2.83	n/a	n/a	NoResponse	0	n/a	n/a	2	28	Blank	Neutral	True
277.003	0.3	Control	0.6552	0.004	No	2.83	-0.004	3.0	NoResponse	0	0.287	n/a	2	28	ButtonPress	Neutral	True
277.418	1.45	Control	0.6552	n/a	No	2.83	n/a	5.0	NoResponse	0	0.019	276.437	2	28	Feedback	Neutral	True
278.872	2.83	Control	0.6552	n/a	No	2.83	n/a	n/a	NoResponse	0	0.0	n/a	2	28	ISIslide	Neutral	True
281.731	0.25	Lose2	0.6667000000000001	0.0	Yes	2.819	0.031	n/a	GoodResponse	0	n/a	n/a	2	29	Cue	AvoidedLoss	True
281.982	3.95	Lose2	0.6667000000000001	0.0	Yes	2.819	0.001	n/a	GoodResponse	0	n/a	n/a	2	29	Fixation	AvoidedLoss	True
285.927	0.22	Lose2	0.6667000000000001	0.004	Yes	2.819	-0.004	3.0	GoodResponse	0	0.183	285.11	2	29	Target	AvoidedLoss	True
286.11	0.3	Lose2	0.6667000000000001	0.004	Yes	2.819	-0.004	3.0	GoodResponse	0	0.183	n/a	2	29	ButtonPress	AvoidedLoss	True
286.161	0.48	Lose2	0.6667000000000001	n/a	Yes	2.819	n/a	n/a	GoodResponse	0	n/a	n/a	2	29	Blank	AvoidedLoss	True
286.629	1.45	Lose2	0.6667000000000001	n/a	Yes	2.819	n/a	5.0	GoodResponse	0	0.026	285.655	2	29	Feedback	AvoidedLoss	True
288.083	2.819	Lose2	0.6667000000000001	n/a	Yes	2.819	n/a	n/a	GoodResponse	0	0.0	n/a	2	29	ISIslide	AvoidedLoss	True
290.925	0.25	Win2	0.6452	0.0	No	2.775	0.025	n/a	NoResponse	0	n/a	n/a	2	30	Cue	MissedWin	True
291.176	3.9	Win2	0.6452	0.0	No	2.775	0.001	n/a	NoResponse	0	n/a	n/a	2	30	Fixation	MissedWin	True
295.071	0.21	Win2	0.6452	0.004	No	2.775	-0.004	3.0	NoResponse	0	0.406	294.477	2	30	Target	MissedWin	True
295.288	0.49	Win2	0.6452	n/a	No	2.775	n/a	n/a	NoResponse	0	n/a	n/a	2	30	Blank	MissedWin	True
295.477	0.3	Win2	0.6452	0.004	No	2.775	-0.004	3.0	NoResponse	0	0.406	n/a	2	30	ButtonPress	MissedWin	True
295.773	1.45	Win2	0.6452	n/a	No	2.775	n/a	5.0	NoResponse	0	0.008	294.781	2	30	Feedback	MissedWin	True
297.227	2.775	Win2	0.6452	n/a	No	2.775	n/a	n/a	NoResponse	0	0.0	n/a	2	30	ISIslide	MissedWin	True
300.019	0.25	Lose2	0.6562	0.0	Yes	2.831	0.019	n/a	GoodResponse	0	n/a	n/a	2	31	Cue	AvoidedLoss	True
300.27	4.05	Lose2	0.6562	0.0	Yes	2.831	0.001	n/a	GoodResponse	0	n/a	n/a	2	31	Fixation	AvoidedLoss	True
304.315	0.22	Lose2	0.6562	0.004	Yes	2.831	-0.004	3.0	GoodResponse	0	0.206	303.521	2	31	Target	AvoidedLoss	True
304.521	0.3	Lose2	0.6562	0.004	Yes	2.831	-0.004	3.0	GoodResponse	0	0.206	n/a	2	31	ButtonPress	AvoidedLoss	True
304.549	0.48	Lose2	0.6562	n/a	Yes	2.831	n/a	n/a	GoodResponse	0	n/a	n/a	2	31	Blank	AvoidedLoss	True
305.017	1.45	Lose2	0.6562	n/a	Yes	2.831	n/a	5.0	GoodResponse	0	0.029	304.046	2	31	Feedback	AvoidedLoss	True
306.472	2.831	Lose2	0.6562	n/a	Yes	2.831	n/a	n/a	GoodResponse	0	0.0	n/a	2	31	ISIslide	AvoidedLoss	True
309.33	0.25	Lose2	0.6667000000000001	0.0	Yes	2.62	0.03	n/a	GoodResponse	0	n/a	n/a	2	32	Cue	AvoidedLoss	False
309.581	4.15	Lose2	0.6667000000000001	0.0	Yes	2.62	0.001	3.0	GoodResponse	0	3.638	312.219	2	32	Fixation	AvoidedLoss	False
313.219	0.3	Lose2	0.6667000000000001	0.0	Yes	2.62	0.001	3.0	GoodResponse	0	3.638	n/a	2	32	ButtonPress	AvoidedLoss	False
313.727	0.22	Lose2	0.6667000000000001	0.003	Yes	2.62	-0.003	3.0	GoodResponse	0	0.174	312.901	2	32	Target	AvoidedLoss	False
313.901	0.3	Lose2	0.6667000000000001	0.003	Yes	2.62	-0.003	3.0	GoodResponse	0	0.174	n/a	2	32	ButtonPress	AvoidedLoss	False
313.961	0.48	Lose2	0.6667000000000001	n/a	Yes	2.62	n/a	n/a	GoodResponse	0	n/a	n/a	2	32	Blank	AvoidedLoss	False
314.429	1.45	Lose2	0.6667000000000001	n/a	Yes	2.62	n/a	5.0	GoodResponse	0	0.031	313.46	2	32	Feedback	AvoidedLoss	False
315.883	2.62	Lose2	0.6667000000000001	n/a	Yes	2.62	n/a	n/a	GoodResponse	0	0.0	n/a	2	32	ISIslide	AvoidedLoss	False
318.524	0.25	Win2	0.6470999999999999	0.001	No	2.676	0.024	n/a	NoResponse	0	n/a	n/a	2	33	Cue	MissedWin	True
318.775	4.0	Win2	0.6470999999999999	0.0	No	2.676	0.001	n/a	NoResponse	0	n/a	n/a	2	33	Fixation	MissedWin	True
322.77	0.21	Win2	0.6470999999999999	0.004	No	2.676	-0.004	3.0	NoResponse	0	0.287	322.057	2	33	Target	MissedWin	True
322.988	0.49	Win2	0.6470999999999999	n/a	No	2.676	n/a	n/a	NoResponse	0	n/a	n/a	2	33	Blank	MissedWin	True
323.057	0.3	Win2	0.6470999999999999	0.004	No	2.676	-0.004	3.0	NoResponse	0	0.287	n/a	2	33	ButtonPress	MissedWin	True
323.473	1.45	Win2	0.6470999999999999	n/a	No	2.676	n/a	5.0	NoResponse	0	0.012	322.485	2	33	Feedback	MissedWin	True
324.927	2.676	Win2	0.6470999999999999	n/a	No	2.676	n/a	n/a	NoResponse	0	0.0	n/a	2	33	ISIslide	MissedWin	True
327.618	0.25	Lose2	0.6570999999999999	0.0	Yes	2.632	0.018	n/a	GoodResponse	0	n/a	n/a	2	34	Cue	AvoidedLoss	True
327.869	4.05	Lose2	0.6570999999999999	0.0	Yes	2.632	0.001	n/a	GoodResponse	0	n/a	n/a	2	34	Fixation	AvoidedLoss	True
331.915	0.22	Lose2	0.6570999999999999	0.003	Yes	2.632	-0.003	3.0	GoodResponse	0	0.179	331.094	2	34	Target	AvoidedLoss	True
332.094	0.3	Lose2	0.6570999999999999	0.003	Yes	2.632	-0.003	3.0	GoodResponse	0	0.179	n/a	2	34	ButtonPress	AvoidedLoss	True
332.149	0.48	Lose2	0.6570999999999999	n/a	Yes	2.632	n/a	n/a	GoodResponse	0	n/a	n/a	2	34	Blank	AvoidedLoss	True
332.617	1.45	Lose2	0.6570999999999999	n/a	Yes	2.632	n/a	5.0	GoodResponse	0	0.038	331.655	2	34	Feedback	AvoidedLoss	True
334.071	2.632	Lose2	0.6570999999999999	n/a	Yes	2.632	n/a	n/a	GoodResponse	0	0.0	n/a	2	34	ISIslide	AvoidedLoss	True
336.729	0.25	Lose2	0.6667000000000001	0.0	Yes	2.671	0.029	n/a	GoodResponse	0	n/a	n/a	2	35	Cue	AvoidedLoss	True
336.98	4.0	Lose2	0.6667000000000001	0.0	Yes	2.671	0.001	n/a	GoodResponse	0	n/a	n/a	2	35	Fixation	AvoidedLoss	True
340.975	0.22	Lose2	0.6667000000000001	0.004	Yes	2.671	-0.004	3.0	GoodResponse	0	0.173	340.148	2	35	Target	AvoidedLoss	True
341.148	0.3	Lose2	0.6667000000000001	0.004	Yes	2.671	-0.004	3.0	GoodResponse	0	0.173	n/a	2	35	ButtonPress	AvoidedLoss	True
341.209	0.48	Lose2	0.6667000000000001	n/a	Yes	2.671	n/a	n/a	GoodResponse	0	n/a	n/a	2	35	Blank	AvoidedLoss	True
341.677	1.45	Lose2	0.6667000000000001	n/a	Yes	2.671	n/a	5.0	GoodResponse	0	0.008	340.685	2	35	Feedback	AvoidedLoss	True
343.131	2.671	Lose2	0.6667000000000001	n/a	Yes	2.671	n/a	n/a	GoodResponse	0	0.0	n/a	2	35	ISIslide	AvoidedLoss	True
345.823	0.25	Control	0.6757	0.0	Yes	2.677	0.023	n/a	GoodResponse	0	n/a	n/a	2	36	Cue	Neutral	True
346.074	4.0	Control	0.6757	0.0	Yes	2.677	0.001	n/a	GoodResponse	0	n/a	n/a	2	36	Fixation	Neutral	True
350.069	0.21	Control	0.6757	0.004	Yes	2.677	-0.004	3.0	GoodResponse	0	0.202	349.271	2	36	Target	Neutral	True
350.271	0.3	Control	0.6757	0.004	Yes	2.677	-0.004	3.0	GoodResponse	0	0.202	n/a	2	36	ButtonPress	Neutral	True
350.286	0.49	Control	0.6757	n/a	Yes	2.677	n/a	n/a	GoodResponse	0	n/a	n/a	2	36	Blank	Neutral	True
350.771	1.45	Control	0.6757	n/a	Yes	2.677	n/a	5.0	GoodResponse	0	0.03	349.801	2	36	Feedback	Neutral	True
352.225	2.677	Control	0.6757	n/a	Yes	2.677	n/a	n/a	GoodResponse	0	0.0	n/a	2	36	ISIslide	Neutral	True
354.917	0.25	Win2	0.6579	0.0	No	2.883	0.017	n/a	NoResponse	0	n/a	n/a	2	37	Cue	MissedWin	False
355.167	4.0	Win2	0.6579	0.001	No	2.883	0.0	n/a	NoResponse	0	n/a	n/a	2	37	Fixation	MissedWin	False
359.163	0.2	Win2	0.6579	0.004	No	2.883	-0.004	n/a	NoResponse	0	n/a	n/a	2	37	Target	MissedWin	False
359.363	0.5	Win2	0.6579	n/a	No	2.883	n/a	n/a	NoResponse	0	n/a	n/a	2	37	Blank	MissedWin	False
359.865	1.45	Win2	0.6579	n/a	No	2.883	n/a	5.0	NoResponse	0	0.01	358.875	2	37	Feedback	MissedWin	False
361.319	2.883	Win2	0.6579	n/a	No	2.883	n/a	n/a	NoResponse	0	0.0	n/a	2	37	ISIslide	MissedWin	False
364.228	0.25	Lose2	0.6409999999999999	0.0	No	2.822	0.028	n/a	NoResponse	-1	n/a	n/a	1	38	Cue	Loss	True
364.479	3.95	Lose2	0.6409999999999999	0.0	No	2.822	0.001	3.0	NoResponse	-1	3.179	366.658	1	38	Fixation	Loss	True
367.658	0.3	Lose2	0.6409999999999999	0.0	No	2.822	0.001	3.0	NoResponse	-1	3.179	n/a	1	38	ButtonPress	Loss	True
368.424	0.2	Lose2	0.6409999999999999	0.004	No	2.822	-0.004	n/a	NoResponse	-1	n/a	n/a	1	38	Target	Loss	True
368.624	0.5	Lose2	0.6409999999999999	n/a	No	2.822	n/a	n/a	NoResponse	-1	n/a	n/a	1	38	Blank	Loss	True
369.126	1.45	Lose2	0.6409999999999999	n/a	No	2.822	n/a	5.0	NoResponse	-1	0.017	368.143	1	38	Feedback	Loss	True
370.58	2.822	Lose2	0.6409999999999999	n/a	No	2.822	n/a	n/a	NoResponse	-1	0.0	n/a	1	38	ISIslide	Loss	True
373.422	0.25	Win2	0.65	0.0	Yes	2.978	0.022	n/a	GoodResponse	1	n/a	n/a	2	39	Cue	Win	True
373.673	4.1	Win2	0.65	0.0	Yes	2.978	0.001	n/a	GoodResponse	1	n/a	n/a	2	39	Fixation	Win	True
377.768	0.21	Win2	0.65	0.004	Yes	2.978	-0.004	3.0	GoodResponse	1	0.189	376.957	2	39	Target	Win	True
377.957	0.3	Win2	0.65	0.004	Yes	2.978	-0.004	3.0	GoodResponse	1	0.189	n/a	2	39	ButtonPress	Win	True
377.986	0.49	Win2	0.65	n/a	Yes	2.978	n/a	n/a	GoodResponse	1	n/a	n/a	2	39	Blank	Win	True
378.471	1.45	Win2	0.65	n/a	Yes	2.978	n/a	5.0	GoodResponse	1	0.038	377.509	2	39	Feedback	Win	True
379.925	2.978	Win2	0.65	n/a	Yes	2.978	n/a	n/a	GoodResponse	1	0.0	n/a	2	39	ISIslide	Win	True
382.917	0.25	Win2	0.6341	0.0	No	2.733	0.017	n/a	NoResponse	0	n/a	n/a	2	40	Cue	MissedWin	True
383.168	3.95	Win2	0.6341	0.0	No	2.733	0.001	n/a	NoResponse	0	n/a	n/a	2	40	Fixation	MissedWin	True
387.113	0.22	Win2	0.6341	0.004	No	2.733	-0.004	3.0	NoResponse	0	0.245	386.358	2	40	Target	MissedWin	True
387.347	0.48	Win2	0.6341	n/a	No	2.733	n/a	n/a	NoResponse	0	n/a	n/a	2	40	Blank	MissedWin	True
387.358	0.3	Win2	0.6341	0.004	No	2.733	-0.004	3.0	NoResponse	0	0.245	n/a	2	40	ButtonPress	MissedWin	True
387.815	1.45	Win2	0.6341	n/a	No	2.733	n/a	5.0	NoResponse	0	0.01	386.825	2	40	Feedback	MissedWin	True
389.27	2.733	Win2	0.6341	n/a	No	2.733	n/a	n/a	NoResponse	0	0.0	n/a	2	40	ISIslide	MissedWin	True
392.028	0.25	Win2	0.619	0.0	No	2.772	0.028	n/a	NoResponse	0	n/a	n/a	2	41	Cue	MissedWin	False
392.279	3.9	Win2	0.619	0.0	No	2.772	0.001	3.0	NoResponse	0	2.847	394.126	2	41	Fixation	MissedWin	False
395.126	0.3	Win2	0.619	0.0	No	2.772	0.001	3.0	NoResponse	0	2.847	n/a	2	41	ButtonPress	MissedWin	False
396.174	0.23	Win2	0.619	0.004	No	2.772	-0.004	3.0	NoResponse	0	0.281	395.455	2	41	Target	MissedWin	False
396.408	0.47	Win2	0.619	n/a	No	2.772	n/a	n/a	NoResponse	0	n/a	n/a	2	41	Blank	MissedWin	False
396.455	0.3	Win2	0.619	0.004	No	2.772	-0.004	3.0	NoResponse	0	0.281	n/a	2	41	ButtonPress	MissedWin	False
396.876	1.45	Win2	0.619	n/a	No	2.772	n/a	5.0	NoResponse	0	0.022	395.898	2	41	Feedback	MissedWin	False
398.33	2.772	Win2	0.619	n/a	No	2.772	n/a	n/a	NoResponse	0	0.0	n/a	2	41	ISIslide	MissedWin	False
401.122	0.25	Control	0.6047	0.0	No	2.928	0.022	n/a	NoResponse	0	n/a	n/a	2	42	Cue	Neutral	False
401.372	3.85	Control	0.6047	0.001	No	2.928	0.0	n/a	NoResponse	0	n/a	n/a	2	42	Fixation	Neutral	False
405.234	0.24	Control	0.6047	0.0	No	2.928	0.012	n/a	NoResponse	0	n/a	n/a	2	42	Target	Neutral	False
405.468	0.46	Control	0.6047	n/a	No	2.928	n/a	n/a	NoResponse	0	n/a	n/a	2	42	Blank	Neutral	False
405.919	1.45	Control	0.6047	n/a	No	2.928	n/a	5.0	NoResponse	0	0.008	404.927	2	42	Feedback	Neutral	False
407.374	2.928	Control	0.6047	n/a	No	2.928	n/a	n/a	NoResponse	0	0.0	n/a	2	42	ISIslide	Neutral	False
410.316	0.25	Win2	0.5909	0.0	No	3.184	0.016	n/a	NoResponse	0	n/a	n/a	2	43	Cue	MissedWin	True
410.567	4.0	Win2	0.5909	0.0	No	3.184	0.001	n/a	NoResponse	0	n/a	n/a	2	43	Fixation	MissedWin	True
414.562	0.25	Win2	0.5909	0.004	No	3.184	-0.004	3.0	NoResponse	0	0.262	413.824	2	43	Target	MissedWin	True
414.813	0.45	Win2	0.5909	n/a	No	3.184	n/a	n/a	NoResponse	0	n/a	n/a	2	43	Blank	MissedWin	True
414.824	0.3	Win2	0.5909	0.004	No	3.184	-0.004	3.0	NoResponse	0	0.262	n/a	2	43	ButtonPress	MissedWin	True
415.264	1.45	Win2	0.5909	n/a	No	3.184	n/a	5.0	NoResponse	0	0.025	414.289	2	43	Feedback	MissedWin	True
416.718	3.184	Win2	0.5909	n/a	No	3.184	n/a	n/a	NoResponse	0	0.0	n/a	2	43	ISIslide	MissedWin	True
419.928	0.25	Win2	0.5778	0.0	No	2.972	0.028	n/a	NoResponse	0	n/a	n/a	2	44	Cue	MissedWin	True
420.179	4.0	Win2	0.5778	0.0	No	2.972	0.001	n/a	NoResponse	0	n/a	n/a	2	44	Fixation	MissedWin	True
424.174	0.26	Win2	0.5778	0.004	No	2.972	-0.004	3.0	NoResponse	0	0.299	423.473	2	44	Target	MissedWin	True
424.441	0.44	Win2	0.5778	n/a	No	2.972	n/a	n/a	NoResponse	0	n/a	n/a	2	44	Blank	MissedWin	True
424.473	0.3	Win2	0.5778	0.004	No	2.972	-0.004	3.0	NoResponse	0	0.299	n/a	2	44	ButtonPress	MissedWin	True
424.876	1.45	Win2	0.5778	n/a	No	2.972	n/a	5.0	NoResponse	0	0.023	423.899	2	44	Feedback	MissedWin	True
426.33	2.972	Win2	0.5778	n/a	No	2.972	n/a	n/a	NoResponse	0	0.0	n/a	2	44	ISIslide	MissedWin	True
429.323	0.25	Control	0.5652	0.0	No	2.877	0.023	n/a	NoResponse	0	n/a	n/a	2	45	Cue	Neutral	False
429.574	4.1	Control	0.5652	0.0	No	2.877	0.001	n/a	NoResponse	0	n/a	n/a	2	45	Fixation	Neutral	False
433.669	0.27	Control	0.5652	0.004	No	2.877	-0.004	n/a	NoResponse	0	n/a	n/a	2	45	Target	Neutral	False
433.953	0.43	Control	0.5652	n/a	No	2.877	n/a	n/a	NoResponse	0	n/a	n/a	2	45	Blank	Neutral	False
434.371	1.45	Control	0.5652	n/a	No	2.877	n/a	5.0	NoResponse	0	0.039	433.41	2	45	Feedback	Neutral	False
435.826	2.877	Control	0.5652	n/a	No	2.877	n/a	n/a	NoResponse	0	0.0	n/a	2	45	ISIslide	Neutral	False
438.718	0.25	Lose2	0.5532	0.0	No	3.382	0.018	n/a	NoResponse	-1	n/a	n/a	1	46	Cue	Loss	True
438.968	4.0	Lose2	0.5532	0.0	No	3.382	0.0	n/a	NoResponse	-1	n/a	n/a	1	46	Fixation	Loss	True
442.964	0.28	Lose2	0.5532	0.004	No	3.382	-0.004	3.0	NoResponse	-1	0.366	442.33	1	46	Target	Loss	True
443.248	0.42	Lose2	0.5532	n/a	No	3.382	n/a	n/a	NoResponse	-1	n/a	n/a	1	46	Blank	Loss	True
443.33	0.3	Lose2	0.5532	0.004	No	3.382	-0.004	3.0	NoResponse	-1	0.366	n/a	1	46	ButtonPress	Loss	True
443.666	1.45	Lose2	0.5532	n/a	No	3.382	n/a	5.0	NoResponse	-1	0.012	442.678	1	46	Feedback	Loss	True
445.12	3.382	Lose2	0.5532	n/a	No	3.382	n/a	n/a	NoResponse	-1	0.0	n/a	1	46	ISIslide	Loss	True
448.53	0.25	Lose2	0.5625	0.0	Yes	2.67	0.03	n/a	GoodResponse	0	n/a	n/a	1	47	Cue	AvoidedLoss	True
448.781	4.0	Lose2	0.5625	0.0	Yes	2.67	0.001	n/a	GoodResponse	0	n/a	n/a	1	47	Fixation	AvoidedLoss	True
452.776	0.29	Lose2	0.5625	0.004	Yes	2.67	-0.004	3.0	GoodResponse	0	0.225	452.001	1	47	Target	AvoidedLoss	True
453.001	0.3	Lose2	0.5625	0.004	Yes	2.67	-0.004	3.0	GoodResponse	0	0.225	n/a	1	47	ButtonPress	AvoidedLoss	True
453.077	0.41	Lose2	0.5625	n/a	Yes	2.67	n/a	n/a	GoodResponse	0	n/a	n/a	1	47	Blank	AvoidedLoss	True
453.478	1.45	Lose2	0.5625	n/a	Yes	2.67	n/a	5.0	GoodResponse	0	0.007	452.485	1	47	Feedback	AvoidedLoss	True
454.933	2.67	Lose2	0.5625	n/a	Yes	2.67	n/a	n/a	GoodResponse	0	0.0	n/a	1	47	ISIslide	AvoidedLoss	True
457.624	0.25	Lose2	0.551	0.0	No	3.026	0.024	n/a	NoResponse	-1	n/a	n/a	0	48	Cue	Loss	False
457.875	3.95	Lose2	0.551	0.0	No	3.026	0.001	n/a	NoResponse	-1	n/a	n/a	0	48	Fixation	Loss	False
461.82	0.3	Lose2	0.551	0.004	No	3.026	-0.004	n/a	NoResponse	-1	n/a	n/a	0	48	Target	Loss	False
462.121	0.4	Lose2	0.551	n/a	No	3.026	n/a	n/a	NoResponse	-1	n/a	n/a	0	48	Blank	Loss	False
462.522	1.45	Lose2	0.551	n/a	No	3.026	n/a	5.0	NoResponse	-1	0.035	461.557	0	48	Feedback	Loss	False
463.976	3.026	Lose2	0.551	n/a	No	3.026	n/a	n/a	NoResponse	-1	0.0	n/a	0	48	ISIslide	Loss	False
467.019	0.25	Control	0.56	0.0	Yes	2.881	0.019	n/a	GoodResponse	0	n/a	n/a	0	49	Cue	Neutral	False
467.27	4.0	Control	0.56	0.0	Yes	2.881	0.001	3.0	GoodResponse	0	0.009	466.279	0	49	Fixation	Neutral	False
467.279	0.3	Control	0.56	0.0	Yes	2.881	0.001	3.0	GoodResponse	0	0.009	n/a	0	49	ButtonPress	Neutral	False
471.265	0.31	Control	0.56	0.004	Yes	2.881	-0.004	3.0	GoodResponse	0	0.275	470.54	0	49	Target	Neutral	False
471.54	0.3	Control	0.56	0.004	Yes	2.881	-0.004	3.0	GoodResponse	0	0.275	n/a	0	49	ButtonPress	Neutral	False
471.583	0.39	Control	0.56	n/a	Yes	2.881	n/a	n/a	GoodResponse	0	n/a	n/a	0	49	Blank	Neutral	False
471.967	1.45	Control	0.56	n/a	Yes	2.881	n/a	5.0	GoodResponse	0	0.008	470.975	0	49	Feedback	Neutral	False
473.421	2.881	Control	0.56	n/a	Yes	2.881	n/a	n/a	GoodResponse	0	0.0	n/a	0	49	ISIslide	Neutral	False
476.33	0.25	Control	0.5489999999999999	0.0	No	2.77	0.03	n/a	NoResponse	0	n/a	n/a	0	50	Cue	Neutral	False
476.581	4.0	Control	0.5489999999999999	0.0	No	2.77	0.001	n/a	NoResponse	0	n/a	n/a	0	50	Fixation	Neutral	False
480.576	0.32	Control	0.5489999999999999	0.004	No	2.77	-0.004	n/a	NoResponse	0	n/a	n/a	0	50	Target	Neutral	False
480.911	0.38	Control	0.5489999999999999	n/a	No	2.77	n/a	n/a	NoResponse	0	n/a	n/a	0	50	Blank	Neutral	False
481.278	1.45	Control	0.5489999999999999	n/a	No	2.77	n/a	5.0	NoResponse	0	0.01	480.288	0	50	Feedback	Neutral	False
482.733	2.77	Control	0.5489999999999999	n/a	No	2.77	n/a	n/a	NoResponse	0	0.0	n/a	0	50	ISIslide	Neutral	False
485.524	0.25	Control	0.5385	0.0	No	2.726	0.024	n/a	NoResponse	0	n/a	n/a	0	51	Cue	Neutral	False
485.775	3.95	Control	0.5385	0.0	No	2.726	0.001	n/a	NoResponse	0	n/a	n/a	0	51	Fixation	Neutral	False
489.72	0.33	Control	0.5385	0.004	No	2.726	-0.004	n/a	NoResponse	0	n/a	n/a	0	51	Target	Neutral	False
490.055	0.37	Control	0.5385	n/a	No	2.726	n/a	n/a	NoResponse	0	n/a	n/a	0	51	Blank	Neutral	False
490.422	1.45	Control	0.5385	n/a	No	2.726	n/a	5.0	NoResponse	0	0.036	489.458	0	51	Feedback	Neutral	False
491.877	2.726	Control	0.5385	n/a	No	2.726	n/a	n/a	NoResponse	0	0.0	n/a	0	51	ISIslide	Neutral	False
494.618	0.25	Control	0.5472	0.0	Yes	2.632	0.018	n/a	GoodResponse	0	n/a	n/a	0	52	Cue	Neutral	True
494.869	4.05	Control	0.5472	0.0	Yes	2.632	0.001	n/a	GoodResponse	0	n/a	n/a	0	52	Fixation	Neutral	True
498.914	0.34	Control	0.5472	0.004	Yes	2.632	-0.004	3.0	GoodResponse	0	0.298	498.212	0	52	Target	Neutral	True
499.212	0.3	Control	0.5472	0.004	Yes	2.632	-0.004	3.0	GoodResponse	0	0.298	n/a	0	52	ButtonPress	Neutral	True
499.265	0.36	Control	0.5472	n/a	Yes	2.632	n/a	n/a	GoodResponse	0	n/a	n/a	0	52	Blank	Neutral	True
499.617	1.45	Control	0.5472	n/a	Yes	2.632	n/a	5.0	GoodResponse	0	0.012	498.629	0	52	Feedback	Neutral	True
501.071	2.632	Control	0.5472	n/a	Yes	2.632	n/a	n/a	GoodResponse	0	0.0	n/a	0	52	ISIslide	Neutral	True
503.729	0.25	Win2	0.5556	0.0	Yes	2.921	0.029	n/a	GoodResponse	1	n/a	n/a	1	53	Cue	Win	True
503.98	4.05	Win2	0.5556	0.0	Yes	2.921	0.001	n/a	GoodResponse	1	n/a	n/a	1	53	Fixation	Win	True
508.025	0.35	Win2	0.5556	0.004	Yes	2.921	-0.004	3.0	GoodResponse	1	0.186	507.211	1	53	Target	Win	True
508.211	0.3	Win2	0.5556	0.004	Yes	2.921	-0.004	3.0	GoodResponse	1	0.186	n/a	1	53	ButtonPress	Win	True
508.376	0.35	Win2	0.5556	n/a	Yes	2.921	n/a	n/a	GoodResponse	1	n/a	n/a	1	53	Blank	Win	True
508.727	1.45	Win2	0.5556	n/a	Yes	2.921	n/a	5.0	GoodResponse	1	0.024	507.751	1	53	Feedback	Win	True
510.181	2.921	Win2	0.5556	n/a	Yes	2.921	n/a	n/a	GoodResponse	1	0.0	n/a	1	53	ISIslide	Win	True
513.124	0.25	Win2	0.5636	0.0	Yes	2.726	0.024	n/a	GoodResponse	1	n/a	n/a	2	54	Cue	Win	True
513.374	3.95	Win2	0.5636	0.0	Yes	2.726	0.0	n/a	GoodResponse	1	n/a	n/a	2	54	Fixation	Win	True
517.319	0.36	Win2	0.5636	0.005	Yes	2.726	-0.005	3.0	GoodResponse	1	0.144	516.463	2	54	Target	Win	True
517.463	0.3	Win2	0.5636	0.005	Yes	2.726	-0.005	3.0	GoodResponse	1	0.144	n/a	2	54	ButtonPress	Win	True
517.687	0.34	Win2	0.5636	n/a	Yes	2.726	n/a	n/a	GoodResponse	1	n/a	n/a	2	54	Blank	Win	True
518.022	1.45	Win2	0.5636	n/a	Yes	2.726	n/a	5.0	GoodResponse	1	0.046	517.068	2	54	Feedback	Win	True
519.476	2.726	Win2	0.5636	n/a	Yes	2.726	n/a	n/a	GoodResponse	1	0.0	n/a	2	54	ISIslide	Win	True
522.217	0.25	Control	0.5714	0.001	Yes	3.033	0.017	n/a	GoodResponse	0	n/a	n/a	2	55	Cue	Neutral	True
522.468	3.95	Control	0.5714	0.0	Yes	3.033	0.001	n/a	GoodResponse	0	n/a	n/a	2	55	Fixation	Neutral	True
526.413	0.37	Control	0.5714	0.004	Yes	3.033	-0.004	3.0	GoodResponse	0	0.2	525.613	2	55	Target	Neutral	True
526.613	0.3	Control	0.5714	0.004	Yes	3.033	-0.004	3.0	GoodResponse	0	0.2	n/a	2	55	ButtonPress	Neutral	True
526.798	0.33	Control	0.5714	n/a	Yes	3.033	n/a	n/a	GoodResponse	0	n/a	n/a	2	55	Blank	Neutral	True
527.115	1.45	Control	0.5714	n/a	Yes	3.033	n/a	5.0	GoodResponse	0	0.027	526.142	2	55	Feedback	Neutral	True
528.57	3.033	Control	0.5714	n/a	Yes	3.033	n/a	n/a	GoodResponse	0	0.0	n/a	2	55	ISIslide	Neutral	True
531.629	0.25	Control	0.5789	0.0	Yes	2.821	0.029	n/a	GoodResponse	0	n/a	n/a	2	56	Cue	Neutral	True
531.88	3.95	Control	0.5789	0.0	Yes	2.821	0.001	n/a	GoodResponse	0	n/a	n/a	2	56	Fixation	Neutral	True
535.825	0.38	Control	0.5789	0.004	Yes	2.821	-0.004	3.0	GoodResponse	0	0.278	535.103	2	56	Target	Neutral	True
536.103	0.3	Control	0.5789	0.004	Yes	2.821	-0.004	3.0	GoodResponse	0	0.278	n/a	2	56	ButtonPress	Neutral	True
536.209	0.32	Control	0.5789	n/a	Yes	2.821	n/a	n/a	GoodResponse	0	n/a	n/a	2	56	Blank	Neutral	True
536.527	1.45	Control	0.5789	n/a	Yes	2.821	n/a	5.0	GoodResponse	0	0.028	535.555	2	56	Feedback	Neutral	True
537.981	2.821	Control	0.5789	n/a	Yes	2.821	n/a	n/a	GoodResponse	0	0.0	n/a	2	56	ISIslide	Neutral	True
540.823	0.25	Control	0.5861999999999999	0.0	Yes	3.477	0.023	n/a	GoodResponse	0	n/a	n/a	2	57	Cue	Neutral	True
541.074	4.0	Control	0.5861999999999999	0.0	Yes	3.477	0.001	n/a	GoodResponse	0	n/a	n/a	2	57	Fixation	Neutral	True
545.069	0.39	Control	0.5861999999999999	0.004	Yes	3.477	-0.004	3.0	GoodResponse	0	0.199	544.268	2	57	Target	Neutral	True
545.268	0.3	Control	0.5861999999999999	0.004	Yes	3.477	-0.004	3.0	GoodResponse	0	0.199	n/a	2	57	ButtonPress	Neutral	True
545.47	0.31	Control	0.5861999999999999	n/a	Yes	3.477	n/a	n/a	GoodResponse	0	n/a	n/a	2	57	Blank	Neutral	True
545.771	1.45	Control	0.5861999999999999	n/a	Yes	3.477	n/a	5.0	GoodResponse	0	0.008	544.779	2	57	Feedback	Neutral	True
547.226	3.477	Control	0.5861999999999999	n/a	Yes	3.477	n/a	n/a	GoodResponse	0	0.0	n/a	2	57	ISIslide	Neutral	True
550.719	0.25	Win2	0.5763	0.001	No	2.731	0.019	n/a	NoResponse	0	n/a	n/a	2	58	Cue	MissedWin	False
550.97	4.05	Win2	0.5763	0.0	No	2.731	0.001	n/a	NoResponse	0	n/a	n/a	2	58	Fixation	MissedWin	False
555.016	0.4	Win2	0.5763	0.003	No	2.731	-0.003	n/a	NoResponse	0	n/a	n/a	2	58	Target	MissedWin	False
555.417	0.3	Win2	0.5763	n/a	No	2.731	n/a	n/a	NoResponse	0	n/a	n/a	2	58	Blank	MissedWin	False
555.718	1.45	Win2	0.5763	n/a	No	2.731	n/a	5.0	NoResponse	0	0.008	554.726	2	58	Feedback	MissedWin	False
557.172	2.731	Win2	0.5763	n/a	No	2.731	n/a	n/a	NoResponse	0	0.0	n/a	2	58	ISIslide	MissedWin	False
559.93	0.25	Lose2	0.5667	0.0	No	2.67	0.03	n/a	NoResponse	-1	n/a	n/a	1	59	Cue	Loss	False
560.181	4.0	Lose2	0.5667	0.0	No	2.67	0.001	3.0	NoResponse	-1	3.359	562.54	1	59	Fixation	Loss	False
563.54	0.3	Lose2	0.5667	0.0	No	2.67	0.001	3.0	NoResponse	-1	3.359	n/a	1	59	ButtonPress	Loss	False
564.176	0.41	Lose2	0.5667	0.004	No	2.67	-0.004	3.0	NoResponse	-1	0.531	563.707	1	59	Target	Loss	False
564.594	0.29	Lose2	0.5667	n/a	No	2.67	n/a	n/a	NoResponse	-1	n/a	n/a	1	59	Blank	Loss	False
564.707	0.3	Lose2	0.5667	0.004	No	2.67	-0.004	3.0	NoResponse	-1	0.531	n/a	1	59	ButtonPress	Loss	False
564.879	1.45	Lose2	0.5667	n/a	No	2.67	n/a	5.0	NoResponse	-1	0.018	563.897	1	59	Feedback	Loss	False
566.333	2.67	Lose2	0.5667	n/a	No	2.67	n/a	n/a	NoResponse	-1	0.0	n/a	1	59	ISIslide	Loss	False
569.024	0.25	Control	0.5738	0.0	Yes	2.676	0.024	n/a	GoodResponse	0	n/a	n/a	1	60	Cue	Neutral	False
569.275	4.0	Control	0.5738	0.0	Yes	2.676	0.001	3.0	GoodResponse	0	3.71	571.985	1	60	Fixation	Neutral	False
572.985	0.3	Control	0.5738	0.0	Yes	2.676	0.001	3.0	GoodResponse	0	3.71	n/a	1	60	ButtonPress	Neutral	False
573.27	0.42	Control	0.5738	0.004	Yes	2.676	-0.004	3.0	GoodResponse	0	0.264	572.534	1	60	Target	Neutral	False
573.534	0.3	Control	0.5738	0.004	Yes	2.676	-0.004	3.0	GoodResponse	0	0.264	n/a	1	60	ButtonPress	Neutral	False
573.705	0.28	Control	0.5738	n/a	Yes	2.676	n/a	n/a	GoodResponse	0	n/a	n/a	1	60	Blank	Neutral	False
573.972	1.45	Control	0.5738	n/a	Yes	2.676	n/a	5.0	GoodResponse	0	0.047	573.019	1	60	Feedback	Neutral	False
575.427	2.676	Control	0.5738	n/a	Yes	2.676	n/a	n/a	GoodResponse	0	0.0	n/a	1	60	ISIslide	Neutral	False
578.118	0.25	Lose2	0.5806	0.0	Yes	2.982	0.018	n/a	GoodResponse	0	n/a	n/a	1	61	Cue	AvoidedLoss	True
578.369	4.0	Lose2	0.5806	0.0	Yes	2.982	0.001	n/a	GoodResponse	0	n/a	n/a	1	61	Fixation	AvoidedLoss	True
582.364	0.43	Lose2	0.5806	0.004	Yes	2.982	-0.004	3.0	GoodResponse	0	0.279	581.643	1	61	Target	AvoidedLoss	True
582.643	0.3	Lose2	0.5806	0.004	Yes	2.982	-0.004	3.0	GoodResponse	0	0.279	n/a	1	61	ButtonPress	AvoidedLoss	True
582.799	0.27	Lose2	0.5806	n/a	Yes	2.982	n/a	n/a	GoodResponse	0	n/a	n/a	1	61	Blank	AvoidedLoss	True
583.066	1.45	Lose2	0.5806	n/a	Yes	2.982	n/a	5.0	GoodResponse	0	0.025	582.091	1	61	Feedback	AvoidedLoss	True
584.521	2.982	Lose2	0.5806	n/a	Yes	2.982	n/a	n/a	GoodResponse	0	0.0	n/a	1	61	ISIslide	AvoidedLoss	True
587.53	0.25	Lose2	0.5872999999999999	0.0	Yes	2.87	0.03	n/a	GoodResponse	0	n/a	n/a	1	62	Cue	AvoidedLoss	True
587.78	3.9	Lose2	0.5872999999999999	0.001	Yes	2.87	0.0	n/a	GoodResponse	0	n/a	n/a	1	62	Fixation	AvoidedLoss	True
591.692	0.44	Lose2	0.5872999999999999	0.0	Yes	2.87	0.012	3.0	GoodResponse	0	0.25	590.942	1	62	Target	AvoidedLoss	True
591.942	0.3	Lose2	0.5872999999999999	0.0	Yes	2.87	0.012	3.0	GoodResponse	0	0.25	n/a	1	62	ButtonPress	AvoidedLoss	True
592.127	0.26	Lose2	0.5872999999999999	n/a	Yes	2.87	n/a	n/a	GoodResponse	0	n/a	n/a	1	62	Blank	AvoidedLoss	True
592.378	1.45	Lose2	0.5872999999999999	n/a	Yes	2.87	n/a	5.0	GoodResponse	0	0.031	591.409	1	62	Feedback	AvoidedLoss	True
593.832	2.87	Lose2	0.5872999999999999	n/a	Yes	2.87	n/a	n/a	GoodResponse	0	0.0	n/a	1	62	ISIslide	AvoidedLoss	True
596.724	0.25	Lose2	0.5938	0.0	Yes	2.626	0.024	n/a	GoodResponse	0	n/a	n/a	1	63	Cue	AvoidedLoss	True
596.975	4.05	Lose2	0.5938	0.0	Yes	2.626	0.001	n/a	GoodResponse	0	n/a	n/a	1	63	Fixation	AvoidedLoss	True
601.02	0.45	Lose2	0.5938	0.004	Yes	2.626	-0.004	3.0	GoodResponse	0	0.215	600.235	1	63	Target	AvoidedLoss	True
601.235	0.3	Lose2	0.5938	0.004	Yes	2.626	-0.004	3.0	GoodResponse	0	0.215	n/a	1	63	ButtonPress	AvoidedLoss	True
601.471	0.25	Lose2	0.5938	n/a	Yes	2.626	n/a	n/a	GoodResponse	0	n/a	n/a	1	63	Blank	AvoidedLoss	True
601.722	1.45	Lose2	0.5938	n/a	Yes	2.626	n/a	5.0	GoodResponse	0	0.005	600.727	1	63	Feedback	AvoidedLoss	True
603.176	2.626	Lose2	0.5938	n/a	Yes	2.626	n/a	n/a	GoodResponse	0	0.0	n/a	1	63	ISIslide	AvoidedLoss	True
605.818	0.25	Win2	0.6	0.0	Yes	3.132	0.018	n/a	GoodResponse	1	n/a	n/a	2	64	Cue	Win	False
606.068	4.15	Win2	0.6	0.001	Yes	3.132	0.0	3.0	GoodResponse	1	2.478	607.546	2	64	Fixation	Win	False
608.546	0.3	Win2	0.6	0.001	Yes	3.132	0.0	3.0	GoodResponse	1	2.478	n/a	2	64	ButtonPress	Win	False
610.214	0.46	Win2	0.6	0.004	Yes	3.132	-0.004	3.0	GoodResponse	1	0.21	609.424	2	64	Target	Win	False
610.424	0.3	Win2	0.6	0.004	Yes	3.132	-0.004	3.0	GoodResponse	1	0.21	n/a	2	64	ButtonPress	Win	False
610.682	0.24	Win2	0.6	n/a	Yes	3.132	n/a	n/a	GoodResponse	1	n/a	n/a	2	64	Blank	Win	False
610.916	1.45	Win2	0.6	n/a	Yes	3.132	n/a	5.0	GoodResponse	1	0.029	609.945	2	64	Feedback	Win	False
612.371	3.132	Win2	0.6	n/a	Yes	3.132	n/a	n/a	GoodResponse	1	0.0	n/a	2	64	ISIslide	Win	False
615.513	0.25	Control	0.6061	0.0	Yes	2.787	0.013	n/a	GoodResponse	0	n/a	n/a	2	65	Cue	Neutral	True
615.764	4.0	Control	0.6061	0.0	Yes	2.787	0.001	n/a	GoodResponse	0	n/a	n/a	2	65	Fixation	Neutral	True
619.759	0.47	Control	0.6061	0.004	Yes	2.787	-0.004	3.0	GoodResponse	0	0.277	619.036	2	65	Target	Neutral	True
620.036	0.3	Control	0.6061	0.004	Yes	2.787	-0.004	3.0	GoodResponse	0	0.277	n/a	2	65	ButtonPress	Neutral	True
620.244	0.23	Control	0.6061	n/a	Yes	2.787	n/a	n/a	GoodResponse	0	n/a	n/a	2	65	Blank	Neutral	True
620.462	1.45	Control	0.6061	n/a	Yes	2.787	n/a	5.0	GoodResponse	0	0.045	619.507	2	65	Feedback	Neutral	True
621.916	2.787	Control	0.6061	n/a	Yes	2.787	n/a	n/a	GoodResponse	0	0.0	n/a	2	65	ISIslide	Neutral	True
624.724	0.25	Win2	0.597	0.0	No	2.776	0.024	n/a	NoResponse	0	n/a	n/a	2	66	Cue	MissedWin	False
624.975	3.9	Win2	0.597	0.0	No	2.776	0.001	n/a	NoResponse	0	n/a	n/a	2	66	Fixation	MissedWin	False
628.87	0.48	Win2	0.597	0.004	No	2.776	-0.004	n/a	NoResponse	0	n/a	n/a	2	66	Target	MissedWin	False
629.355	0.22	Win2	0.597	n/a	No	2.776	n/a	n/a	NoResponse	0	n/a	n/a	2	66	Blank	MissedWin	False
629.572	1.45	Win2	0.597	n/a	No	2.776	n/a	5.0	NoResponse	0	0.008	628.58	2	66	Feedback	MissedWin	False
631.027	2.776	Win2	0.597	n/a	No	2.776	n/a	n/a	NoResponse	0	0.0	n/a	2	66	ISIslide	MissedWin	False
633.818	0.25	Control	0.6029	0.0	Yes	2.732	0.018	n/a	GoodResponse	0	n/a	n/a	2	67	Cue	Neutral	True
634.069	3.95	Control	0.6029	0.0	Yes	2.732	0.001	n/a	GoodResponse	0	n/a	n/a	2	67	Fixation	Neutral	True
638.014	0.49	Control	0.6029	0.004	Yes	2.732	-0.004	3.0	GoodResponse	0	0.223	637.237	2	67	Target	Neutral	True
638.237	0.3	Control	0.6029	0.004	Yes	2.732	-0.004	3.0	GoodResponse	0	0.223	n/a	2	67	ButtonPress	Neutral	True
638.516	0.21	Control	0.6029	n/a	Yes	2.732	n/a	n/a	GoodResponse	0	n/a	n/a	2	67	Blank	Neutral	True
638.716	1.45	Control	0.6029	n/a	Yes	2.732	n/a	5.0	GoodResponse	0	0.034	637.75	2	67	Feedback	Neutral	True
640.171	2.732	Control	0.6029	n/a	Yes	2.732	n/a	n/a	GoodResponse	0	0.0	n/a	2	67	ISIslide	Neutral	True
642.929	0.25	Win2	0.5942000000000001	0.0	No	3.071	0.029	n/a	NoResponse	0	n/a	n/a	2	68	Cue	MissedWin	False
643.18	4.0	Win2	0.5942000000000001	0.0	No	3.071	0.001	n/a	NoResponse	0	n/a	n/a	2	68	Fixation	MissedWin	False
647.175	0.5	Win2	0.5942000000000001	0.004	No	3.071	-0.004	n/a	NoResponse	0	n/a	n/a	2	68	Target	MissedWin	False
647.676	0.2	Win2	0.5942000000000001	n/a	No	3.071	n/a	n/a	NoResponse	0	n/a	n/a	2	68	Blank	MissedWin	False
647.877	1.45	Win2	0.5942000000000001	n/a	No	3.071	n/a	5.0	NoResponse	0	0.043	646.92	2	68	Feedback	MissedWin	False
649.331	3.071	Win2	0.5942000000000001	n/a	No	3.071	n/a	n/a	NoResponse	0	0.0	n/a	2	68	ISIslide	MissedWin	False
652.424	0.25	Win2	0.6	0.0	Yes	3.226	0.024	n/a	GoodResponse	1	n/a	n/a	3	69	Cue	Win	True
652.675	3.95	Win2	0.6	0.0	Yes	3.226	0.001	n/a	GoodResponse	1	n/a	n/a	3	69	Fixation	Win	True
656.62	0.5	Win2	0.6	0.004	Yes	3.226	-0.004	3.0	GoodResponse	1	0.211	655.831	3	69	Target	Win	True
656.831	0.3	Win2	0.6	0.004	Yes	3.226	-0.004	3.0	GoodResponse	1	0.211	n/a	3	69	ButtonPress	Win	True
657.121	0.2	Win2	0.6	n/a	Yes	3.226	n/a	n/a	GoodResponse	1	n/a	n/a	3	69	Blank	Win	True
657.322	1.45	Win2	0.6	n/a	Yes	3.226	n/a	5.0	GoodResponse	1	0.013	656.335	3	69	Feedback	Win	True
658.776	3.226	Win2	0.6	n/a	Yes	3.226	n/a	n/a	GoodResponse	1	0.0	n/a	3	69	ISIslide	Win	True
662.019	0.25	Lose2	0.5915	0.0	No	3.031	0.019	n/a	NoResponse	-1	n/a	n/a	2	70	Cue	Loss	False
662.27	4.05	Lose2	0.5915	0.0	No	3.031	0.001	n/a	NoResponse	-1	n/a	n/a	2	70	Fixation	Loss	False
666.316	0.5	Lose2	0.5915	0.003	No	3.031	-0.003	n/a	NoResponse	-1	n/a	n/a	2	70	Target	Loss	False
666.817	0.2	Lose2	0.5915	n/a	No	3.031	n/a	n/a	NoResponse	-1	n/a	n/a	2	70	Blank	Loss	False
667.018	1.45	Lose2	0.5915	n/a	No	3.031	n/a	5.0	NoResponse	-1	0.025	666.043	2	70	Feedback	Loss	False
668.472	3.031	Lose2	0.5915	n/a	No	3.031	n/a	n/a	NoResponse	-1	0.0	n/a	2	70	ISIslide	Loss	False
671.531	0.25	Win2	0.5832999999999999	0.0	No	2.719	0.031	n/a	NoResponse	0	n/a	n/a	2	71	Cue	MissedWin	False
671.782	4.05	Win2	0.5832999999999999	0.0	No	2.719	0.001	n/a	NoResponse	0	n/a	n/a	2	71	Fixation	MissedWin	False
675.827	0.5	Win2	0.5832999999999999	0.004	No	2.719	-0.004	n/a	NoResponse	0	n/a	n/a	2	71	Target	MissedWin	False
676.329	0.2	Win2	0.5832999999999999	n/a	No	2.719	n/a	n/a	NoResponse	0	n/a	n/a	2	71	Blank	MissedWin	False
676.529	1.45	Win2	0.5832999999999999	n/a	No	2.719	n/a	5.0	NoResponse	0	0.026	675.555	2	71	Feedback	MissedWin	False
677.984	2.719	Win2	0.5832999999999999	n/a	No	2.719	n/a	n/a	NoResponse	0	0.0	n/a	2	71	ISIslide	MissedWin	False
680.725	0.25	Win2	0.5753	0.0	No	2.775	0.025	n/a	NoResponse	0	n/a	n/a	2	72	Cue	MissedWin	False
680.976	4.1	Win2	0.5753	0.0	No	2.775	0.001	n/a	NoResponse	0	n/a	n/a	2	72	Fixation	MissedWin	False
685.072	0.5	Win2	0.5753	0.003	No	2.775	-0.003	n/a	NoResponse	0	n/a	n/a	2	72	Target	MissedWin	False
685.573	0.2	Win2	0.5753	n/a	No	2.775	n/a	n/a	NoResponse	0	n/a	n/a	2	72	Blank	MissedWin	False
685.774	1.45	Win2	0.5753	n/a	No	2.775	n/a	5.0	NoResponse	0	0.0	684.774	2	72	Feedback	MissedWin	False
687.228	2.775	Win2	0.5753	n/a	No	2.775	n/a	n/a	NoResponse	0	0.0	n/a	2	72	ISIslide	MissedWin	False
690.02	0.25	Win2	0.5811	0.0	Yes	2.68	0.02	n/a	GoodResponse	1	n/a	n/a	3	73	Cue	Win	True
690.271	4.0	Win2	0.5811	0.0	Yes	2.68	0.001	n/a	GoodResponse	1	n/a	n/a	3	73	Fixation	Win	True
694.266	0.5	Win2	0.5811	0.004	Yes	2.68	-0.004	3.0	GoodResponse	1	0.24	693.506	3	73	Target	Win	True
694.506	0.3	Win2	0.5811	0.004	Yes	2.68	-0.004	3.0	GoodResponse	1	0.24	n/a	3	73	ButtonPress	Win	True
694.767	0.2	Win2	0.5811	n/a	Yes	2.68	n/a	n/a	GoodResponse	1	n/a	n/a	3	73	Blank	Win	True
694.968	1.45	Win2	0.5811	n/a	Yes	2.68	n/a	5.0	GoodResponse	1	0.025	693.993	3	73	Feedback	Win	True
696.422	2.68	Win2	0.5811	n/a	Yes	2.68	n/a	n/a	GoodResponse	1	0.0	n/a	3	73	ISIslide	Win	True
699.114	0.25	Lose2	0.5733	0.0	No	2.636	0.014	n/a	NoResponse	-1	n/a	n/a	2	74	Cue	Loss	False
699.364	4.05	Lose2	0.5733	0.0	No	2.636	0.0	n/a	NoResponse	-1	n/a	n/a	2	74	Fixation	Loss	False
703.41	0.5	Lose2	0.5733	0.004	No	2.636	-0.004	n/a	NoResponse	-1	n/a	n/a	2	74	Target	Loss	False
703.911	0.2	Lose2	0.5733	n/a	No	2.636	n/a	n/a	NoResponse	-1	n/a	n/a	2	74	Blank	Loss	False
704.112	1.45	Lose2	0.5733	n/a	No	2.636	n/a	5.0	NoResponse	-1	0.005	703.117	2	74	Feedback	Loss	False
705.566	2.636	Lose2	0.5733	n/a	No	2.636	n/a	n/a	NoResponse	-1	0.0	n/a	2	74	ISIslide	Loss	False
708.224	0.25	Lose2	0.5658	0.0	No	2.926	0.024	n/a	NoResponse	-1	n/a	n/a	1	75	Cue	Loss	False
708.475	3.95	Lose2	0.5658	0.0	No	2.926	0.001	n/a	NoResponse	-1	n/a	n/a	1	75	Fixation	Loss	False
712.42	0.5	Lose2	0.5658	0.004	No	2.926	-0.004	n/a	NoResponse	-1	n/a	n/a	1	75	Target	Loss	False
712.922	0.2	Lose2	0.5658	n/a	No	2.926	n/a	n/a	NoResponse	-1	n/a	n/a	1	75	Blank	Loss	False
713.122	1.45	Lose2	0.5658	n/a	No	2.926	n/a	5.0	NoResponse	-1	0.018	712.14	1	75	Feedback	Loss	False
714.577	2.926	Lose2	0.5658	n/a	No	2.926	n/a	n/a	NoResponse	-1	0.0	n/a	1	75	ISIslide	Loss	False
717.519	0.25	Control	0.5584	0.0	No	3.231	0.019	n/a	NoResponse	0	n/a	n/a	1	76	Cue	Neutral	False
717.77	4.05	Control	0.5584	0.0	No	3.231	0.001	n/a	NoResponse	0	n/a	n/a	1	76	Fixation	Neutral	False
721.815	0.5	Control	0.5584	0.004	No	3.231	-0.004	n/a	NoResponse	0	n/a	n/a	1	76	Target	Neutral	False
722.316	0.2	Control	0.5584	n/a	No	3.231	n/a	n/a	NoResponse	0	n/a	n/a	1	76	Blank	Neutral	False
722.517	1.45	Control	0.5584	n/a	No	3.231	n/a	5.0	NoResponse	0	0.037	721.554	1	76	Feedback	Neutral	False
723.971	3.231	Control	0.5584	n/a	No	3.231	n/a	n/a	NoResponse	0	0.0	n/a	1	76	ISIslide	Neutral	False
727.214	0.25	Lose2	0.5513	0.001	No	2.586	0.014	n/a	NoResponse	-1	n/a	n/a	0	77	Cue	Loss	False
727.465	3.95	Lose2	0.5513	0.0	No	2.586	0.001	n/a	NoResponse	-1	n/a	n/a	0	77	Fixation	Loss	False
731.41	0.5	Lose2	0.5513	0.004	No	2.586	-0.004	n/a	NoResponse	-1	n/a	n/a	0	77	Target	Loss	False
731.912	0.2	Lose2	0.5513	n/a	No	2.586	n/a	n/a	NoResponse	-1	n/a	n/a	0	77	Blank	Loss	False
732.112	1.45	Lose2	0.5513	n/a	No	2.586	n/a	5.0	NoResponse	-1	0.006	731.118	0	77	Feedback	Loss	False
733.567	2.586	Lose2	0.5513	n/a	No	2.586	n/a	n/a	NoResponse	-1	0.0	n/a	0	77	ISIslide	Loss	False
