onset	duration	cue_type	current_mean_accuracy	duration_error	is_hit	isi_adjusted	onset_delay	response	response_type	reward	rt	rt_time	total_reward	trial_number	trial_phase	trial_type	one_press
11.107	0.25	Control	1.0	0.0	Yes	2.943	0.007	n/a	GoodResponse	0	n/a	n/a	0	0	Cue	Neutral	True
11.357	3.85	Control	1.0	0.001	Yes	2.943	0.0	n/a	GoodResponse	0	n/a	n/a	0	0	Fixation	Neutral	True
15.219	0.4	Control	1.0	0.0	Yes	2.943	0.012	3.0	GoodResponse	0	0.309	14.527999999999993	0	0	Target	Neutral	True
15.528	0.3	Control	1.0	0.0	Yes	2.943	0.012	3.0	GoodResponse	0	0.309	n/a	0	0	ButtonPress	Neutral	True
15.603	0.3	Control	1.0	n/a	Yes	2.943	n/a	n/a	GoodResponse	0	n/a	n/a	0	0	Blank	Neutral	True
15.904	1.45	Control	1.0	n/a	Yes	2.943	n/a	5.0	GoodResponse	0	0.022	14.925999999999993	0	0	Feedback	Neutral	True
17.359	2.943	Control	1.0	n/a	Yes	2.943	n/a	n/a	GoodResponse	0	0.0	n/a	0	0	ISIslide	Neutral	True
20.318	0.25	Lose2	1.0	0.0	Yes	2.782	0.018	n/a	GoodResponse	0	n/a	n/a	0	1	Cue	AvoidedLoss	True
20.568	4.0	Lose2	1.0	0.0	Yes	2.782	0.0	n/a	GoodResponse	0	n/a	n/a	0	1	Fixation	AvoidedLoss	True
24.564	0.39	Lose2	1.0	0.004	Yes	2.782	-0.004	3.0	GoodResponse	0	0.152	23.715999999999994	0	1	Target	AvoidedLoss	True
24.716	0.3	Lose2	1.0	0.004	Yes	2.782	-0.004	3.0	GoodResponse	0	0.152	n/a	0	1	ButtonPress	AvoidedLoss	True
24.965	0.31	Lose2	1.0	n/a	Yes	2.782	n/a	n/a	GoodResponse	0	n/a	n/a	0	1	Blank	AvoidedLoss	True
25.266	1.45	Lose2	1.0	n/a	Yes	2.782	n/a	5.0	GoodResponse	0	0.026	24.291999999999994	0	1	Feedback	AvoidedLoss	True
26.72	2.782	Lose2	1.0	n/a	Yes	2.782	n/a	n/a	GoodResponse	0	0.0	n/a	0	1	ISIslide	AvoidedLoss	True
29.528	0.25	Control	1.0	0.001	Yes	2.572	0.028	n/a	GoodResponse	0	n/a	n/a	0	2	Cue	Neutral	True
29.779	4.1	Control	1.0	0.0	Yes	2.572	0.001	n/a	GoodResponse	0	n/a	n/a	0	2	Fixation	Neutral	True
33.875	0.38	Control	1.0	0.003	Yes	2.572	-0.003	3.0	GoodResponse	0	0.197	33.071999999999996	0	2	Target	Neutral	True
34.072	0.3	Control	1.0	0.003	Yes	2.572	-0.003	3.0	GoodResponse	0	0.197	n/a	0	2	ButtonPress	Neutral	True
34.259	0.32	Control	1.0	n/a	Yes	2.572	n/a	n/a	GoodResponse	0	n/a	n/a	0	2	Blank	Neutral	True
34.577	1.45	Control	1.0	n/a	Yes	2.572	n/a	5.0	GoodResponse	0	0.032	33.608999999999995	0	2	Feedback	Neutral	True
36.031	2.572	Control	1.0	n/a	Yes	2.572	n/a	n/a	GoodResponse	0	0.0	n/a	0	2	ISIslide	Neutral	True
38.622	0.25	Win2	1.0	0.0	Yes	2.828	0.022	n/a	GoodResponse	1	n/a	n/a	1	3	Cue	Win	True
38.873	3.95	Win2	1.0	0.0	Yes	2.828	0.001	n/a	GoodResponse	1	n/a	n/a	1	3	Fixation	Win	True
42.818	0.37	Win2	1.0	0.004	Yes	2.828	-0.004	3.0	GoodResponse	1	0.195	42.01299999999999	1	3	Target	Win	True
43.013	0.3	Win2	1.0	0.004	Yes	2.828	-0.004	3.0	GoodResponse	1	0.195	n/a	1	3	ButtonPress	Win	True
43.203	0.33	Win2	1.0	n/a	Yes	2.828	n/a	n/a	GoodResponse	1	n/a	n/a	1	3	Blank	Win	True
43.52	1.45	Win2	1.0	n/a	Yes	2.828	n/a	5.0	GoodResponse	1	0.016	42.535999999999994	1	3	Feedback	Win	True
44.975	2.828	Win2	1.0	n/a	Yes	2.828	n/a	n/a	GoodResponse	1	0.0	n/a	1	3	ISIslide	Win	True
47.816	0.25	Win2	0.8	0.001	No	3.284	0.016	n/a	NoResponse	0	n/a	n/a	1	4	Cue	MissedWin	True
48.067	4.0	Win2	0.8	0.0	No	3.284	0.001	3.0	NoResponse	0	3.937	51.00399999999999	1	4	Fixation	MissedWin	True
52.004	0.3	Win2	0.8	0.0	No	3.284	0.001	3.0	NoResponse	0	3.937	n/a	1	4	ButtonPress	MissedWin	True
52.062	0.36	Win2	0.8	0.004	No	3.284	-0.004	n/a	NoResponse	0	n/a	n/a	1	4	Target	MissedWin	True
52.43	0.34	Win2	0.8	n/a	No	3.284	n/a	n/a	NoResponse	0	n/a	n/a	1	4	Blank	MissedWin	True
52.765	1.45	Win2	0.8	n/a	No	3.284	n/a	5.0	NoResponse	0	0.039	51.803999999999995	1	4	Feedback	MissedWin	True
54.219	3.284	Win2	0.8	n/a	No	3.284	n/a	n/a	NoResponse	0	0.0	n/a	1	4	ISIslide	MissedWin	True
57.529	0.25	Win2	0.8332999999999999	0.0	Yes	2.771	0.029	n/a	GoodResponse	1	n/a	n/a	2	5	Cue	Win	True
57.78	4.0	Win2	0.8332999999999999	0.0	Yes	2.771	0.001	n/a	GoodResponse	1	n/a	n/a	2	5	Fixation	Win	True
61.775	0.35	Win2	0.8332999999999999	0.004	Yes	2.771	-0.004	3.0	GoodResponse	1	0.189	60.96399999999999	2	5	Target	Win	True
61.964	0.3	Win2	0.8332999999999999	0.004	Yes	2.771	-0.004	3.0	GoodResponse	1	0.189	n/a	2	5	ButtonPress	Win	True
62.126	0.35	Win2	0.8332999999999999	n/a	Yes	2.771	n/a	n/a	GoodResponse	1	n/a	n/a	2	5	Blank	Win	True
62.477	1.45	Win2	0.8332999999999999	n/a	Yes	2.771	n/a	5.0	GoodResponse	1	0.034	61.510999999999996	2	5	Feedback	Win	True
63.931	2.771	Win2	0.8332999999999999	n/a	Yes	2.771	n/a	n/a	GoodResponse	1	0.0	n/a	2	5	ISIslide	Win	True
66.723	0.25	Lose2	0.8571	0.0	Yes	2.727	0.023	n/a	GoodResponse	0	n/a	n/a	2	6	Cue	AvoidedLoss	True
66.974	3.95	Lose2	0.8571	0.0	Yes	2.727	0.001	n/a	GoodResponse	0	n/a	n/a	2	6	Fixation	AvoidedLoss	True
70.919	0.34	Lose2	0.8571	0.004	Yes	2.727	-0.004	3.0	GoodResponse	0	0.202	70.121	2	6	Target	AvoidedLoss	True
71.121	0.3	Lose2	0.8571	0.004	Yes	2.727	-0.004	3.0	GoodResponse	0	0.202	n/a	2	6	ButtonPress	AvoidedLoss	True
71.27	0.36	Lose2	0.8571	n/a	Yes	2.727	n/a	n/a	GoodResponse	0	n/a	n/a	2	6	Blank	AvoidedLoss	True
71.621	1.45	Lose2	0.8571	n/a	Yes	2.727	n/a	5.0	GoodResponse	0	0.011	70.632	2	6	Feedback	AvoidedLoss	True
73.075	2.727	Lose2	0.8571	n/a	Yes	2.727	n/a	n/a	GoodResponse	0	0.0	n/a	2	6	ISIslide	AvoidedLoss	True
75.817	0.25	Lose2	0.875	0.0	Yes	4.033	0.017	n/a	GoodResponse	0	n/a	n/a	2	7	Cue	AvoidedLoss	True
76.068	4.05	Lose2	0.875	0.0	Yes	4.033	0.001	n/a	GoodResponse	0	n/a	n/a	2	7	Fixation	AvoidedLoss	True
80.113	0.33	Lose2	0.875	0.004	Yes	4.033	-0.004	3.0	GoodResponse	0	0.2	79.313	2	7	Target	AvoidedLoss	True
80.313	0.3	Lose2	0.875	0.004	Yes	4.033	-0.004	3.0	GoodResponse	0	0.2	n/a	2	7	ButtonPress	AvoidedLoss	True
80.447	0.37	Lose2	0.875	n/a	Yes	4.033	n/a	n/a	GoodResponse	0	n/a	n/a	2	7	Blank	AvoidedLoss	True
80.815	1.45	Lose2	0.875	n/a	Yes	4.033	n/a	5.0	GoodResponse	0	0.037	79.852	2	7	Feedback	AvoidedLoss	True
82.269	4.033	Lose2	0.875	n/a	Yes	4.033	n/a	n/a	GoodResponse	0	0.0	n/a	2	7	ISIslide	AvoidedLoss	True
86.315	0.25	Lose2	0.8889	0.0	Yes	3.035	0.015	n/a	GoodResponse	0	n/a	n/a	2	8	Cue	AvoidedLoss	True
86.566	3.95	Lose2	0.8889	0.0	Yes	3.035	0.001	n/a	GoodResponse	0	n/a	n/a	2	8	Fixation	AvoidedLoss	True
90.511	0.32	Lose2	0.8889	0.004	Yes	3.035	-0.004	3.0	GoodResponse	0	0.21	89.721	2	8	Target	AvoidedLoss	True
90.721	0.3	Lose2	0.8889	0.004	Yes	3.035	-0.004	3.0	GoodResponse	0	0.21	n/a	2	8	ButtonPress	AvoidedLoss	True
90.845	0.38	Lose2	0.8889	n/a	Yes	3.035	n/a	n/a	GoodResponse	0	n/a	n/a	2	8	Blank	AvoidedLoss	True
91.213	1.45	Lose2	0.8889	n/a	Yes	3.035	n/a	5.0	GoodResponse	0	0.029	90.242	2	8	Feedback	AvoidedLoss	True
92.667	3.035	Lose2	0.8889	n/a	Yes	3.035	n/a	n/a	GoodResponse	0	0.0	n/a	2	8	ISIslide	AvoidedLoss	True
95.726	0.25	Lose2	0.9	0.0	Yes	3.124	0.026	n/a	GoodResponse	0	n/a	n/a	2	9	Cue	AvoidedLoss	True
95.977	3.95	Lose2	0.9	0.0	Yes	3.124	0.001	n/a	GoodResponse	0	n/a	n/a	2	9	Fixation	AvoidedLoss	True
99.922	0.31	Lose2	0.9	0.004	Yes	3.124	-0.004	3.0	GoodResponse	0	0.207	99.129	2	9	Target	AvoidedLoss	True
100.129	0.3	Lose2	0.9	0.004	Yes	3.124	-0.004	3.0	GoodResponse	0	0.207	n/a	2	9	ButtonPress	AvoidedLoss	True
100.24	0.39	Lose2	0.9	n/a	Yes	3.124	n/a	n/a	GoodResponse	0	n/a	n/a	2	9	Blank	AvoidedLoss	True
100.624	1.45	Lose2	0.9	n/a	Yes	3.124	n/a	5.0	GoodResponse	0	0.033	99.657	2	9	Feedback	AvoidedLoss	True
102.079	3.124	Lose2	0.9	n/a	Yes	3.124	n/a	n/a	GoodResponse	0	0.0	n/a	2	9	ISIslide	AvoidedLoss	True
105.221	0.25	Control	0.9091	0.001	Yes	3.279	0.021	n/a	GoodResponse	0	n/a	n/a	2	10	Cue	Neutral	True
105.472	4.0	Control	0.9091	0.0	Yes	3.279	0.001	n/a	GoodResponse	0	n/a	n/a	2	10	Fixation	Neutral	True
109.467	0.3	Control	0.9091	0.004	Yes	3.279	-0.004	3.0	GoodResponse	0	0.215	108.682	2	10	Target	Neutral	True
109.682	0.3	Control	0.9091	0.004	Yes	3.279	-0.004	3.0	GoodResponse	0	0.215	n/a	2	10	ButtonPress	Neutral	True
109.768	0.4	Control	0.9091	n/a	Yes	3.279	n/a	n/a	GoodResponse	0	n/a	n/a	2	10	Blank	Neutral	True
110.17	1.45	Control	0.9091	n/a	Yes	3.279	n/a	5.0	GoodResponse	0	0.048	109.218	2	10	Feedback	Neutral	True
111.624	3.279	Control	0.9091	n/a	Yes	3.279	n/a	n/a	GoodResponse	0	0.0	n/a	2	10	ISIslide	Neutral	True
114.917	0.25	Lose2	0.9167000000000001	0.0	Yes	2.733	0.017	n/a	GoodResponse	0	n/a	n/a	2	11	Cue	AvoidedLoss	True
115.168	4.05	Lose2	0.9167000000000001	0.0	Yes	2.733	0.001	n/a	GoodResponse	0	n/a	n/a	2	11	Fixation	AvoidedLoss	True
119.213	0.29	Lose2	0.9167000000000001	0.004	Yes	2.733	-0.004	3.0	GoodResponse	0	0.208	118.421	2	11	Target	AvoidedLoss	True
119.421	0.3	Lose2	0.9167000000000001	0.004	Yes	2.733	-0.004	3.0	GoodResponse	0	0.208	n/a	2	11	ButtonPress	AvoidedLoss	True
119.514	0.41	Lose2	0.9167000000000001	n/a	Yes	2.733	n/a	n/a	GoodResponse	0	n/a	n/a	2	11	Blank	AvoidedLoss	True
119.915	1.45	Lose2	0.9167000000000001	n/a	Yes	2.733	n/a	5.0	GoodResponse	0	0.01	118.925	2	11	Feedback	AvoidedLoss	True
121.37	2.733	Lose2	0.9167000000000001	n/a	Yes	2.733	n/a	n/a	GoodResponse	0	0.0	n/a	2	11	ISIslide	AvoidedLoss	True
124.128	0.25	Control	0.9231	0.0	Yes	2.972	0.028	n/a	GoodResponse	0	n/a	n/a	2	12	Cue	Neutral	True
124.379	3.9	Control	0.9231	0.0	Yes	2.972	0.001	n/a	GoodResponse	0	n/a	n/a	2	12	Fixation	Neutral	True
128.274	0.28	Control	0.9231	0.004	Yes	2.972	-0.004	3.0	GoodResponse	0	0.205	127.479	2	12	Target	Neutral	True
128.479	0.3	Control	0.9231	0.004	Yes	2.972	-0.004	3.0	GoodResponse	0	0.205	n/a	2	12	ButtonPress	Neutral	True
128.558	0.42	Control	0.9231	n/a	Yes	2.972	n/a	n/a	GoodResponse	0	n/a	n/a	2	12	Blank	Neutral	True
128.976	1.45	Control	0.9231	n/a	Yes	2.972	n/a	5.0	GoodResponse	0	0.022	127.998	2	12	Feedback	Neutral	True
130.43	2.972	Control	0.9231	n/a	Yes	2.972	n/a	n/a	GoodResponse	0	0.0	n/a	2	12	ISIslide	Neutral	True
133.422	0.25	Control	0.9286	0.0	Yes	2.778	0.022	n/a	GoodResponse	0	n/a	n/a	2	13	Cue	Neutral	True
133.673	4.0	Control	0.9286	0.0	Yes	2.778	0.001	n/a	GoodResponse	0	n/a	n/a	2	13	Fixation	Neutral	True
137.668	0.27	Control	0.9286	0.004	Yes	2.778	-0.004	3.0	GoodResponse	0	0.212	136.88	2	13	Target	Neutral	True
137.88	0.3	Control	0.9286	0.004	Yes	2.778	-0.004	3.0	GoodResponse	0	0.212	n/a	2	13	ButtonPress	Neutral	True
137.953	0.43	Control	0.9286	n/a	Yes	2.778	n/a	n/a	GoodResponse	0	n/a	n/a	2	13	Blank	Neutral	True
138.371	1.45	Control	0.9286	n/a	Yes	2.778	n/a	5.0	GoodResponse	0	0.042	137.413	2	13	Feedback	Neutral	True
139.825	2.778	Control	0.9286	n/a	Yes	2.778	n/a	n/a	GoodResponse	0	0.0	n/a	2	13	ISIslide	Neutral	True
142.617	0.25	Win2	0.9333	0.0	Yes	2.683	0.017	n/a	GoodResponse	1	n/a	n/a	3	14	Cue	Win	True
142.867	4.1	Win2	0.9333	0.0	Yes	2.683	0.0	n/a	GoodResponse	1	n/a	n/a	3	14	Fixation	Win	True
146.963	0.26	Win2	0.9333	0.004	Yes	2.683	-0.004	3.0	GoodResponse	1	0.164	146.127	3	14	Target	Win	True
147.127	0.3	Win2	0.9333	0.004	Yes	2.683	-0.004	3.0	GoodResponse	1	0.164	n/a	3	14	ButtonPress	Win	True
147.23	0.44	Win2	0.9333	n/a	Yes	2.683	n/a	n/a	GoodResponse	1	n/a	n/a	3	14	Blank	Win	True
147.665	1.45	Win2	0.9333	n/a	Yes	2.683	n/a	5.0	GoodResponse	1	0.016	146.681	3	14	Feedback	Win	True
149.119	2.683	Win2	0.9333	n/a	Yes	2.683	n/a	n/a	GoodResponse	1	0.0	n/a	3	14	ISIslide	Win	True
151.827	0.25	Control	0.9375	0.001	Yes	2.973	0.027	n/a	GoodResponse	0	n/a	n/a	3	15	Cue	Neutral	True
152.078	4.0	Control	0.9375	0.0	Yes	2.973	0.001	n/a	GoodResponse	0	n/a	n/a	3	15	Fixation	Neutral	True
156.073	0.25	Control	0.9375	0.004	Yes	2.973	-0.004	3.0	GoodResponse	0	0.219	155.292	3	15	Target	Neutral	True
156.292	0.3	Control	0.9375	0.004	Yes	2.973	-0.004	3.0	GoodResponse	0	0.219	n/a	3	15	ButtonPress	Neutral	True
156.324	0.45	Control	0.9375	n/a	Yes	2.973	n/a	n/a	GoodResponse	0	n/a	n/a	3	15	Blank	Neutral	True
156.776	1.45	Control	0.9375	n/a	Yes	2.973	n/a	5.0	GoodResponse	0	0.026	155.802	3	15	Feedback	Neutral	True
158.23	2.973	Control	0.9375	n/a	Yes	2.973	n/a	n/a	GoodResponse	0	0.0	n/a	3	15	ISIslide	Neutral	True
161.222	0.25	Win2	0.9412	0.0	Yes	2.878	0.022	n/a	GoodResponse	1	n/a	n/a	4	16	Cue	Win	True
161.473	4.0	Win2	0.9412	0.0	Yes	2.878	0.001	n/a	GoodResponse	1	n/a	n/a	4	16	Fixation	Win	True
165.468	0.24	Win2	0.9412	0.004	Yes	2.878	-0.004	3.0	GoodResponse	1	0.217	164.685	4	16	Target	Win	True
165.685	0.3	Win2	0.9412	0.004	Yes	2.878	-0.004	3.0	GoodResponse	1	0.217	n/a	4	16	ButtonPress	Win	True
165.719	0.46	Win2	0.9412	n/a	Yes	2.878	n/a	n/a	GoodResponse	1	n/a	n/a	4	16	Blank	Win	True
166.17	1.45	Win2	0.9412	n/a	Yes	2.878	n/a	5.0	GoodResponse	1	0.047	165.217	4	16	Feedback	Win	True
167.625	2.878	Win2	0.9412	n/a	Yes	2.878	n/a	n/a	GoodResponse	1	0.0	n/a	4	16	ISIslide	Win	True
170.517	0.25	Lose2	0.9444	0.0	Yes	2.733	0.017	n/a	GoodResponse	0	n/a	n/a	4	17	Cue	AvoidedLoss	True
170.767	3.95	Lose2	0.9444	0.0	Yes	2.733	0.0	n/a	GoodResponse	0	n/a	n/a	4	17	Fixation	AvoidedLoss	True
174.713	0.23	Lose2	0.9444	0.004	Yes	2.733	-0.004	3.0	GoodResponse	0	0.201	173.914	4	17	Target	AvoidedLoss	True
174.914	0.3	Lose2	0.9444	0.004	Yes	2.733	-0.004	3.0	GoodResponse	0	0.201	n/a	4	17	ButtonPress	AvoidedLoss	True
174.947	0.47	Lose2	0.9444	n/a	Yes	2.733	n/a	n/a	GoodResponse	0	n/a	n/a	4	17	Blank	AvoidedLoss	True
175.415	1.45	Lose2	0.9444	n/a	Yes	2.733	n/a	5.0	GoodResponse	0	0.021	174.436	4	17	Feedback	AvoidedLoss	True
176.869	2.733	Lose2	0.9444	n/a	Yes	2.733	n/a	n/a	GoodResponse	0	0.0	n/a	4	17	ISIslide	AvoidedLoss	True
179.627	0.25	Lose2	0.9473999999999999	0.0	Yes	2.723	0.027	n/a	GoodResponse	0	n/a	n/a	4	18	Cue	AvoidedLoss	True
179.878	4.05	Lose2	0.9473999999999999	0.0	Yes	2.723	0.001	n/a	GoodResponse	0	n/a	n/a	4	18	Fixation	AvoidedLoss	True
183.923	0.22	Lose2	0.9473999999999999	0.004	Yes	2.723	-0.004	3.0	GoodResponse	0	0.207	183.13	4	18	Target	AvoidedLoss	True
184.13	0.3	Lose2	0.9473999999999999	0.004	Yes	2.723	-0.004	3.0	GoodResponse	0	0.207	n/a	4	18	ButtonPress	AvoidedLoss	True
184.157	0.48	Lose2	0.9473999999999999	n/a	Yes	2.723	n/a	n/a	GoodResponse	0	n/a	n/a	4	18	Blank	AvoidedLoss	True
184.625	1.45	Lose2	0.9473999999999999	n/a	Yes	2.723	n/a	5.0	GoodResponse	0	0.031	183.656	4	18	Feedback	AvoidedLoss	True
186.08	2.723	Lose2	0.9473999999999999	n/a	Yes	2.723	n/a	n/a	GoodResponse	0	0.0	n/a	4	18	ISIslide	AvoidedLoss	True
188.821	0.25	Control	0.9	0.0	No	2.929	0.021	n/a	NoResponse	0	n/a	n/a	4	19	Cue	Neutral	True
189.072	3.95	Control	0.9	0.0	No	2.929	0.001	n/a	NoResponse	0	n/a	n/a	4	19	Fixation	Neutral	True
193.017	0.21	Control	0.9	0.004	No	2.929	-0.004	3.0	NoResponse	0	0.234	192.251	4	19	Target	Neutral	True
193.235	0.49	Control	0.9	n/a	No	2.929	n/a	n/a	NoResponse	0	n/a	n/a	4	19	Blank	Neutral	True
193.251	0.3	Control	0.9	0.004	No	2.929	-0.004	3.0	NoResponse	0	0.234	n/a	4	19	ButtonPress	Neutral	True
193.719	1.45	Control	0.9	n/a	No	2.929	n/a	5.0	NoResponse	0	0.01	192.729	4	19	Feedback	Neutral	True
195.174	2.929	Control	0.9	n/a	No	2.929	n/a	n/a	NoResponse	0	0.0	n/a	4	19	ISIslide	Neutral	True
198.116	0.25	Control	0.8571	0.0	No	2.634	0.016	n/a	NoResponse	0	n/a	n/a	4	20	Cue	Neutral	True
198.367	4.05	Control	0.8571	0.0	No	2.634	0.001	n/a	NoResponse	0	n/a	n/a	4	20	Fixation	Neutral	True
202.412	0.2	Control	0.8571	0.004	No	2.634	-0.004	3.0	NoResponse	0	0.211	201.623	4	20	Target	Neutral	True
202.613	0.5	Control	0.8571	n/a	No	2.634	n/a	n/a	NoResponse	0	n/a	n/a	4	20	Blank	Neutral	True
202.623	0.3	Control	0.8571	0.004	No	2.634	-0.004	3.0	NoResponse	0	0.211	n/a	4	20	ButtonPress	Neutral	True
203.114	1.45	Control	0.8571	n/a	No	2.634	n/a	5.0	NoResponse	0	0.029	202.143	4	20	Feedback	Neutral	True
204.568	2.634	Control	0.8571	n/a	No	2.634	n/a	n/a	NoResponse	0	0.0	n/a	4	20	ISIslide	Neutral	True
207.226	0.25	Control	0.8181999999999999	0.0	No	2.774	0.026	n/a	NoResponse	0	n/a	n/a	4	21	Cue	Neutral	True
207.477	4.1	Control	0.8181999999999999	0.0	No	2.774	0.001	n/a	NoResponse	0	n/a	n/a	4	21	Fixation	Neutral	True
211.573	0.19	Control	0.8181999999999999	0.003	No	2.774	-0.003	3.0	NoResponse	0	0.201	210.774	4	21	Target	Neutral	True
211.773	0.51	Control	0.8181999999999999	n/a	No	2.774	n/a	n/a	NoResponse	0	n/a	n/a	4	21	Blank	Neutral	True
211.774	0.3	Control	0.8181999999999999	0.003	No	2.774	-0.003	3.0	NoResponse	0	0.201	n/a	4	21	ButtonPress	Neutral	True
212.275	1.45	Control	0.8181999999999999	n/a	No	2.774	n/a	5.0	NoResponse	0	0.039	211.314	4	21	Feedback	Neutral	True
213.729	2.774	Control	0.8181999999999999	n/a	No	2.774	n/a	n/a	NoResponse	0	0.0	n/a	4	21	ISIslide	Neutral	True
216.521	0.25	Control	0.7826000000000001	0.0	No	2.779	0.021	n/a	NoResponse	0	n/a	n/a	4	22	Cue	Neutral	True
216.772	4.0	Control	0.7826000000000001	0.0	No	2.779	0.001	n/a	NoResponse	0	n/a	n/a	4	22	Fixation	Neutral	True
220.767	0.18	Control	0.7826000000000001	0.004	No	2.779	-0.004	3.0	NoResponse	0	0.192	219.959	4	22	Target	Neutral	True
220.951	0.52	Control	0.7826000000000001	n/a	No	2.779	n/a	n/a	NoResponse	0	n/a	n/a	4	22	Blank	Neutral	True
220.959	0.3	Control	0.7826000000000001	0.004	No	2.779	-0.004	3.0	NoResponse	0	0.192	n/a	4	22	ButtonPress	Neutral	True
221.469	1.45	Control	0.7826000000000001	n/a	No	2.779	n/a	5.0	NoResponse	0	0.016	220.485	4	22	Feedback	Neutral	True
222.923	2.779	Control	0.7826000000000001	n/a	No	2.779	n/a	n/a	NoResponse	0	0.0	n/a	4	22	ISIslide	Neutral	True
225.715	0.25	Control	0.75	0.0	No	2.785	0.015	n/a	NoResponse	0	n/a	n/a	4	23	Cue	Neutral	True
225.966	3.9	Control	0.75	0.0	No	2.785	0.001	n/a	NoResponse	0	n/a	n/a	4	23	Fixation	Neutral	True
229.861	0.17	Control	0.75	0.004	No	2.785	-0.004	3.0	NoResponse	0	0.219	229.08	4	23	Target	Neutral	True
230.045	0.53	Control	0.75	n/a	No	2.785	n/a	n/a	NoResponse	0	n/a	n/a	4	23	Blank	Neutral	True
230.08	0.3	Control	0.75	0.004	No	2.785	-0.004	3.0	NoResponse	0	0.219	n/a	4	23	ButtonPress	Neutral	True
230.563	1.45	Control	0.75	n/a	No	2.785	n/a	5.0	NoResponse	0	0.044	229.607	4	23	Feedback	Neutral	True
232.017	2.785	Control	0.75	n/a	No	2.785	n/a	n/a	NoResponse	0	0.0	n/a	4	23	ISIslide	Neutral	True
234.826	0.25	Win2	0.72	0.0	No	3.124	0.026	n/a	PrematurePress	0	n/a	n/a	4	24	Cue	MissedWin	True
235.076	3.95	Win2	0.72	0.0	No	3.124	0.0	n/a	PrematurePress	0	n/a	n/a	4	24	Fixation	MissedWin	True
239.038	0.16	Win2	0.72	0.0	No	3.124	0.012	3.0	PrematurePress	0	0.022	238.06	4	24	Target	MissedWin	True
239.06	0.3	Win2	0.72	0.0	No	3.124	0.012	3.0	PrematurePress	0	0.022	n/a	4	24	ButtonPress	MissedWin	True
239.189	0.54	Win2	0.72	n/a	No	3.124	n/a	n/a	PrematurePress	0	n/a	n/a	4	24	Blank	MissedWin	True
239.724	1.45	Win2	0.72	n/a	No	3.124	n/a	5.0	PrematurePress	0	0.007	238.731	4	24	Feedback	MissedWin	True
241.178	3.124	Win2	0.72	n/a	No	3.124	n/a	n/a	PrematurePress	0	0.0	n/a	4	24	ISIslide	MissedWin	True
244.321	0.25	Win2	0.6923	0.0	No	3.079	0.021	n/a	NoResponse	0	n/a	n/a	4	25	Cue	MissedWin	True
244.571	4.0	Win2	0.6923	0.0	No	3.079	0.0	n/a	NoResponse	0	n/a	n/a	4	25	Fixation	MissedWin	True
248.567	0.15	Win2	0.6923	0.004	No	3.079	-0.004	3.0	NoResponse	0	0.223	247.79	4	25	Target	MissedWin	True
248.717	0.55	Win2	0.6923	n/a	No	3.079	n/a	n/a	NoResponse	0	n/a	n/a	4	25	Blank	MissedWin	True
248.79	0.3	Win2	0.6923	0.004	No	3.079	-0.004	3.0	NoResponse	0	0.223	n/a	4	25	ButtonPress	MissedWin	True
249.269	1.45	Win2	0.6923	n/a	No	3.079	n/a	5.0	NoResponse	0	0.02	248.289	4	25	Feedback	MissedWin	True
250.723	3.079	Win2	0.6923	n/a	No	3.079	n/a	n/a	NoResponse	0	0.0	n/a	4	25	ISIslide	MissedWin	True
253.816	0.25	Win2	0.6667000000000001	0.0	No	2.934	0.016	n/a	NoResponse	0	n/a	n/a	4	26	Cue	MissedWin	True
254.066	3.95	Win2	0.6667000000000001	0.001	No	2.934	0.0	n/a	NoResponse	0	n/a	n/a	4	26	Fixation	MissedWin	True
258.012	0.15	Win2	0.6667000000000001	0.004	No	2.934	-0.004	3.0	NoResponse	0	0.199	257.211	4	26	Target	MissedWin	True
258.162	0.55	Win2	0.6667000000000001	n/a	No	2.934	n/a	n/a	NoResponse	0	n/a	n/a	4	26	Blank	MissedWin	True
258.211	0.3	Win2	0.6667000000000001	0.004	No	2.934	-0.004	3.0	NoResponse	0	0.199	n/a	4	26	ButtonPress	MissedWin	True
258.714	1.45	Win2	0.6667000000000001	n/a	No	2.934	n/a	5.0	NoResponse	0	0.038	257.752	4	26	Feedback	MissedWin	True
260.168	2.934	Win2	0.6667000000000001	n/a	No	2.934	n/a	n/a	NoResponse	0	0.0	n/a	4	26	ISIslide	MissedWin	True
263.127	0.25	Lose2	0.6429	0.0	No	2.823	0.027	n/a	NoResponse	-1	n/a	n/a	3	27	Cue	Loss	True
263.378	4.05	Lose2	0.6429	0.0	No	2.823	0.001	n/a	NoResponse	-1	n/a	n/a	3	27	Fixation	Loss	True
267.423	0.15	Lose2	0.6429	0.004	No	2.823	-0.004	3.0	NoResponse	-1	0.193	266.616	3	27	Target	Loss	True
267.574	0.55	Lose2	0.6429	n/a	No	2.823	n/a	n/a	NoResponse	-1	n/a	n/a	3	27	Blank	Loss	True
267.616	0.3	Lose2	0.6429	0.004	No	2.823	-0.004	3.0	NoResponse	-1	0.193	n/a	3	27	ButtonPress	Loss	True
268.125	1.45	Lose2	0.6429	n/a	No	2.823	n/a	5.0	NoResponse	-1	0.042	267.167	3	27	Feedback	Loss	True
269.579	2.823	Lose2	0.6429	n/a	No	2.823	n/a	n/a	NoResponse	-1	0.0	n/a	3	27	ISIslide	Loss	True
272.421	0.25	Control	0.6207	0.0	No	2.829	0.021	n/a	NoResponse	0	n/a	n/a	3	28	Cue	Neutral	True
272.672	4.05	Control	0.6207	0.0	No	2.829	0.001	n/a	NoResponse	0	n/a	n/a	3	28	Fixation	Neutral	True
276.718	0.16	Control	0.6207	0.003	No	2.829	-0.003	3.0	NoResponse	0	0.246	275.964	3	28	Target	Neutral	True
276.885	0.54	Control	0.6207	n/a	No	2.829	n/a	n/a	NoResponse	0	n/a	n/a	3	28	Blank	Neutral	True
276.964	0.3	Control	0.6207	0.003	No	2.829	-0.003	3.0	NoResponse	0	0.246	n/a	3	28	ButtonPress	Neutral	True
277.42	1.45	Control	0.6207	n/a	No	2.829	n/a	5.0	NoResponse	0	0.015	276.435	3	28	Feedback	Neutral	True
278.874	2.829	Control	0.6207	n/a	No	2.829	n/a	n/a	NoResponse	0	0.0	n/a	3	28	ISIslide	Neutral	True
281.716	0.25	Lose2	0.6	0.0	No	2.834	0.016	n/a	LatePress	-1	n/a	n/a	2	29	Cue	Loss	True
281.967	3.95	Lose2	0.6	0.0	No	2.834	0.001	n/a	LatePress	-1	n/a	n/a	2	29	Fixation	Loss	True
285.912	0.17	Lose2	0.6	0.004	No	2.834	-0.004	3.0	LatePress	-1	0.182	285.094	2	29	Target	Loss	True
286.094	0.3	Lose2	0.6	0.004	No	2.834	-0.004	3.0	LatePress	-1	0.182	n/a	2	29	ButtonPress	Loss	True
286.096	0.53	Lose2	0.6	n/a	No	2.834	n/a	n/a	LatePress	-1	n/a	n/a	2	29	Blank	Loss	True
286.614	1.45	Lose2	0.6	n/a	No	2.834	n/a	5.0	LatePress	-1	0.04	285.654	2	29	Feedback	Loss	True
288.068	2.834	Lose2	0.6	n/a	No	2.834	n/a	n/a	LatePress	-1	0.0	n/a	2	29	ISIslide	Loss	True
290.927	0.25	Win2	0.5806	0.0	No	2.773	0.027	n/a	NoResponse	0	n/a	n/a	2	30	Cue	MissedWin	True
291.177	3.9	Win2	0.5806	0.0	No	2.773	0.0	n/a	NoResponse	0	n/a	n/a	2	30	Fixation	MissedWin	True
295.089	0.18	Win2	0.5806	0.0	No	2.773	0.012	3.0	NoResponse	0	0.181	294.27	2	30	Target	MissedWin	True
295.256	0.52	Win2	0.5806	n/a	No	2.773	n/a	n/a	NoResponse	0	n/a	n/a	2	30	Blank	MissedWin	True
295.27	0.3	Win2	0.5806	0.0	No	2.773	0.012	3.0	NoResponse	0	0.181	n/a	2	30	ButtonPress	MissedWin	True
295.774	1.45	Win2	0.5806	n/a	No	2.773	n/a	5.0	NoResponse	0	0.002	294.776	2	30	Feedback	MissedWin	True
297.229	2.773	Win2	0.5806	n/a	No	2.773	n/a	n/a	NoResponse	0	0.0	n/a	2	30	ISIslide	MissedWin	True
300.021	0.25	Lose2	0.5625	0.0	No	2.829	0.021	n/a	NoResponse	-1	n/a	n/a	1	31	Cue	Loss	True
300.271	4.05	Lose2	0.5625	0.0	No	2.829	0.0	n/a	NoResponse	-1	n/a	n/a	1	31	Fixation	Loss	True
304.317	0.19	Lose2	0.5625	0.004	No	2.829	-0.004	3.0	NoResponse	-1	0.218	303.535	1	31	Target	Loss	True
304.517	0.51	Lose2	0.5625	n/a	No	2.829	n/a	n/a	NoResponse	-1	n/a	n/a	1	31	Blank	Loss	True
304.535	0.3	Lose2	0.5625	0.004	No	2.829	-0.004	3.0	NoResponse	-1	0.218	n/a	1	31	ButtonPress	Loss	True
305.019	1.45	Lose2	0.5625	n/a	No	2.829	n/a	5.0	NoResponse	-1	0.025	304.044	1	31	Feedback	Loss	True
306.473	2.829	Lose2	0.5625	n/a	No	2.829	n/a	n/a	NoResponse	-1	0.0	n/a	1	31	ISIslide	Loss	True
309.315	0.25	Lose2	0.5758	0.0	Yes	2.635	0.015	n/a	GoodResponse	0	n/a	n/a	1	32	Cue	AvoidedLoss	False
309.566	4.15	Lose2	0.5758	0.0	Yes	2.635	0.001	3.0	GoodResponse	0	3.8	312.366	1	32	Fixation	AvoidedLoss	False
313.366	0.3	Lose2	0.5758	0.0	Yes	2.635	0.001	3.0	GoodResponse	0	3.8	n/a	1	32	ButtonPress	AvoidedLoss	False
313.711	0.2	Lose2	0.5758	0.004	Yes	2.635	-0.004	3.0	GoodResponse	0	0.187	312.898	1	32	Target	AvoidedLoss	False
313.898	0.3	Lose2	0.5758	0.004	Yes	2.635	-0.004	3.0	GoodResponse	0	0.187	n/a	1	32	ButtonPress	AvoidedLoss	False
313.912	0.5	Lose2	0.5758	n/a	Yes	2.635	n/a	n/a	GoodResponse	0	n/a	n/a	1	32	Blank	AvoidedLoss	False
314.414	1.45	Lose2	0.5758	n/a	Yes	2.635	n/a	5.0	GoodResponse	0	0.045	313.459	1	32	Feedback	AvoidedLoss	False
315.868	2.635	Lose2	0.5758	n/a	Yes	2.635	n/a	n/a	GoodResponse	0	0.0	n/a	1	32	ISIslide	AvoidedLoss	False
318.526	0.25	Win2	0.5588000000000001	0.0	No	2.674	0.026	n/a	PrematurePress	0	n/a	n/a	1	33	Cue	MissedWin	False
318.777	4.0	Win2	0.5588000000000001	0.0	No	2.674	0.001	3.0	PrematurePress	0	2.224	320.001	1	33	Fixation	MissedWin	False
321.001	0.3	Win2	0.5588000000000001	0.0	No	2.674	0.001	3.0	PrematurePress	0	2.224	n/a	1	33	ButtonPress	MissedWin	False
322.772	0.21	Win2	0.5588000000000001	0.004	No	2.674	-0.004	3.0	PrematurePress	0	0.009	321.781	1	33	Target	MissedWin	False
322.781	0.3	Win2	0.5588000000000001	0.004	No	2.674	-0.004	3.0	PrematurePress	0	0.009	n/a	1	33	ButtonPress	MissedWin	False
322.989	0.49	Win2	0.5588000000000001	n/a	No	2.674	n/a	n/a	PrematurePress	0	n/a	n/a	1	33	Blank	MissedWin	False
323.474	1.45	Win2	0.5588000000000001	n/a	No	2.674	n/a	5.0	PrematurePress	0	0.01	322.484	1	33	Feedback	MissedWin	False
324.928	2.674	Win2	0.5588000000000001	n/a	No	2.674	n/a	n/a	PrematurePress	0	0.0	n/a	1	33	ISIslide	MissedWin	False
327.62	0.25	Lose2	0.5714	0.0	Yes	2.63	0.02	n/a	GoodResponse	0	n/a	n/a	1	34	Cue	AvoidedLoss	True
327.87	4.05	Lose2	0.5714	0.001	Yes	2.63	0.0	n/a	GoodResponse	0	n/a	n/a	1	34	Fixation	AvoidedLoss	True
331.916	0.22	Lose2	0.5714	0.004	Yes	2.63	-0.004	3.0	GoodResponse	0	0.181	331.097	1	34	Target	AvoidedLoss	True
332.097	0.3	Lose2	0.5714	0.004	Yes	2.63	-0.004	3.0	GoodResponse	0	0.181	n/a	1	34	ButtonPress	AvoidedLoss	True
332.15	0.48	Lose2	0.5714	n/a	Yes	2.63	n/a	n/a	GoodResponse	0	n/a	n/a	1	34	Blank	AvoidedLoss	True
332.618	1.45	Lose2	0.5714	n/a	Yes	2.63	n/a	5.0	GoodResponse	0	0.035	331.653	1	34	Feedback	AvoidedLoss	True
334.072	2.63	Lose2	0.5714	n/a	Yes	2.63	n/a	n/a	GoodResponse	0	0.0	n/a	1	34	ISIslide	AvoidedLoss	True
336.73	0.25	Lose2	0.5832999999999999	0.0	Yes	2.67	0.03	n/a	GoodResponse	0	n/a	n/a	1	35	Cue	AvoidedLoss	True
336.981	4.0	Lose2	0.5832999999999999	0.0	Yes	2.67	0.001	n/a	GoodResponse	0	n/a	n/a	1	35	Fixation	AvoidedLoss	True
340.976	0.23	Lose2	0.5832999999999999	0.004	Yes	2.67	-0.004	3.0	GoodResponse	0	0.197	340.173	1	35	Target	AvoidedLoss	True
341.173	0.3	Lose2	0.5832999999999999	0.004	Yes	2.67	-0.004	3.0	GoodResponse	0	0.197	n/a	1	35	ButtonPress	AvoidedLoss	True
341.21	0.47	Lose2	0.5832999999999999	n/a	Yes	2.67	n/a	n/a	GoodResponse	0	n/a	n/a	1	35	Blank	AvoidedLoss	True
341.678	1.45	Lose2	0.5832999999999999	n/a	Yes	2.67	n/a	5.0	GoodResponse	0	0.049	340.727	1	35	Feedback	AvoidedLoss	True
343.133	2.67	Lose2	0.5832999999999999	n/a	Yes	2.67	n/a	n/a	GoodResponse	0	0.0	n/a	1	35	ISIslide	AvoidedLoss	True
345.824	0.25	Control	0.5946	0.0	Yes	2.676	0.024	n/a	GoodResponse	0	n/a	n/a	1	36	Cue	Neutral	True
346.075	4.0	Control	0.5946	0.0	Yes	2.676	0.001	n/a	GoodResponse	0	n/a	n/a	1	36	Fixation	Neutral	True
350.07	0.24	Control	0.5946	0.004	Yes	2.676	-0.004	3.0	GoodResponse	0	0.199	349.269	1	36	Target	Neutral	True
350.269	0.3	Control	0.5946	0.004	Yes	2.676	-0.004	3.0	GoodResponse	0	0.199	n/a	1	36	ButtonPress	Neutral	True
350.321	0.46	Control	0.5946	n/a	Yes	2.676	n/a	n/a	GoodResponse	0	n/a	n/a	1	36	Blank	Neutral	True
350.772	1.45	Control	0.5946	n/a	Yes	2.676	n/a	5.0	GoodResponse	0	0.028	349.8	1	36	Feedback	Neutral	True
352.227	2.676	Control	0.5946	n/a	Yes	2.676	n/a	n/a	GoodResponse	0	0.0	n/a	1	36	ISIslide	Neutral	True
354.918	0.25	Win2	0.6053000000000001	0.0	Yes	2.882	0.018	n/a	GoodResponse	1	n/a	n/a	2	37	Cue	Win	True
355.169	4.0	Win2	0.6053000000000001	0.0	Yes	2.882	0.001	n/a	GoodResponse	1	n/a	n/a	2	37	Fixation	Win	True
359.164	0.25	Win2	0.6053000000000001	0.004	Yes	2.882	-0.004	3.0	GoodResponse	1	0.189	358.353	2	37	Target	Win	True
359.353	0.3	Win2	0.6053000000000001	0.004	Yes	2.882	-0.004	3.0	GoodResponse	1	0.189	n/a	2	37	ButtonPress	Win	True
359.415	0.45	Win2	0.6053000000000001	n/a	Yes	2.882	n/a	n/a	GoodResponse	1	n/a	n/a	2	37	Blank	Win	True
359.866	1.45	Win2	0.6053000000000001	n/a	Yes	2.882	n/a	5.0	GoodResponse	1	0.008	358.874	2	37	Feedback	Win	True
361.32	2.882	Win2	0.6053000000000001	n/a	Yes	2.882	n/a	n/a	GoodResponse	1	0.0	n/a	2	37	ISIslide	Win	True
364.229	0.25	Lose2	0.6154	0.0	Yes	2.821	0.029	n/a	GoodResponse	0	n/a	n/a	2	38	Cue	AvoidedLoss	True
364.48	3.95	Lose2	0.6154	0.0	Yes	2.821	0.001	n/a	GoodResponse	0	n/a	n/a	2	38	Fixation	AvoidedLoss	True
368.425	0.26	Lose2	0.6154	0.004	Yes	2.821	-0.004	3.0	GoodResponse	0	0.216	367.641	2	38	Target	AvoidedLoss	True
368.641	0.3	Lose2	0.6154	0.004	Yes	2.821	-0.004	3.0	GoodResponse	0	0.216	n/a	2	38	ButtonPress	AvoidedLoss	True
368.693	0.44	Lose2	0.6154	n/a	Yes	2.821	n/a	n/a	GoodResponse	0	n/a	n/a	2	38	Blank	AvoidedLoss	True
369.127	1.45	Lose2	0.6154	n/a	Yes	2.821	n/a	5.0	GoodResponse	0	0.015	368.142	2	38	Feedback	AvoidedLoss	True
370.581	2.821	Lose2	0.6154	n/a	Yes	2.821	n/a	n/a	GoodResponse	0	0.0	n/a	2	38	ISIslide	AvoidedLoss	True
373.423	0.25	Win2	0.625	0.0	Yes	2.977	0.023	n/a	GoodResponse	1	n/a	n/a	3	39	Cue	Win	True
373.674	4.1	Win2	0.625	0.0	Yes	2.977	0.001	n/a	GoodResponse	1	n/a	n/a	3	39	Fixation	Win	True
377.77	0.27	Win2	0.625	0.003	Yes	2.977	-0.003	3.0	GoodResponse	1	0.187	376.957	3	39	Target	Win	True
377.957	0.3	Win2	0.625	0.003	Yes	2.977	-0.003	3.0	GoodResponse	1	0.187	n/a	3	39	ButtonPress	Win	True
378.054	0.43	Win2	0.625	n/a	Yes	2.977	n/a	n/a	GoodResponse	1	n/a	n/a	3	39	Blank	Win	True
378.472	1.45	Win2	0.625	n/a	Yes	2.977	n/a	5.0	GoodResponse	1	0.035	377.507	3	39	Feedback	Win	True
379.926	2.977	Win2	0.625	n/a	Yes	2.977	n/a	n/a	GoodResponse	1	0.0	n/a	3	39	ISIslide	Win	True
382.918	0.25	Win2	0.6341	0.0	Yes	2.732	0.018	n/a	GoodResponse	1	n/a	n/a	4	40	Cue	Win	True
383.169	3.95	Win2	0.6341	0.0	Yes	2.732	0.001	n/a	GoodResponse	1	n/a	n/a	4	40	Fixation	Win	True
387.114	0.28	Win2	0.6341	0.004	Yes	2.732	-0.004	3.0	GoodResponse	1	0.181	386.295	4	40	Target	Win	True
387.295	0.3	Win2	0.6341	0.004	Yes	2.732	-0.004	3.0	GoodResponse	1	0.181	n/a	4	40	ButtonPress	Win	True
387.398	0.42	Win2	0.6341	n/a	Yes	2.732	n/a	n/a	GoodResponse	1	n/a	n/a	4	40	Blank	Win	True
387.816	1.45	Win2	0.6341	n/a	Yes	2.732	n/a	5.0	GoodResponse	1	0.008	386.824	4	40	Feedback	Win	True
389.271	2.732	Win2	0.6341	n/a	Yes	2.732	n/a	n/a	GoodResponse	1	0.0	n/a	4	40	ISIslide	Win	True
392.029	0.25	Win2	0.619	0.0	No	2.771	0.029	n/a	LatePress	0	n/a	n/a	4	41	Cue	MissedWin	True
392.28	3.9	Win2	0.619	0.0	No	2.771	0.001	n/a	LatePress	0	n/a	n/a	4	41	Fixation	MissedWin	True
396.175	0.29	Win2	0.619	0.004	No	2.771	-0.004	3.0	LatePress	0	0.297	395.472	4	41	Target	MissedWin	True
396.472	0.3	Win2	0.619	0.004	No	2.771	-0.004	3.0	LatePress	0	0.297	n/a	4	41	ButtonPress	MissedWin	True
396.476	0.41	Win2	0.619	n/a	No	2.771	n/a	n/a	LatePress	0	n/a	n/a	4	41	Blank	MissedWin	True
396.877	1.45	Win2	0.619	n/a	No	2.771	n/a	5.0	LatePress	0	0.02	395.897	4	41	Feedback	MissedWin	True
398.331	2.771	Win2	0.619	n/a	No	2.771	n/a	n/a	LatePress	0	0.0	n/a	4	41	ISIslide	MissedWin	True
401.123	0.25	Control	0.6279	0.0	Yes	2.927	0.023	n/a	GoodResponse	0	n/a	n/a	4	42	Cue	Neutral	True
401.374	3.85	Control	0.6279	0.0	Yes	2.927	0.001	n/a	GoodResponse	0	n/a	n/a	4	42	Fixation	Neutral	True
405.235	0.3	Control	0.6279	0.0	Yes	2.927	0.012	3.0	GoodResponse	0	0.211	404.446	4	42	Target	Neutral	True
405.446	0.3	Control	0.6279	0.0	Yes	2.927	0.012	3.0	GoodResponse	0	0.211	n/a	4	42	ButtonPress	Neutral	True
405.519	0.4	Control	0.6279	n/a	Yes	2.927	n/a	n/a	GoodResponse	0	n/a	n/a	4	42	Blank	Neutral	True
405.92	1.45	Control	0.6279	n/a	Yes	2.927	n/a	5.0	GoodResponse	0	0.002	404.922	4	42	Feedback	Neutral	True
407.375	2.927	Control	0.6279	n/a	Yes	2.927	n/a	n/a	GoodResponse	0	0.0	n/a	4	42	ISIslide	Neutral	True
410.317	0.25	Win2	0.6364	0.0	Yes	3.183	0.017	n/a	GoodResponse	1	n/a	n/a	5	43	Cue	Win	True
410.568	4.0	Win2	0.6364	0.0	Yes	3.183	0.001	n/a	GoodResponse	1	n/a	n/a	5	43	Fixation	Win	True
414.563	0.31	Win2	0.6364	0.004	Yes	3.183	-0.004	3.0	GoodResponse	1	0.199	413.762	5	43	Target	Win	True
414.762	0.3	Win2	0.6364	0.004	Yes	3.183	-0.004	3.0	GoodResponse	1	0.199	n/a	5	43	ButtonPress	Win	True
414.881	0.39	Win2	0.6364	n/a	Yes	3.183	n/a	n/a	GoodResponse	1	n/a	n/a	5	43	Blank	Win	True
415.265	1.45	Win2	0.6364	n/a	Yes	3.183	n/a	5.0	GoodResponse	1	0.021	414.286	5	43	Feedback	Win	True
416.719	3.183	Win2	0.6364	n/a	Yes	3.183	n/a	n/a	GoodResponse	1	0.0	n/a	5	43	ISIslide	Win	True
419.929	0.25	Win2	0.6444	0.0	Yes	2.971	0.029	n/a	GoodResponse	1	n/a	n/a	6	44	Cue	Win	True
420.18	4.0	Win2	0.6444	0.0	Yes	2.971	0.001	n/a	GoodResponse	1	n/a	n/a	6	44	Fixation	Win	True
424.175	0.32	Win2	0.6444	0.004	Yes	2.971	-0.004	3.0	GoodResponse	1	0.201	423.376	6	44	Target	Win	True
424.376	0.3	Win2	0.6444	0.004	Yes	2.971	-0.004	3.0	GoodResponse	1	0.201	n/a	6	44	ButtonPress	Win	True
424.509	0.38	Win2	0.6444	n/a	Yes	2.971	n/a	n/a	GoodResponse	1	n/a	n/a	6	44	Blank	Win	True
424.877	1.45	Win2	0.6444	n/a	Yes	2.971	n/a	5.0	GoodResponse	1	0.019	423.896	6	44	Feedback	Win	True
426.332	2.971	Win2	0.6444	n/a	Yes	2.971	n/a	n/a	GoodResponse	1	0.0	n/a	6	44	ISIslide	Win	True
429.324	0.25	Control	0.6522	0.0	Yes	2.876	0.024	n/a	GoodResponse	0	n/a	n/a	6	45	Cue	Neutral	True
429.575	4.1	Control	0.6522	0.0	Yes	2.876	0.001	n/a	GoodResponse	0	n/a	n/a	6	45	Fixation	Neutral	True
433.67	0.33	Control	0.6522	0.004	Yes	2.876	-0.004	3.0	GoodResponse	0	0.199	432.869	6	45	Target	Neutral	True
433.869	0.3	Control	0.6522	0.004	Yes	2.876	-0.004	3.0	GoodResponse	0	0.199	n/a	6	45	ButtonPress	Neutral	True
434.004	0.37	Control	0.6522	n/a	Yes	2.876	n/a	n/a	GoodResponse	0	n/a	n/a	6	45	Blank	Neutral	True
434.372	1.45	Control	0.6522	n/a	Yes	2.876	n/a	5.0	GoodResponse	0	0.037	433.409	6	45	Feedback	Neutral	True
435.827	2.876	Control	0.6522	n/a	Yes	2.876	n/a	n/a	GoodResponse	0	0.0	n/a	6	45	ISIslide	Neutral	True
438.719	0.25	Lose2	0.6596	0.0	Yes	3.381	0.019	n/a	GoodResponse	0	n/a	n/a	6	46	Cue	AvoidedLoss	True
438.969	4.0	Lose2	0.6596	0.0	Yes	3.381	0.0	n/a	GoodResponse	0	n/a	n/a	6	46	Fixation	AvoidedLoss	True
442.965	0.34	Lose2	0.6596	0.004	Yes	3.381	-0.004	3.0	GoodResponse	0	0.208	442.173	6	46	Target	AvoidedLoss	True
443.173	0.3	Lose2	0.6596	0.004	Yes	3.381	-0.004	3.0	GoodResponse	0	0.208	n/a	6	46	ButtonPress	AvoidedLoss	True
443.316	0.36	Lose2	0.6596	n/a	Yes	3.381	n/a	n/a	GoodResponse	0	n/a	n/a	6	46	Blank	AvoidedLoss	True
443.667	1.45	Lose2	0.6596	n/a	Yes	3.381	n/a	5.0	GoodResponse	0	0.01	442.677	6	46	Feedback	AvoidedLoss	True
445.121	3.381	Lose2	0.6596	n/a	Yes	3.381	n/a	n/a	GoodResponse	0	0.0	n/a	6	46	ISIslide	AvoidedLoss	True
448.531	0.25	Lose2	0.6667000000000001	0.0	Yes	2.669	0.031	n/a	GoodResponse	0	n/a	n/a	6	47	Cue	AvoidedLoss	True
448.782	4.0	Lose2	0.6667000000000001	0.0	Yes	2.669	0.001	n/a	GoodResponse	0	n/a	n/a	6	47	Fixation	AvoidedLoss	True
452.777	0.34	Lose2	0.6667000000000001	0.004	Yes	2.669	-0.004	3.0	GoodResponse	0	0.184	451.961	6	47	Target	AvoidedLoss	True
452.961	0.3	Lose2	0.6667000000000001	0.004	Yes	2.669	-0.004	3.0	GoodResponse	0	0.184	n/a	6	47	ButtonPress	AvoidedLoss	True
453.128	0.36	Lose2	0.6667000000000001	n/a	Yes	2.669	n/a	n/a	GoodResponse	0	n/a	n/a	6	47	Blank	AvoidedLoss	True
453.479	1.45	Lose2	0.6667000000000001	n/a	Yes	2.669	n/a	5.0	GoodResponse	0	0.006	452.485	6	47	Feedback	AvoidedLoss	True
454.934	2.669	Lose2	0.6667000000000001	n/a	Yes	2.669	n/a	n/a	GoodResponse	0	0.0	n/a	6	47	ISIslide	AvoidedLoss	True
457.625	0.25	Lose2	0.6735	0.0	Yes	3.025	0.025	n/a	GoodResponse	0	n/a	n/a	6	48	Cue	AvoidedLoss	True
457.876	3.95	Lose2	0.6735	0.0	Yes	3.025	0.001	n/a	GoodResponse	0	n/a	n/a	6	48	Fixation	AvoidedLoss	True
461.821	0.33	Lose2	0.6735	0.004	Yes	3.025	-0.004	3.0	GoodResponse	0	0.17	460.991	6	48	Target	AvoidedLoss	True
461.991	0.3	Lose2	0.6735	0.004	Yes	3.025	-0.004	3.0	GoodResponse	0	0.17	n/a	6	48	ButtonPress	AvoidedLoss	True
462.155	0.37	Lose2	0.6735	n/a	Yes	3.025	n/a	n/a	GoodResponse	0	n/a	n/a	6	48	Blank	AvoidedLoss	True
462.523	1.45	Lose2	0.6735	n/a	Yes	3.025	n/a	5.0	GoodResponse	0	0.031	461.554	6	48	Feedback	AvoidedLoss	True
463.977	3.025	Lose2	0.6735	n/a	Yes	3.025	n/a	n/a	GoodResponse	0	0.0	n/a	6	48	ISIslide	AvoidedLoss	True
467.02	0.25	Control	0.68	0.0	Yes	2.88	0.02	n/a	GoodResponse	0	n/a	n/a	6	49	Cue	Neutral	True
467.271	4.0	Control	0.68	0.0	Yes	2.88	0.001	n/a	GoodResponse	0	n/a	n/a	6	49	Fixation	Neutral	True
471.266	0.32	Control	0.68	0.004	Yes	2.88	-0.004	3.0	GoodResponse	0	0.196	470.462	6	49	Target	Neutral	True
471.462	0.3	Control	0.68	0.004	Yes	2.88	-0.004	3.0	GoodResponse	0	0.196	n/a	6	49	ButtonPress	Neutral	True
471.6	0.38	Control	0.68	n/a	Yes	2.88	n/a	n/a	GoodResponse	0	n/a	n/a	6	49	Blank	Neutral	True
471.968	1.45	Control	0.68	n/a	Yes	2.88	n/a	5.0	GoodResponse	0	0.001	470.969	6	49	Feedback	Neutral	True
473.422	2.88	Control	0.68	n/a	Yes	2.88	n/a	n/a	GoodResponse	0	0.0	n/a	6	49	ISIslide	Neutral	True
476.314	0.25	Control	0.6862999999999999	0.0	Yes	2.786	0.014	n/a	GoodResponse	0	n/a	n/a	6	50	Cue	Neutral	True
476.565	4.0	Control	0.6862999999999999	0.0	Yes	2.786	0.001	n/a	GoodResponse	0	n/a	n/a	6	50	Fixation	Neutral	True
480.56	0.31	Control	0.6862999999999999	0.004	Yes	2.786	-0.004	3.0	GoodResponse	0	0.204	479.764	6	50	Target	Neutral	True
480.764	0.3	Control	0.6862999999999999	0.004	Yes	2.786	-0.004	3.0	GoodResponse	0	0.204	n/a	6	50	ButtonPress	Neutral	True
480.878	0.39	Control	0.6862999999999999	n/a	Yes	2.786	n/a	n/a	GoodResponse	0	n/a	n/a	6	50	Blank	Neutral	True
481.262	1.45	Control	0.6862999999999999	n/a	Yes	2.786	n/a	5.0	GoodResponse	0	0.024	480.286	6	50	Feedback	Neutral	True
482.717	2.786	Control	0.6862999999999999	n/a	Yes	2.786	n/a	n/a	GoodResponse	0	0.0	n/a	6	50	ISIslide	Neutral	True
485.525	0.25	Control	0.6923	0.0	Yes	2.725	0.025	n/a	GoodResponse	0	n/a	n/a	6	51	Cue	Neutral	True
485.776	3.95	Control	0.6923	0.0	Yes	2.725	0.001	n/a	GoodResponse	0	n/a	n/a	6	51	Fixation	Neutral	True
489.721	0.3	Control	0.6923	0.004	Yes	2.725	-0.004	3.0	GoodResponse	0	0.228	488.949	6	51	Target	Neutral	True
489.949	0.3	Control	0.6923	0.004	Yes	2.725	-0.004	3.0	GoodResponse	0	0.228	n/a	6	51	ButtonPress	Neutral	True
490.022	0.4	Control	0.6923	n/a	Yes	2.725	n/a	n/a	GoodResponse	0	n/a	n/a	6	51	Blank	Neutral	True
490.423	1.45	Control	0.6923	n/a	Yes	2.725	n/a	5.0	GoodResponse	0	0.034	489.457	6	51	Feedback	Neutral	True
491.877	2.725	Control	0.6923	n/a	Yes	2.725	n/a	n/a	GoodResponse	0	0.0	n/a	6	51	ISIslide	Neutral	True
494.619	0.25	Control	0.6981	0.0	Yes	2.631	0.019	n/a	GoodResponse	0	n/a	n/a	6	52	Cue	Neutral	True
494.87	4.05	Control	0.6981	0.0	Yes	2.631	0.001	n/a	GoodResponse	0	n/a	n/a	6	52	Fixation	Neutral	True
498.915	0.29	Control	0.6981	0.004	Yes	2.631	-0.004	3.0	GoodResponse	0	0.193	498.108	6	52	Target	Neutral	True
499.108	0.3	Control	0.6981	0.004	Yes	2.631	-0.004	3.0	GoodResponse	0	0.193	n/a	6	52	ButtonPress	Neutral	True
499.216	0.41	Control	0.6981	n/a	Yes	2.631	n/a	n/a	GoodResponse	0	n/a	n/a	6	52	Blank	Neutral	True
499.617	1.45	Control	0.6981	n/a	Yes	2.631	n/a	5.0	GoodResponse	0	0.011	498.628	6	52	Feedback	Neutral	True
501.072	2.631	Control	0.6981	n/a	Yes	2.631	n/a	n/a	GoodResponse	0	0.0	n/a	6	52	ISIslide	Neutral	True
503.73	0.25	Win2	0.7037	0.0	Yes	2.92	0.03	n/a	GoodResponse	1	n/a	n/a	7	53	Cue	Win	False
503.98	4.05	Win2	0.7037	0.0	Yes	2.92	0.0	3.0	GoodResponse	1	3.794	506.774	7	53	Fixation	Win	False
507.774	0.3	Win2	0.7037	0.0	Yes	2.92	0.0	3.0	GoodResponse	1	3.794	n/a	7	53	ButtonPress	Win	False
508.026	0.28	Win2	0.7037	0.004	Yes	2.92	-0.004	3.0	GoodResponse	1	0.208	507.234	7	53	Target	Win	False
508.234	0.3	Win2	0.7037	0.004	Yes	2.92	-0.004	3.0	GoodResponse	1	0.208	n/a	7	53	ButtonPress	Win	False
508.31	0.42	Win2	0.7037	n/a	Yes	2.92	n/a	n/a	GoodResponse	1	n/a	n/a	7	53	Blank	Win	False
508.728	1.45	Win2	0.7037	n/a	Yes	2.92	n/a	5.0	GoodResponse	1	0.021	507.749	7	53	Feedback	Win	False
510.182	2.92	Win2	0.7037	n/a	Yes	2.92	n/a	n/a	GoodResponse	1	0.0	n/a	7	53	ISIslide	Win	False
513.124	0.25	Win2	0.7091	0.0	Yes	2.726	0.024	n/a	GoodResponse	1	n/a	n/a	8	54	Cue	Win	True
513.375	3.95	Win2	0.7091	0.0	Yes	2.726	0.001	n/a	GoodResponse	1	n/a	n/a	8	54	Fixation	Win	True
517.32	0.27	Win2	0.7091	0.004	Yes	2.726	-0.004	3.0	GoodResponse	1	0.202	516.522	8	54	Target	Win	True
517.522	0.3	Win2	0.7091	0.004	Yes	2.726	-0.004	3.0	GoodResponse	1	0.202	n/a	8	54	ButtonPress	Win	True
517.604	0.43	Win2	0.7091	n/a	Yes	2.726	n/a	n/a	GoodResponse	1	n/a	n/a	8	54	Blank	Win	True
518.022	1.45	Win2	0.7091	n/a	Yes	2.726	n/a	5.0	GoodResponse	1	0.044	517.066	8	54	Feedback	Win	True
519.477	2.726	Win2	0.7091	n/a	Yes	2.726	n/a	n/a	GoodResponse	1	0.0	n/a	8	54	ISIslide	Win	True
522.218	0.25	Control	0.7143	0.0	Yes	3.032	0.018	n/a	GoodResponse	0	n/a	n/a	8	55	Cue	Neutral	True
522.469	3.95	Control	0.7143	0.0	Yes	3.032	0.001	n/a	GoodResponse	0	n/a	n/a	8	55	Fixation	Neutral	True
526.414	0.26	Control	0.7143	0.004	Yes	3.032	-0.004	3.0	GoodResponse	0	0.18	525.594	8	55	Target	Neutral	True
526.594	0.3	Control	0.7143	0.004	Yes	3.032	-0.004	3.0	GoodResponse	0	0.18	n/a	8	55	ButtonPress	Neutral	True
526.682	0.44	Control	0.7143	n/a	Yes	3.032	n/a	n/a	GoodResponse	0	n/a	n/a	8	55	Blank	Neutral	True
527.116	1.45	Control	0.7143	n/a	Yes	3.032	n/a	5.0	GoodResponse	0	0.023	526.139	8	55	Feedback	Neutral	True
528.571	3.032	Control	0.7143	n/a	Yes	3.032	n/a	n/a	GoodResponse	0	0.0	n/a	8	55	ISIslide	Neutral	True
531.63	0.25	Control	0.7193	0.0	Yes	2.82	0.03	n/a	GoodResponse	0	n/a	n/a	8	56	Cue	Neutral	True
531.88	3.95	Control	0.7193	0.0	Yes	2.82	0.0	n/a	GoodResponse	0	n/a	n/a	8	56	Fixation	Neutral	True
535.826	0.25	Control	0.7193	0.004	Yes	2.82	-0.004	3.0	GoodResponse	0	0.194	535.02	8	56	Target	Neutral	True
536.02	0.3	Control	0.7193	0.004	Yes	2.82	-0.004	3.0	GoodResponse	0	0.194	n/a	8	56	ButtonPress	Neutral	True
536.076	0.45	Control	0.7193	n/a	Yes	2.82	n/a	n/a	GoodResponse	0	n/a	n/a	8	56	Blank	Neutral	True
536.528	1.45	Control	0.7193	n/a	Yes	2.82	n/a	5.0	GoodResponse	0	0.026	535.554	8	56	Feedback	Neutral	True
537.982	2.82	Control	0.7193	n/a	Yes	2.82	n/a	n/a	GoodResponse	0	0.0	n/a	8	56	ISIslide	Neutral	True
540.824	0.25	Control	0.7241	0.0	Yes	3.476	0.024	n/a	GoodResponse	0	n/a	n/a	8	57	Cue	Neutral	True
541.075	4.0	Control	0.7241	0.0	Yes	3.476	0.001	n/a	GoodResponse	0	n/a	n/a	8	57	Fixation	Neutral	True
545.07	0.24	Control	0.7241	0.004	Yes	3.476	-0.004	3.0	GoodResponse	0	0.208	544.278	8	57	Target	Neutral	True
545.278	0.3	Control	0.7241	0.004	Yes	3.476	-0.004	3.0	GoodResponse	0	0.208	n/a	8	57	ButtonPress	Neutral	True
545.321	0.46	Control	0.7241	n/a	Yes	3.476	n/a	n/a	GoodResponse	0	n/a	n/a	8	57	Blank	Neutral	True
545.772	1.45	Control	0.7241	n/a	Yes	3.476	n/a	5.0	GoodResponse	0	0.001	544.773	8	57	Feedback	Neutral	True
547.226	3.476	Control	0.7241	n/a	Yes	3.476	n/a	n/a	GoodResponse	0	0.0	n/a	8	57	ISIslide	Neutral	True
550.72	0.25	Win2	0.7288	0.0	Yes	2.73	0.02	n/a	GoodResponse	1	n/a	n/a	9	58	Cue	Win	True
550.971	4.05	Win2	0.7288	0.0	Yes	2.73	0.001	n/a	GoodResponse	1	n/a	n/a	9	58	Fixation	Win	True
555.016	0.23	Win2	0.7288	0.004	Yes	2.73	-0.004	3.0	GoodResponse	1	0.216	554.232	9	58	Target	Win	True
555.232	0.3	Win2	0.7288	0.004	Yes	2.73	-0.004	3.0	GoodResponse	1	0.216	n/a	9	58	ButtonPress	Win	True
555.25	0.47	Win2	0.7288	n/a	Yes	2.73	n/a	n/a	GoodResponse	1	n/a	n/a	9	58	Blank	Win	True
555.718	1.45	Win2	0.7288	n/a	Yes	2.73	n/a	5.0	GoodResponse	1	0.007	554.725	9	58	Feedback	Win	True
557.173	2.73	Win2	0.7288	n/a	Yes	2.73	n/a	n/a	GoodResponse	1	0.0	n/a	9	58	ISIslide	Win	True
559.931	0.25	Lose2	0.7333	0.0	Yes	2.669	0.031	n/a	GoodResponse	0	n/a	n/a	9	59	Cue	AvoidedLoss	True
560.182	4.0	Lose2	0.7333	0.0	Yes	2.669	0.001	n/a	GoodResponse	0	n/a	n/a	9	59	Fixation	AvoidedLoss	True
564.177	0.22	Lose2	0.7333	0.004	Yes	2.669	-0.004	3.0	GoodResponse	0	0.187	563.364	9	59	Target	AvoidedLoss	True
564.364	0.3	Lose2	0.7333	0.004	Yes	2.669	-0.004	3.0	GoodResponse	0	0.187	n/a	9	59	ButtonPress	AvoidedLoss	True
564.411	0.48	Lose2	0.7333	n/a	Yes	2.669	n/a	n/a	GoodResponse	0	n/a	n/a	9	59	Blank	AvoidedLoss	True
564.879	1.45	Lose2	0.7333	n/a	Yes	2.669	n/a	5.0	GoodResponse	0	0.016	563.895	9	59	Feedback	AvoidedLoss	True
566.333	2.669	Lose2	0.7333	n/a	Yes	2.669	n/a	n/a	GoodResponse	0	0.0	n/a	9	59	ISIslide	AvoidedLoss	True
569.025	0.25	Control	0.7212999999999999	0.0	No	2.675	0.025	n/a	NoResponse	0	n/a	n/a	9	60	Cue	Neutral	True
569.276	4.0	Control	0.7212999999999999	0.0	No	2.675	0.001	n/a	NoResponse	0	n/a	n/a	9	60	Fixation	Neutral	True
573.271	0.21	Control	0.7212999999999999	0.004	No	2.675	-0.004	3.0	NoResponse	0	0.218	572.489	9	60	Target	Neutral	True
573.488	0.49	Control	0.7212999999999999	n/a	No	2.675	n/a	n/a	NoResponse	0	n/a	n/a	9	60	Blank	Neutral	True
573.489	0.3	Control	0.7212999999999999	0.004	No	2.675	-0.004	3.0	NoResponse	0	0.218	n/a	9	60	ButtonPress	Neutral	True
573.973	1.45	Control	0.7212999999999999	n/a	No	2.675	n/a	5.0	NoResponse	0	0.044	573.017	9	60	Feedback	Neutral	True
575.427	2.675	Control	0.7212999999999999	n/a	No	2.675	n/a	n/a	NoResponse	0	0.0	n/a	9	60	ISIslide	Neutral	True
578.119	0.25	Lose2	0.7097	0.0	No	2.981	0.019	n/a	LatePress	-1	n/a	n/a	8	61	Cue	Loss	True
578.369	4.0	Lose2	0.7097	0.0	No	2.981	0.0	n/a	LatePress	-1	n/a	n/a	8	61	Fixation	Loss	True
582.365	0.2	Lose2	0.7097	0.004	No	2.981	-0.004	3.0	LatePress	-1	0.203	581.568	8	61	Target	Loss	True
582.565	0.5	Lose2	0.7097	n/a	No	2.981	n/a	n/a	LatePress	-1	n/a	n/a	8	61	Blank	Loss	True
582.568	0.3	Lose2	0.7097	0.004	No	2.981	-0.004	3.0	LatePress	-1	0.203	n/a	8	61	ButtonPress	Loss	True
583.067	1.45	Lose2	0.7097	n/a	No	2.981	n/a	5.0	LatePress	-1	0.023	582.09	8	61	Feedback	Loss	True
584.521	2.981	Lose2	0.7097	n/a	No	2.981	n/a	n/a	LatePress	-1	0.0	n/a	8	61	ISIslide	Loss	True
587.53	0.25	Lose2	0.6984	0.0	No	2.87	0.03	n/a	NoResponse	-1	n/a	n/a	7	62	Cue	Loss	True
587.781	3.9	Lose2	0.6984	0.0	No	2.87	0.001	n/a	NoResponse	-1	n/a	n/a	7	62	Fixation	Loss	True
591.676	0.19	Lose2	0.6984	0.004	No	2.87	-0.004	3.0	NoResponse	-1	0.208	590.884	7	62	Target	Loss	True
591.876	0.51	Lose2	0.6984	n/a	No	2.87	n/a	n/a	NoResponse	-1	n/a	n/a	7	62	Blank	Loss	True
591.884	0.3	Lose2	0.6984	0.004	No	2.87	-0.004	3.0	NoResponse	-1	0.208	n/a	7	62	ButtonPress	Loss	True
592.378	1.45	Lose2	0.6984	n/a	No	2.87	n/a	5.0	NoResponse	-1	0.028	591.406	7	62	Feedback	Loss	True
593.832	2.87	Lose2	0.6984	n/a	No	2.87	n/a	n/a	NoResponse	-1	0.0	n/a	7	62	ISIslide	Loss	True
596.724	0.25	Lose2	0.6875	0.0	No	2.626	0.024	n/a	NoResponse	-1	n/a	n/a	6	63	Cue	Loss	True
596.975	4.05	Lose2	0.6875	0.0	No	2.626	0.001	n/a	NoResponse	-1	n/a	n/a	6	63	Fixation	Loss	True
601.02	0.18	Lose2	0.6875	0.004	No	2.626	-0.004	3.0	NoResponse	-1	0.249	600.269	6	63	Target	Loss	True
601.204	0.52	Lose2	0.6875	n/a	No	2.626	n/a	n/a	NoResponse	-1	n/a	n/a	6	63	Blank	Loss	True
601.269	0.3	Lose2	0.6875	0.004	No	2.626	-0.004	3.0	NoResponse	-1	0.249	n/a	6	63	ButtonPress	Loss	True
601.723	1.45	Lose2	0.6875	n/a	No	2.626	n/a	5.0	NoResponse	-1	0.0	600.723	6	63	Feedback	Loss	True
603.177	2.626	Lose2	0.6875	n/a	No	2.626	n/a	n/a	NoResponse	-1	0.0	n/a	6	63	ISIslide	Loss	True
605.818	0.25	Win2	0.6769	0.0	No	3.132	0.018	n/a	LatePress	0	n/a	n/a	6	64	Cue	MissedWin	True
606.069	4.15	Win2	0.6769	0.0	No	3.132	0.001	n/a	LatePress	0	n/a	n/a	6	64	Fixation	MissedWin	True
610.215	0.17	Win2	0.6769	0.003	No	3.132	-0.003	3.0	LatePress	0	0.179	609.394	6	64	Target	MissedWin	True
610.394	0.3	Win2	0.6769	0.003	No	3.132	-0.003	3.0	LatePress	0	0.179	n/a	6	64	ButtonPress	MissedWin	True
610.399	0.53	Win2	0.6769	n/a	No	3.132	n/a	n/a	LatePress	0	n/a	n/a	6	64	Blank	MissedWin	True
610.917	1.45	Win2	0.6769	n/a	No	3.132	n/a	5.0	LatePress	0	0.026	609.943	6	64	Feedback	MissedWin	True
612.371	3.132	Win2	0.6769	n/a	No	3.132	n/a	3.0	LatePress	0	2.629	n/a	6	64	ISIslide	MissedWin	True
615.497	0.25	Control	0.6667000000000001	0.0	No	2.803	-0.003	n/a	PrematurePress	0	n/a	n/a	6	65	Cue	Neutral	False
615.748	4.0	Control	0.6667000000000001	0.0	No	2.803	0.001	3.0	PrematurePress	0	2.015	616.763	6	65	Fixation	Neutral	False
617.763	0.3	Control	0.6667000000000001	0.0	No	2.803	0.001	3.0	PrematurePress	0	2.015	n/a	6	65	ButtonPress	Neutral	False
619.743	0.16	Control	0.6667000000000001	0.004	No	2.803	-0.004	3.0	PrematurePress	0	0.019	618.762	6	65	Target	Neutral	False
619.762	0.3	Control	0.6667000000000001	0.004	No	2.803	-0.004	3.0	PrematurePress	0	0.019	n/a	6	65	ButtonPress	Neutral	False
619.91	0.54	Control	0.6667000000000001	n/a	No	2.803	n/a	n/a	PrematurePress	0	n/a	n/a	6	65	Blank	Neutral	False
620.445	1.45	Control	0.6667000000000001	n/a	No	2.803	n/a	5.0	PrematurePress	0	0.01	619.455	6	65	Feedback	Neutral	False
621.9	2.803	Control	0.6667000000000001	n/a	No	2.803	n/a	3.0	PrematurePress	0	1.17	n/a	6	65	ISIslide	Neutral	False
624.708	0.25	Win2	0.6567000000000001	0.0	No	2.792	0.008	3.0	PrematurePress	0	0.198	623.906	6	66	Cue	MissedWin	False
624.906	0.3	Win2	0.6567000000000001	0.0	No	2.792	0.008	3.0	PrematurePress	0	0.198	n/a	6	66	ButtonPress	MissedWin	False
624.959	3.9	Win2	0.6567000000000001	0.0	No	2.792	0.001	3.0	PrematurePress	0	0.201	624.16	6	66	Fixation	MissedWin	False
625.16	0.3	Win2	0.6567000000000001	0.0	No	2.792	0.001	3.0	PrematurePress	0	0.201	n/a	6	66	ButtonPress	MissedWin	False
628.854	0.15	Win2	0.6567000000000001	0.004	No	2.792	-0.004	3.0	PrematurePress	0	0.023	627.877	6	66	Target	MissedWin	False
628.877	0.3	Win2	0.6567000000000001	0.004	No	2.792	-0.004	3.0	PrematurePress	0	0.023	n/a	6	66	ButtonPress	MissedWin	False
629.004	0.55	Win2	0.6567000000000001	n/a	No	2.792	n/a	n/a	PrematurePress	0	n/a	n/a	6	66	Blank	MissedWin	False
629.556	1.45	Win2	0.6567000000000001	n/a	No	2.792	n/a	5.0	PrematurePress	0	0.02	628.576	6	66	Feedback	MissedWin	False
631.01	2.792	Win2	0.6567000000000001	n/a	No	2.792	n/a	3.0	PrematurePress	0	0.213	n/a	6	66	ISIslide	MissedWin	False
633.802	0.25	Control	0.6470999999999999	0.0	No	2.748	0.002	3.0	NoResponse	0	0.15	632.952	6	67	Cue	Neutral	False
633.952	0.3	Control	0.6470999999999999	0.0	No	2.748	0.002	3.0	NoResponse	0	0.15	n/a	6	67	ButtonPress	Neutral	False
634.053	3.95	Control	0.6470999999999999	0.0	No	2.748	0.001	3.0	NoResponse	0	0.105	633.158	6	67	Fixation	Neutral	False
634.158	0.3	Control	0.6470999999999999	0.0	No	2.748	0.001	3.0	NoResponse	0	0.105	n/a	6	67	ButtonPress	Neutral	False
637.998	0.15	Control	0.6470999999999999	0.004	No	2.748	-0.004	3.0	NoResponse	0	0.219	637.217	6	67	Target	Neutral	False
638.148	0.55	Control	0.6470999999999999	n/a	No	2.748	n/a	n/a	NoResponse	0	n/a	n/a	6	67	Blank	Neutral	False
638.217	0.3	Control	0.6470999999999999	0.004	No	2.748	-0.004	3.0	NoResponse	0	0.219	n/a	6	67	ButtonPress	Neutral	False
638.7	1.45	Control	0.6470999999999999	n/a	No	2.748	n/a	5.0	NoResponse	0	0.047	637.747	6	67	Feedback	Neutral	False
640.154	2.748	Control	0.6470999999999999	n/a	No	2.748	n/a	n/a	NoResponse	0	0.0	n/a	6	67	ISIslide	Neutral	False
642.929	0.25	Win2	0.6522	0.0	Yes	3.071	0.029	n/a	GoodResponse	1	n/a	n/a	7	68	Cue	Win	False
643.18	4.0	Win2	0.6522	0.0	Yes	3.071	0.001	3.0	GoodResponse	1	0.07	642.25	7	68	Fixation	Win	False
643.25	0.3	Win2	0.6522	0.0	Yes	3.071	0.001	3.0	GoodResponse	1	0.07	n/a	7	68	ButtonPress	Win	False
647.175	0.16	Win2	0.6522	0.004	Yes	3.071	-0.004	3.0	GoodResponse	1	0.147	646.322	7	68	Target	Win	False
647.322	0.3	Win2	0.6522	0.004	Yes	3.071	-0.004	3.0	GoodResponse	1	0.147	n/a	7	68	ButtonPress	Win	False
647.342	0.54	Win2	0.6522	n/a	Yes	3.071	n/a	n/a	GoodResponse	1	n/a	n/a	7	68	Blank	Win	False
647.877	1.45	Win2	0.6522	n/a	Yes	3.071	n/a	5.0	GoodResponse	1	0.041	646.918	7	68	Feedback	Win	False
649.332	3.071	Win2	0.6522	n/a	Yes	3.071	n/a	n/a	GoodResponse	1	0.0	n/a	7	68	ISIslide	Win	False
652.424	0.25	Win2	0.6429	0.0	No	3.226	0.024	n/a	NoResponse	0	n/a	n/a	7	69	Cue	MissedWin	False
652.675	3.95	Win2	0.6429	0.0	No	3.226	0.001	3.0	NoResponse	0	0.494	652.169	7	69	Fixation	MissedWin	False
653.169	0.3	Win2	0.6429	0.0	No	3.226	0.001	3.0	NoResponse	0	0.494	n/a	7	69	ButtonPress	MissedWin	False
656.62	0.17	Win2	0.6429	0.004	No	3.226	-0.004	3.0	NoResponse	0	0.226	655.846	7	69	Target	MissedWin	False
656.804	0.53	Win2	0.6429	n/a	No	3.226	n/a	n/a	NoResponse	0	n/a	n/a	7	69	Blank	MissedWin	False
656.846	0.3	Win2	0.6429	0.004	No	3.226	-0.004	3.0	NoResponse	0	0.226	n/a	7	69	ButtonPress	MissedWin	False
657.322	1.45	Win2	0.6429	n/a	No	3.226	n/a	5.0	NoResponse	0	0.011	656.333	7	69	Feedback	MissedWin	False
658.776	3.226	Win2	0.6429	n/a	No	3.226	n/a	3.0	NoResponse	0	0.025	n/a	7	69	ISIslide	MissedWin	False
662.003	0.25	Lose2	0.6479	0.0	Yes	3.047	0.003	3.0	GoodResponse	0	0.231	661.234	7	70	Cue	AvoidedLoss	False
662.234	0.3	Lose2	0.6479	0.0	Yes	3.047	0.003	3.0	GoodResponse	0	0.231	n/a	7	70	ButtonPress	AvoidedLoss	False
662.254	4.05	Lose2	0.6479	0.0	Yes	3.047	0.001	3.0	GoodResponse	0	0.218	661.472	7	70	Fixation	AvoidedLoss	False
662.472	0.3	Lose2	0.6479	0.0	Yes	3.047	0.001	3.0	GoodResponse	0	0.218	n/a	7	70	ButtonPress	AvoidedLoss	False
666.299	0.18	Lose2	0.6479	0.004	Yes	3.047	-0.004	3.0	GoodResponse	0	0.15	665.449	7	70	Target	AvoidedLoss	False
666.449	0.3	Lose2	0.6479	0.004	Yes	3.047	-0.004	3.0	GoodResponse	0	0.15	n/a	7	70	ButtonPress	AvoidedLoss	False
666.483	0.52	Lose2	0.6479	n/a	Yes	3.047	n/a	n/a	GoodResponse	0	n/a	n/a	7	70	Blank	AvoidedLoss	False
667.001	1.45	Lose2	0.6479	n/a	Yes	3.047	n/a	5.0	GoodResponse	0	0.039	666.04	7	70	Feedback	AvoidedLoss	False
668.455	3.047	Lose2	0.6479	n/a	Yes	3.047	n/a	n/a	GoodResponse	0	0.0	n/a	7	70	ISIslide	AvoidedLoss	False
671.531	0.25	Win2	0.6528	0.0	Yes	2.719	0.031	n/a	GoodResponse	1	n/a	n/a	8	71	Cue	Win	False
671.782	4.05	Win2	0.6528	0.0	Yes	2.719	0.001	3.0	GoodResponse	1	0.384	671.166	8	71	Fixation	Win	False
672.166	0.3	Win2	0.6528	0.0	Yes	2.719	0.001	3.0	GoodResponse	1	0.384	n/a	8	71	ButtonPress	Win	False
675.827	0.19	Win2	0.6528	0.004	Yes	2.719	-0.004	3.0	GoodResponse	1	0.184	675.011	8	71	Target	Win	False
676.011	0.3	Win2	0.6528	0.004	Yes	2.719	-0.004	3.0	GoodResponse	1	0.184	n/a	8	71	ButtonPress	Win	False
676.028	0.51	Win2	0.6528	n/a	Yes	2.719	n/a	n/a	GoodResponse	1	n/a	n/a	8	71	Blank	Win	False
676.53	1.45	Win2	0.6528	n/a	Yes	2.719	n/a	5.0	GoodResponse	1	0.021	675.551	8	71	Feedback	Win	False
677.984	2.719	Win2	0.6528	n/a	Yes	2.719	n/a	n/a	GoodResponse	1	0.0	n/a	8	71	ISIslide	Win	False
680.725	0.25	Win2	0.6437999999999999	0.001	No	2.775	0.025	3.0	PrematurePress	0	0.23	679.955	8	72	Cue	MissedWin	False
680.955	0.3	Win2	0.6437999999999999	0.001	No	2.775	0.025	3.0	PrematurePress	0	0.23	n/a	8	72	ButtonPress	MissedWin	False
680.976	4.1	Win2	0.6437999999999999	0.0	No	2.775	0.001	3.0	PrematurePress	0	3.942	683.918	8	72	Fixation	MissedWin	False
684.918	0.3	Win2	0.6437999999999999	0.0	No	2.775	0.001	3.0	PrematurePress	0	3.942	n/a	8	72	ButtonPress	MissedWin	False
685.072	0.2	Win2	0.6437999999999999	0.003	No	2.775	-0.003	3.0	PrematurePress	0	0.008	684.08	8	72	Target	MissedWin	False
685.08	0.3	Win2	0.6437999999999999	0.003	No	2.775	-0.003	3.0	PrematurePress	0	0.008	n/a	8	72	ButtonPress	MissedWin	False
685.272	0.5	Win2	0.6437999999999999	n/a	No	2.775	n/a	n/a	PrematurePress	0	n/a	n/a	8	72	Blank	MissedWin	False
685.774	1.45	Win2	0.6437999999999999	n/a	No	2.775	n/a	5.0	PrematurePress	0	0.046	684.82	8	72	Feedback	MissedWin	False
687.228	2.775	Win2	0.6437999999999999	n/a	No	2.775	n/a	n/a	PrematurePress	0	0.0	n/a	8	72	ISIslide	MissedWin	False
690.02	0.25	Win2	0.6486	0.0	Yes	2.68	0.02	n/a	GoodResponse	1	n/a	n/a	9	73	Cue	Win	True
690.271	4.0	Win2	0.6486	0.0	Yes	2.68	0.001	n/a	GoodResponse	1	n/a	n/a	9	73	Fixation	Win	True
694.266	0.21	Win2	0.6486	0.004	Yes	2.68	-0.004	3.0	GoodResponse	1	0.192	693.458	9	73	Target	Win	True
694.458	0.3	Win2	0.6486	0.004	Yes	2.68	-0.004	3.0	GoodResponse	1	0.192	n/a	9	73	ButtonPress	Win	True
694.483	0.49	Win2	0.6486	n/a	Yes	2.68	n/a	n/a	GoodResponse	1	n/a	n/a	9	73	Blank	Win	True
694.968	1.45	Win2	0.6486	n/a	Yes	2.68	n/a	5.0	GoodResponse	1	0.023	693.991	9	73	Feedback	Win	True
696.422	2.68	Win2	0.6486	n/a	Yes	2.68	n/a	n/a	GoodResponse	1	0.0	n/a	9	73	ISIslide	Win	True
699.13	0.25	Lose2	0.6533	0.001	Yes	2.62	0.03	n/a	GoodResponse	0	n/a	n/a	9	74	Cue	AvoidedLoss	False
699.381	4.05	Lose2	0.6533	0.0	Yes	2.62	0.001	3.0	GoodResponse	0	0.878	699.259	9	74	Fixation	AvoidedLoss	False
700.259	0.3	Lose2	0.6533	0.0	Yes	2.62	0.001	3.0	GoodResponse	0	0.878	n/a	9	74	ButtonPress	AvoidedLoss	False
703.427	0.22	Lose2	0.6533	0.003	Yes	2.62	-0.003	3.0	GoodResponse	0	0.171	702.598	9	74	Target	AvoidedLoss	False
703.598	0.3	Lose2	0.6533	0.003	Yes	2.62	-0.003	3.0	GoodResponse	0	0.171	n/a	9	74	ButtonPress	AvoidedLoss	False
703.661	0.48	Lose2	0.6533	n/a	Yes	2.62	n/a	n/a	GoodResponse	0	n/a	n/a	9	74	Blank	AvoidedLoss	False
704.129	1.45	Lose2	0.6533	n/a	Yes	2.62	n/a	5.0	GoodResponse	0	0.033	703.162	9	74	Feedback	AvoidedLoss	False
705.583	2.62	Lose2	0.6533	n/a	Yes	2.62	n/a	n/a	GoodResponse	0	0.0	n/a	9	74	ISIslide	AvoidedLoss	False
708.224	0.25	Lose2	0.6579	0.0	Yes	2.926	0.024	n/a	GoodResponse	0	n/a	n/a	9	75	Cue	AvoidedLoss	True
708.475	3.95	Lose2	0.6579	0.0	Yes	2.926	0.001	n/a	GoodResponse	0	n/a	n/a	9	75	Fixation	AvoidedLoss	True
712.42	0.23	Lose2	0.6579	0.004	Yes	2.926	-0.004	3.0	GoodResponse	0	0.197	711.617	9	75	Target	AvoidedLoss	True
712.617	0.3	Lose2	0.6579	0.004	Yes	2.926	-0.004	3.0	GoodResponse	0	0.197	n/a	9	75	ButtonPress	AvoidedLoss	True
712.654	0.47	Lose2	0.6579	n/a	Yes	2.926	n/a	n/a	GoodResponse	0	n/a	n/a	9	75	Blank	AvoidedLoss	True
713.122	1.45	Lose2	0.6579	n/a	Yes	2.926	n/a	5.0	GoodResponse	0	0.015	712.137	9	75	Feedback	AvoidedLoss	True
714.577	2.926	Lose2	0.6579	n/a	Yes	2.926	n/a	n/a	GoodResponse	0	0.0	n/a	9	75	ISIslide	AvoidedLoss	True
717.519	0.25	Control	0.6494	0.0	No	3.231	0.019	n/a	NoResponse	0	n/a	n/a	9	76	Cue	Neutral	False
717.77	4.05	Control	0.6494	0.0	No	3.231	0.001	3.0	NoResponse	0	3.843	720.613	9	76	Fixation	Neutral	False
721.613	0.3	Control	0.6494	0.0	No	3.231	0.001	3.0	NoResponse	0	3.843	n/a	9	76	ButtonPress	Neutral	False
721.815	0.23	Control	0.6494	0.004	No	3.231	-0.004	3.0	NoResponse	0	0.255	721.07	9	76	Target	Neutral	False
722.049	0.47	Control	0.6494	n/a	No	3.231	n/a	n/a	NoResponse	0	n/a	n/a	9	76	Blank	Neutral	False
722.07	0.3	Control	0.6494	0.004	No	3.231	-0.004	3.0	NoResponse	0	0.255	n/a	9	76	ButtonPress	Neutral	False
722.517	1.45	Control	0.6494	n/a	No	3.231	n/a	5.0	NoResponse	0	0.034	721.551	9	76	Feedback	Neutral	False
723.971	3.231	Control	0.6494	n/a	No	3.231	n/a	n/a	NoResponse	0	0.0	n/a	9	76	ISIslide	Neutral	False
727.214	0.25	Lose2	0.6409999999999999	0.001	No	2.586	0.014	n/a	NoResponse	-1	n/a	n/a	8	77	Cue	Loss	True
727.465	3.95	Lose2	0.6409999999999999	0.0	No	2.586	0.001	n/a	NoResponse	-1	n/a	n/a	8	77	Fixation	Loss	True
731.41	0.24	Lose2	0.6409999999999999	0.004	No	2.586	-0.004	3.0	NoResponse	-1	0.269	730.679	8	77	Target	Loss	True
731.661	0.46	Lose2	0.6409999999999999	n/a	No	2.586	n/a	n/a	NoResponse	-1	n/a	n/a	8	77	Blank	Loss	True
731.679	0.3	Lose2	0.6409999999999999	0.004	No	2.586	-0.004	3.0	NoResponse	-1	0.269	n/a	8	77	ButtonPress	Loss	True
732.112	1.45	Lose2	0.6409999999999999	n/a	No	2.586	n/a	5.0	NoResponse	-1	0.049	731.161	8	77	Feedback	Loss	True
733.567	2.586	Lose2	0.6409999999999999	n/a	No	2.586	n/a	n/a	NoResponse	-1	0.0	n/a	8	77	ISIslide	Loss	True
