onset	duration	cue_type	current_mean_accuracy	duration_error	is_hit	isi_adjusted	onset_delay	response	response_type	reward	rt	rt_time	total_reward	trial_number	trial_phase	trial_type	one_press
11.098	0.25	Control	1.0	0.001	Yes	2.952	-0.002	n/a	GoodResponse	0	n/a	n/a	0	0	Cue	Neutral	True
11.349	3.85	Control	1.0	0.0	Yes	2.952	0.001	n/a	GoodResponse	0	n/a	n/a	0	0	Fixation	Neutral	True
15.194	0.4	Control	1.0	0.004	Yes	2.952	-0.004	2.0	GoodResponse	0	0.225	14.419	0	0	Target	Neutral	True
15.419	0.3	Control	1.0	0.004	Yes	2.952	-0.004	2.0	GoodResponse	0	0.225	n/a	0	0	ButtonPress	Neutral	True
15.595	0.3	Control	1.0	n/a	Yes	2.952	n/a	n/a	GoodResponse	0	n/a	n/a	0	0	Blank	Neutral	True
15.896	1.45	Control	1.0	n/a	Yes	2.952	n/a	5.0	GoodResponse	0	0.031	14.927	0	0	Feedback	Neutral	True
17.35	2.952	Control	1.0	n/a	Yes	2.952	n/a	n/a	GoodResponse	0	0.0	n/a	0	0	ISIslide	Neutral	True
20.326	0.25	Lose2	1.0	0.0	Yes	2.774	0.026	n/a	GoodResponse	0	n/a	n/a	0	1	Cue	AvoidedLoss	True
20.577	4.0	Lose2	1.0	0.0	Yes	2.774	0.001	n/a	GoodResponse	0	n/a	n/a	0	1	Fixation	AvoidedLoss	True
24.572	0.39	Lose2	1.0	0.004	Yes	2.774	-0.004	2.0	GoodResponse	0	0.206	23.778	0	1	Target	AvoidedLoss	True
24.778	0.3	Lose2	1.0	0.004	Yes	2.774	-0.004	2.0	GoodResponse	0	0.206	n/a	0	1	ButtonPress	AvoidedLoss	True
24.973	0.31	Lose2	1.0	n/a	Yes	2.774	n/a	n/a	GoodResponse	0	n/a	n/a	0	1	Blank	AvoidedLoss	True
25.274	1.45	Lose2	1.0	n/a	Yes	2.774	n/a	5.0	GoodResponse	0	0.019	24.293	0	1	Feedback	AvoidedLoss	True
26.729	2.774	Lose2	1.0	n/a	Yes	2.774	n/a	n/a	GoodResponse	0	0.0	n/a	0	1	ISIslide	AvoidedLoss	True
29.52	0.25	Control	1.0	0.0	Yes	2.58	0.02	n/a	GoodResponse	0	n/a	n/a	0	2	Cue	Neutral	True
29.771	4.1	Control	1.0	0.0	Yes	2.58	0.001	n/a	GoodResponse	0	n/a	n/a	0	2	Fixation	Neutral	True
33.867	0.38	Control	1.0	0.003	Yes	2.58	-0.003	2.0	GoodResponse	0	0.198	33.065	0	2	Target	Neutral	True
34.065	0.3	Control	1.0	0.003	Yes	2.58	-0.003	2.0	GoodResponse	0	0.198	n/a	0	2	ButtonPress	Neutral	True
34.251	0.32	Control	1.0	n/a	Yes	2.58	n/a	n/a	GoodResponse	0	n/a	n/a	0	2	Blank	Neutral	True
34.569	1.45	Control	1.0	n/a	Yes	2.58	n/a	5.0	GoodResponse	0	0.041	33.61	0	2	Feedback	Neutral	True
36.023	2.58	Control	1.0	n/a	Yes	2.58	n/a	n/a	GoodResponse	0	0.0	n/a	0	2	ISIslide	Neutral	True
38.631	0.25	Win2	1.0	0.0	Yes	2.819	0.031	n/a	GoodResponse	1	n/a	n/a	1	3	Cue	Win	True
38.881	3.95	Win2	1.0	0.001	Yes	2.819	0.0	n/a	GoodResponse	1	n/a	n/a	1	3	Fixation	Win	True
42.827	0.37	Win2	1.0	0.004	Yes	2.819	-0.004	2.0	GoodResponse	1	0.214	42.041	1	3	Target	Win	True
43.041	0.3	Win2	1.0	0.004	Yes	2.819	-0.004	2.0	GoodResponse	1	0.214	n/a	1	3	ButtonPress	Win	True
43.211	0.33	Win2	1.0	n/a	Yes	2.819	n/a	n/a	GoodResponse	1	n/a	n/a	1	3	Blank	Win	True
43.529	1.45	Win2	1.0	n/a	Yes	2.819	n/a	5.0	GoodResponse	1	0.008	42.537	1	3	Feedback	Win	True
44.983	2.819	Win2	1.0	n/a	Yes	2.819	n/a	n/a	GoodResponse	1	0.0	n/a	1	3	ISIslide	Win	True
47.825	0.25	Win2	1.0	0.0	Yes	3.275	0.025	n/a	GoodResponse	1	n/a	n/a	2	4	Cue	Win	True
48.076	4.0	Win2	1.0	0.0	Yes	3.275	0.001	n/a	GoodResponse	1	n/a	n/a	2	4	Fixation	Win	True
52.071	0.36	Win2	1.0	0.004	Yes	3.275	-0.004	2.0	GoodResponse	1	0.196	51.267	2	4	Target	Win	True
52.267	0.3	Win2	1.0	0.004	Yes	3.275	-0.004	2.0	GoodResponse	1	0.196	n/a	2	4	ButtonPress	Win	True
52.439	0.34	Win2	1.0	n/a	Yes	3.275	n/a	n/a	GoodResponse	1	n/a	n/a	2	4	Blank	Win	True
52.773	1.45	Win2	1.0	n/a	Yes	3.275	n/a	5.0	GoodResponse	1	0.031	51.804	2	4	Feedback	Win	True
54.227	3.275	Win2	1.0	n/a	Yes	3.275	n/a	n/a	GoodResponse	1	0.0	n/a	2	4	ISIslide	Win	True
57.521	0.25	Win2	1.0	0.0	Yes	2.779	0.021	n/a	GoodResponse	1	n/a	n/a	3	5	Cue	Win	True
57.771	4.0	Win2	1.0	0.0	Yes	2.779	0.0	n/a	GoodResponse	1	n/a	n/a	3	5	Fixation	Win	True
61.767	0.35	Win2	1.0	0.004	Yes	2.779	-0.004	2.0	GoodResponse	1	0.195	60.962	3	5	Target	Win	True
61.962	0.3	Win2	1.0	0.004	Yes	2.779	-0.004	2.0	GoodResponse	1	0.195	n/a	3	5	ButtonPress	Win	True
62.118	0.35	Win2	1.0	n/a	Yes	2.779	n/a	n/a	GoodResponse	1	n/a	n/a	3	5	Blank	Win	True
62.469	1.45	Win2	1.0	n/a	Yes	2.779	n/a	5.0	GoodResponse	1	0.042	61.511	3	5	Feedback	Win	True
63.923	2.779	Win2	1.0	n/a	Yes	2.779	n/a	n/a	GoodResponse	1	0.0	n/a	3	5	ISIslide	Win	True
66.731	0.25	Lose2	1.0	0.001	Yes	2.719	0.031	n/a	GoodResponse	0	n/a	n/a	3	6	Cue	AvoidedLoss	True
66.982	3.95	Lose2	1.0	0.0	Yes	2.719	0.001	n/a	GoodResponse	0	n/a	n/a	3	6	Fixation	AvoidedLoss	True
70.927	0.34	Lose2	1.0	0.004	Yes	2.719	-0.004	2.0	GoodResponse	0	0.219	70.146	3	6	Target	AvoidedLoss	True
71.146	0.3	Lose2	1.0	0.004	Yes	2.719	-0.004	2.0	GoodResponse	0	0.219	n/a	3	6	ButtonPress	AvoidedLoss	True
71.278	0.36	Lose2	1.0	n/a	Yes	2.719	n/a	n/a	GoodResponse	0	n/a	n/a	3	6	Blank	AvoidedLoss	True
71.629	1.45	Lose2	1.0	n/a	Yes	2.719	n/a	5.0	GoodResponse	0	0.007	70.636	3	6	Feedback	AvoidedLoss	True
73.084	2.719	Lose2	1.0	n/a	Yes	2.719	n/a	n/a	GoodResponse	0	0.0	n/a	3	6	ISIslide	AvoidedLoss	True
75.825	0.25	Lose2	1.0	0.0	Yes	4.025	0.025	n/a	GoodResponse	0	n/a	n/a	3	7	Cue	AvoidedLoss	True
76.076	4.05	Lose2	1.0	0.0	Yes	4.025	0.001	n/a	GoodResponse	0	n/a	n/a	3	7	Fixation	AvoidedLoss	True
80.121	0.33	Lose2	1.0	0.004	Yes	4.025	-0.004	2.0	GoodResponse	0	0.227	79.348	3	7	Target	AvoidedLoss	True
80.348	0.3	Lose2	1.0	0.004	Yes	4.025	-0.004	2.0	GoodResponse	0	0.227	n/a	3	7	ButtonPress	AvoidedLoss	True
80.456	0.37	Lose2	1.0	n/a	Yes	4.025	n/a	n/a	GoodResponse	0	n/a	n/a	3	7	Blank	AvoidedLoss	True
80.824	1.45	Lose2	1.0	n/a	Yes	4.025	n/a	5.0	GoodResponse	0	0.029	79.853	3	7	Feedback	AvoidedLoss	True
82.278	4.025	Lose2	1.0	n/a	Yes	4.025	n/a	n/a	GoodResponse	0	0.0	n/a	3	7	ISIslide	AvoidedLoss	True
86.323	0.25	Lose2	1.0	0.0	Yes	3.027	0.023	n/a	GoodResponse	0	n/a	n/a	3	8	Cue	AvoidedLoss	True
86.574	3.95	Lose2	1.0	0.0	Yes	3.027	0.001	n/a	GoodResponse	0	n/a	n/a	3	8	Fixation	AvoidedLoss	True
90.519	0.32	Lose2	1.0	0.004	Yes	3.027	-0.004	2.0	GoodResponse	0	0.208	89.727	3	8	Target	AvoidedLoss	True
90.727	0.3	Lose2	1.0	0.004	Yes	3.027	-0.004	2.0	GoodResponse	0	0.208	n/a	3	8	ButtonPress	AvoidedLoss	True
90.854	0.38	Lose2	1.0	n/a	Yes	3.027	n/a	n/a	GoodResponse	0	n/a	n/a	3	8	Blank	AvoidedLoss	True
91.221	1.45	Lose2	1.0	n/a	Yes	3.027	n/a	5.0	GoodResponse	0	0.021	90.242	3	8	Feedback	AvoidedLoss	True
92.676	3.027	Lose2	1.0	n/a	Yes	3.027	n/a	n/a	GoodResponse	0	0.0	n/a	3	8	ISIslide	AvoidedLoss	True
95.718	0.25	Lose2	1.0	0.0	Yes	3.132	0.018	n/a	GoodResponse	0	n/a	n/a	3	9	Cue	AvoidedLoss	True
95.969	3.95	Lose2	1.0	0.0	Yes	3.132	0.001	n/a	GoodResponse	0	n/a	n/a	3	9	Fixation	AvoidedLoss	True
99.914	0.31	Lose2	1.0	0.004	Yes	3.132	-0.004	2.0	GoodResponse	0	0.244	99.158	3	9	Target	AvoidedLoss	True
100.158	0.3	Lose2	1.0	0.004	Yes	3.132	-0.004	2.0	GoodResponse	0	0.244	n/a	3	9	ButtonPress	AvoidedLoss	True
100.232	0.39	Lose2	1.0	n/a	Yes	3.132	n/a	n/a	GoodResponse	0	n/a	n/a	3	9	Blank	AvoidedLoss	True
100.616	1.45	Lose2	1.0	n/a	Yes	3.132	n/a	5.0	GoodResponse	0	0.041	99.657	3	9	Feedback	AvoidedLoss	True
102.07	3.132	Lose2	1.0	n/a	Yes	3.132	n/a	n/a	GoodResponse	0	0.0	n/a	3	9	ISIslide	AvoidedLoss	True
105.23	0.25	Control	1.0	0.0	Yes	3.27	0.03	n/a	GoodResponse	0	n/a	n/a	3	10	Cue	Neutral	True
105.481	4.0	Control	1.0	0.0	Yes	3.27	0.001	n/a	GoodResponse	0	n/a	n/a	3	10	Fixation	Neutral	True
109.476	0.3	Control	1.0	0.004	Yes	3.27	-0.004	2.0	GoodResponse	0	0.205	108.681	3	10	Target	Neutral	True
109.681	0.3	Control	1.0	0.004	Yes	3.27	-0.004	2.0	GoodResponse	0	0.205	n/a	3	10	ButtonPress	Neutral	True
109.777	0.4	Control	1.0	n/a	Yes	3.27	n/a	n/a	GoodResponse	0	n/a	n/a	3	10	Blank	Neutral	True
110.178	1.45	Control	1.0	n/a	Yes	3.27	n/a	5.0	GoodResponse	0	0.04	109.218	3	10	Feedback	Neutral	True
111.632	3.27	Control	1.0	n/a	Yes	3.27	n/a	n/a	GoodResponse	0	0.0	n/a	3	10	ISIslide	Neutral	True
114.926	0.25	Lose2	1.0	0.0	Yes	2.724	0.026	n/a	GoodResponse	0	n/a	n/a	3	11	Cue	AvoidedLoss	True
115.176	4.05	Lose2	1.0	0.0	Yes	2.724	0.0	n/a	GoodResponse	0	n/a	n/a	3	11	Fixation	AvoidedLoss	True
119.222	0.29	Lose2	1.0	0.004	Yes	2.724	-0.004	2.0	GoodResponse	0	0.233	118.455	3	11	Target	AvoidedLoss	True
119.455	0.3	Lose2	1.0	0.004	Yes	2.724	-0.004	2.0	GoodResponse	0	0.233	n/a	3	11	ButtonPress	AvoidedLoss	True
119.523	0.41	Lose2	1.0	n/a	Yes	2.724	n/a	n/a	GoodResponse	0	n/a	n/a	3	11	Blank	AvoidedLoss	True
119.924	1.45	Lose2	1.0	n/a	Yes	2.724	n/a	5.0	GoodResponse	0	0.002	118.926	3	11	Feedback	AvoidedLoss	True
121.378	2.724	Lose2	1.0	n/a	Yes	2.724	n/a	n/a	GoodResponse	0	0.0	n/a	3	11	ISIslide	AvoidedLoss	True
124.12	0.25	Control	1.0	0.0	Yes	2.98	0.02	n/a	GoodResponse	0	n/a	n/a	3	12	Cue	Neutral	True
124.37	3.9	Control	1.0	0.001	Yes	2.98	0.0	n/a	GoodResponse	0	n/a	n/a	3	12	Fixation	Neutral	True
128.282	0.28	Control	1.0	0.0	Yes	2.98	0.012	2.0	GoodResponse	0	0.264	127.546	3	12	Target	Neutral	True
128.546	0.3	Control	1.0	0.0	Yes	2.98	0.012	2.0	GoodResponse	0	0.264	n/a	3	12	ButtonPress	Neutral	True
128.55	0.42	Control	1.0	n/a	Yes	2.98	n/a	n/a	GoodResponse	0	n/a	n/a	3	12	Blank	Neutral	True
128.968	1.45	Control	1.0	n/a	Yes	2.98	n/a	5.0	GoodResponse	0	0.03	127.998	3	12	Feedback	Neutral	True
130.422	2.98	Control	1.0	n/a	Yes	2.98	n/a	n/a	GoodResponse	0	0.0	n/a	3	12	ISIslide	Neutral	True
133.414	0.25	Control	1.0	0.0	Yes	2.786	0.014	n/a	GoodResponse	0	n/a	n/a	3	13	Cue	Neutral	True
133.665	4.0	Control	1.0	0.0	Yes	2.786	0.001	n/a	GoodResponse	0	n/a	n/a	3	13	Fixation	Neutral	True
137.66	0.27	Control	1.0	0.004	Yes	2.786	-0.004	2.0	GoodResponse	0	0.214	136.874	3	13	Target	Neutral	True
137.874	0.3	Control	1.0	0.004	Yes	2.786	-0.004	2.0	GoodResponse	0	0.214	n/a	3	13	ButtonPress	Neutral	True
137.944	0.43	Control	1.0	n/a	Yes	2.786	n/a	n/a	GoodResponse	0	n/a	n/a	3	13	Blank	Neutral	True
138.362	1.45	Control	1.0	n/a	Yes	2.786	n/a	5.0	GoodResponse	0	0.008	137.37	3	13	Feedback	Neutral	True
139.817	2.786	Control	1.0	n/a	Yes	2.786	n/a	n/a	GoodResponse	0	0.0	n/a	3	13	ISIslide	Neutral	True
142.625	0.25	Win2	1.0	0.0	Yes	2.675	0.025	n/a	GoodResponse	1	n/a	n/a	4	14	Cue	Win	True
142.876	4.1	Win2	1.0	0.0	Yes	2.675	0.001	n/a	GoodResponse	1	n/a	n/a	4	14	Fixation	Win	True
146.971	0.26	Win2	1.0	0.004	Yes	2.675	-0.004	2.0	GoodResponse	1	0.214	146.185	4	14	Target	Win	True
147.185	0.3	Win2	1.0	0.004	Yes	2.675	-0.004	2.0	GoodResponse	1	0.214	n/a	4	14	ButtonPress	Win	True
147.239	0.44	Win2	1.0	n/a	Yes	2.675	n/a	n/a	GoodResponse	1	n/a	n/a	4	14	Blank	Win	True
147.673	1.45	Win2	1.0	n/a	Yes	2.675	n/a	5.0	GoodResponse	1	0.008	146.681	4	14	Feedback	Win	True
149.128	2.675	Win2	1.0	n/a	Yes	2.675	n/a	n/a	GoodResponse	1	0.0	n/a	4	14	ISIslide	Win	True
151.819	0.25	Control	1.0	0.0	Yes	2.981	0.019	n/a	GoodResponse	0	n/a	n/a	4	15	Cue	Neutral	True
152.07	4.0	Control	1.0	0.0	Yes	2.981	0.001	n/a	GoodResponse	0	n/a	n/a	4	15	Fixation	Neutral	True
156.065	0.25	Control	1.0	0.004	Yes	2.981	-0.004	2.0	GoodResponse	0	0.188	155.253	4	15	Target	Neutral	True
156.253	0.3	Control	1.0	0.004	Yes	2.981	-0.004	2.0	GoodResponse	0	0.188	n/a	4	15	ButtonPress	Neutral	True
156.316	0.45	Control	1.0	n/a	Yes	2.981	n/a	n/a	GoodResponse	0	n/a	n/a	4	15	Blank	Neutral	True
156.767	1.45	Control	1.0	n/a	Yes	2.981	n/a	5.0	GoodResponse	0	0.036	155.803	4	15	Feedback	Neutral	True
158.222	2.981	Control	1.0	n/a	Yes	2.981	n/a	n/a	GoodResponse	0	0.0	n/a	4	15	ISIslide	Neutral	True
161.231	0.25	Win2	1.0	0.0	Yes	2.869	0.031	n/a	GoodResponse	1	n/a	n/a	5	16	Cue	Win	False
161.481	4.0	Win2	1.0	0.0	Yes	2.869	0.0	2.0	GoodResponse	1	2.939	163.42	5	16	Fixation	Win	False
164.42	0.3	Win2	1.0	0.0	Yes	2.869	0.0	2.0	GoodResponse	1	2.939	n/a	5	16	ButtonPress	Win	False
165.477	0.24	Win2	1.0	0.004	Yes	2.869	-0.004	2.0	GoodResponse	1	0.235	164.712	5	16	Target	Win	False
165.712	0.3	Win2	1.0	0.004	Yes	2.869	-0.004	2.0	GoodResponse	1	0.235	n/a	5	16	ButtonPress	Win	False
165.727	0.46	Win2	1.0	n/a	Yes	2.869	n/a	n/a	GoodResponse	1	n/a	n/a	5	16	Blank	Win	False
166.179	1.45	Win2	1.0	n/a	Yes	2.869	n/a	5.0	GoodResponse	1	0.039	165.218	5	16	Feedback	Win	False
167.633	2.869	Win2	1.0	n/a	Yes	2.869	n/a	n/a	GoodResponse	1	0.0	n/a	5	16	ISIslide	Win	False
170.525	0.25	Lose2	1.0	0.0	Yes	2.725	0.025	n/a	GoodResponse	0	n/a	n/a	5	17	Cue	AvoidedLoss	True
170.776	3.95	Lose2	1.0	0.0	Yes	2.725	0.001	n/a	GoodResponse	0	n/a	n/a	5	17	Fixation	AvoidedLoss	True
174.721	0.23	Lose2	1.0	0.004	Yes	2.725	-0.004	2.0	GoodResponse	0	0.211	173.932	5	17	Target	AvoidedLoss	True
174.932	0.3	Lose2	1.0	0.004	Yes	2.725	-0.004	2.0	GoodResponse	0	0.211	n/a	5	17	ButtonPress	AvoidedLoss	True
174.955	0.47	Lose2	1.0	n/a	Yes	2.725	n/a	n/a	GoodResponse	0	n/a	n/a	5	17	Blank	AvoidedLoss	True
175.423	1.45	Lose2	1.0	n/a	Yes	2.725	n/a	5.0	GoodResponse	0	0.013	174.436	5	17	Feedback	AvoidedLoss	True
176.877	2.725	Lose2	1.0	n/a	Yes	2.725	n/a	n/a	GoodResponse	0	0.0	n/a	5	17	ISIslide	AvoidedLoss	True
179.619	0.25	Lose2	0.9473999999999999	0.0	No	2.731	0.019	n/a	NoResponse	-1	n/a	n/a	4	18	Cue	Loss	True
179.87	4.05	Lose2	0.9473999999999999	0.0	No	2.731	0.001	n/a	NoResponse	-1	n/a	n/a	4	18	Fixation	Loss	True
183.915	0.22	Lose2	0.9473999999999999	0.004	No	2.731	-0.004	2.0	NoResponse	-1	0.242	183.157	4	18	Target	Loss	True
184.149	0.48	Lose2	0.9473999999999999	n/a	No	2.731	n/a	n/a	NoResponse	-1	n/a	n/a	4	18	Blank	Loss	True
184.157	0.3	Lose2	0.9473999999999999	0.004	No	2.731	-0.004	2.0	NoResponse	-1	0.242	n/a	4	18	ButtonPress	Loss	True
184.617	1.45	Lose2	0.9473999999999999	n/a	No	2.731	n/a	5.0	NoResponse	-1	0.039	183.656	4	18	Feedback	Loss	True
186.072	2.731	Lose2	0.9473999999999999	n/a	No	2.731	n/a	n/a	NoResponse	-1	0.0	n/a	4	18	ISIslide	Loss	True
188.83	0.25	Control	0.9	0.0	No	2.92	0.03	n/a	NoResponse	0	n/a	n/a	4	19	Cue	Neutral	True
189.081	3.95	Control	0.9	0.0	No	2.92	0.001	n/a	NoResponse	0	n/a	n/a	4	19	Fixation	Neutral	True
193.026	0.21	Control	0.9	0.004	No	2.92	-0.004	2.0	NoResponse	0	0.302	192.328	4	19	Target	Neutral	True
193.243	0.49	Control	0.9	n/a	No	2.92	n/a	n/a	NoResponse	0	n/a	n/a	4	19	Blank	Neutral	True
193.328	0.3	Control	0.9	0.004	No	2.92	-0.004	2.0	NoResponse	0	0.302	n/a	4	19	ButtonPress	Neutral	True
193.728	1.45	Control	0.9	n/a	No	2.92	n/a	5.0	NoResponse	0	0.001	192.729	4	19	Feedback	Neutral	True
195.182	2.92	Control	0.9	n/a	No	2.92	n/a	n/a	NoResponse	0	0.0	n/a	4	19	ISIslide	Neutral	True
198.124	0.25	Control	0.8571	0.0	No	2.626	0.024	n/a	LatePress	0	n/a	n/a	4	20	Cue	Neutral	True
198.375	4.05	Control	0.8571	0.0	No	2.626	0.001	n/a	LatePress	0	n/a	n/a	4	20	Fixation	Neutral	True
202.42	0.2	Control	0.8571	0.004	No	2.626	-0.004	2.0	LatePress	0	0.203	201.623	4	20	Target	Neutral	True
202.621	0.5	Control	0.8571	n/a	No	2.626	n/a	n/a	LatePress	0	n/a	n/a	4	20	Blank	Neutral	True
202.623	0.3	Control	0.8571	0.004	No	2.626	-0.004	2.0	LatePress	0	0.203	n/a	4	20	ButtonPress	Neutral	True
203.123	1.45	Control	0.8571	n/a	No	2.626	n/a	5.0	LatePress	0	0.021	202.144	4	20	Feedback	Neutral	True
204.577	2.626	Control	0.8571	n/a	No	2.626	n/a	n/a	LatePress	0	0.0	n/a	4	20	ISIslide	Neutral	True
207.218	0.25	Control	0.8181999999999999	0.0	No	2.782	0.018	n/a	NoResponse	0	n/a	n/a	4	21	Cue	Neutral	True
207.469	4.1	Control	0.8181999999999999	0.0	No	2.782	0.001	n/a	NoResponse	0	n/a	n/a	4	21	Fixation	Neutral	True
211.564	0.19	Control	0.8181999999999999	0.004	No	2.782	-0.004	2.0	NoResponse	0	0.216	210.78	4	21	Target	Neutral	True
211.765	0.51	Control	0.8181999999999999	n/a	No	2.782	n/a	n/a	NoResponse	0	n/a	n/a	4	21	Blank	Neutral	True
211.78	0.3	Control	0.8181999999999999	0.004	No	2.782	-0.004	2.0	NoResponse	0	0.216	n/a	4	21	ButtonPress	Neutral	True
212.267	1.45	Control	0.8181999999999999	n/a	No	2.782	n/a	5.0	NoResponse	0	0.047	211.314	4	21	Feedback	Neutral	True
213.721	2.782	Control	0.8181999999999999	n/a	No	2.782	n/a	n/a	NoResponse	0	0.0	n/a	4	21	ISIslide	Neutral	True
216.529	0.25	Control	0.7826000000000001	0.0	No	2.771	0.029	n/a	NoResponse	0	n/a	n/a	4	22	Cue	Neutral	True
216.78	4.0	Control	0.7826000000000001	0.0	No	2.771	0.001	n/a	NoResponse	0	n/a	n/a	4	22	Fixation	Neutral	True
220.775	0.18	Control	0.7826000000000001	0.004	No	2.771	-0.004	2.0	NoResponse	0	0.228	220.003	4	22	Target	Neutral	True
220.959	0.52	Control	0.7826000000000001	n/a	No	2.771	n/a	n/a	NoResponse	0	n/a	n/a	4	22	Blank	Neutral	True
221.003	0.3	Control	0.7826000000000001	0.004	No	2.771	-0.004	2.0	NoResponse	0	0.228	n/a	4	22	ButtonPress	Neutral	True
221.477	1.45	Control	0.7826000000000001	n/a	No	2.771	n/a	5.0	NoResponse	0	0.008	220.485	4	22	Feedback	Neutral	True
222.932	2.771	Control	0.7826000000000001	n/a	No	2.771	n/a	n/a	NoResponse	0	0.0	n/a	4	22	ISIslide	Neutral	True
225.723	0.25	Control	0.75	0.001	No	2.777	0.023	n/a	NoResponse	0	n/a	n/a	4	23	Cue	Neutral	True
225.974	3.9	Control	0.75	0.0	No	2.777	0.001	n/a	NoResponse	0	n/a	n/a	4	23	Fixation	Neutral	True
229.869	0.17	Control	0.75	0.004	No	2.777	-0.004	2.0	NoResponse	0	0.238	229.107	4	23	Target	Neutral	True
230.053	0.53	Control	0.75	n/a	No	2.777	n/a	n/a	NoResponse	0	n/a	n/a	4	23	Blank	Neutral	True
230.107	0.3	Control	0.75	0.004	No	2.777	-0.004	2.0	NoResponse	0	0.238	n/a	4	23	ButtonPress	Neutral	True
230.571	1.45	Control	0.75	n/a	No	2.777	n/a	5.0	NoResponse	0	0.036	229.607	4	23	Feedback	Neutral	True
232.026	2.777	Control	0.75	n/a	No	2.777	n/a	n/a	NoResponse	0	0.0	n/a	4	23	ISIslide	Neutral	True
234.817	0.25	Win2	0.72	0.0	No	3.133	0.017	n/a	NoResponse	0	n/a	n/a	4	24	Cue	MissedWin	False
235.068	3.95	Win2	0.72	0.0	No	3.133	0.001	2.0	NoResponse	0	0.098	234.166	4	24	Fixation	MissedWin	False
235.166	0.3	Win2	0.72	0.0	No	3.133	0.001	2.0	NoResponse	0	0.098	n/a	4	24	ButtonPress	MissedWin	False
239.013	0.16	Win2	0.72	0.004	No	3.133	-0.004	2.0	NoResponse	0	0.215	238.228	4	24	Target	MissedWin	False
239.18	0.54	Win2	0.72	n/a	No	3.133	n/a	n/a	NoResponse	0	n/a	n/a	4	24	Blank	MissedWin	False
239.228	0.3	Win2	0.72	0.004	No	3.133	-0.004	2.0	NoResponse	0	0.215	n/a	4	24	ButtonPress	MissedWin	False
239.715	1.45	Win2	0.72	n/a	No	3.133	n/a	5.0	NoResponse	0	0.014	238.729	4	24	Feedback	MissedWin	False
241.17	3.133	Win2	0.72	n/a	No	3.133	n/a	n/a	NoResponse	0	0.0	n/a	4	24	ISIslide	MissedWin	False
244.329	0.25	Win2	0.6923	0.0	No	3.071	0.029	n/a	NoResponse	0	n/a	n/a	4	25	Cue	MissedWin	True
244.58	4.0	Win2	0.6923	0.0	No	3.071	0.001	n/a	NoResponse	0	n/a	n/a	4	25	Fixation	MissedWin	True
248.575	0.15	Win2	0.6923	0.004	No	3.071	-0.004	2.0	NoResponse	0	0.227	247.802	4	25	Target	MissedWin	True
248.726	0.55	Win2	0.6923	n/a	No	3.071	n/a	n/a	NoResponse	0	n/a	n/a	4	25	Blank	MissedWin	True
248.802	0.3	Win2	0.6923	0.004	No	3.071	-0.004	2.0	NoResponse	0	0.227	n/a	4	25	ButtonPress	MissedWin	True
249.277	1.45	Win2	0.6923	n/a	No	3.071	n/a	5.0	NoResponse	0	0.013	248.29	4	25	Feedback	MissedWin	True
250.732	3.071	Win2	0.6923	n/a	No	3.071	n/a	n/a	NoResponse	0	0.0	n/a	4	25	ISIslide	MissedWin	True
253.824	0.25	Win2	0.6667000000000001	0.0	No	2.926	0.024	n/a	NoResponse	0	n/a	n/a	4	26	Cue	MissedWin	True
254.075	3.95	Win2	0.6667000000000001	0.0	No	2.926	0.001	n/a	NoResponse	0	n/a	n/a	4	26	Fixation	MissedWin	True
258.02	0.15	Win2	0.6667000000000001	0.004	No	2.926	-0.004	2.0	NoResponse	0	0.191	257.211	4	26	Target	MissedWin	True
258.171	0.55	Win2	0.6667000000000001	n/a	No	2.926	n/a	n/a	NoResponse	0	n/a	n/a	4	26	Blank	MissedWin	True
258.211	0.3	Win2	0.6667000000000001	0.004	No	2.926	-0.004	2.0	NoResponse	0	0.191	n/a	4	26	ButtonPress	MissedWin	True
258.722	1.45	Win2	0.6667000000000001	n/a	No	2.926	n/a	5.0	NoResponse	0	0.03	257.752	4	26	Feedback	MissedWin	True
260.176	2.926	Win2	0.6667000000000001	n/a	No	2.926	n/a	n/a	NoResponse	0	0.0	n/a	4	26	ISIslide	MissedWin	True
263.119	0.25	Lose2	0.6429	0.0	No	2.831	0.019	n/a	NoResponse	-1	n/a	n/a	3	27	Cue	Loss	True
263.369	4.05	Lose2	0.6429	0.0	No	2.831	0.0	n/a	NoResponse	-1	n/a	n/a	3	27	Fixation	Loss	True
267.415	0.15	Lose2	0.6429	0.004	No	2.831	-0.004	2.0	NoResponse	-1	0.201	266.616	3	27	Target	Loss	True
267.565	0.55	Lose2	0.6429	n/a	No	2.831	n/a	n/a	NoResponse	-1	n/a	n/a	3	27	Blank	Loss	True
267.616	0.3	Lose2	0.6429	0.004	No	2.831	-0.004	2.0	NoResponse	-1	0.201	n/a	3	27	ButtonPress	Loss	True
268.117	1.45	Lose2	0.6429	n/a	No	2.831	n/a	5.0	NoResponse	-1	0.001	267.118	3	27	Feedback	Loss	True
269.571	2.831	Lose2	0.6429	n/a	No	2.831	n/a	n/a	NoResponse	-1	0.0	n/a	3	27	ISIslide	Loss	True
272.43	0.25	Control	0.6207	0.0	No	2.82	0.03	n/a	NoResponse	0	n/a	n/a	3	28	Cue	Neutral	True
272.681	4.05	Control	0.6207	0.0	No	2.82	0.001	n/a	NoResponse	0	n/a	n/a	3	28	Fixation	Neutral	True
276.726	0.16	Control	0.6207	0.004	No	2.82	-0.004	2.0	NoResponse	0	0.21	275.936	3	28	Target	Neutral	True
276.893	0.54	Control	0.6207	n/a	No	2.82	n/a	n/a	NoResponse	0	n/a	n/a	3	28	Blank	Neutral	True
276.936	0.3	Control	0.6207	0.004	No	2.82	-0.004	2.0	NoResponse	0	0.21	n/a	3	28	ButtonPress	Neutral	True
277.428	1.45	Control	0.6207	n/a	No	2.82	n/a	5.0	NoResponse	0	0.007	276.435	3	28	Feedback	Neutral	True
278.882	2.82	Control	0.6207	n/a	No	2.82	n/a	n/a	NoResponse	0	0.0	n/a	3	28	ISIslide	Neutral	True
281.724	0.25	Lose2	0.6333	0.0	Yes	2.826	0.024	n/a	GoodResponse	0	n/a	n/a	3	29	Cue	AvoidedLoss	True
281.975	3.95	Lose2	0.6333	0.0	Yes	2.826	0.001	n/a	GoodResponse	0	n/a	n/a	3	29	Fixation	AvoidedLoss	True
285.92	0.17	Lose2	0.6333	0.004	Yes	2.826	-0.004	2.0	GoodResponse	0	0.165	285.085	3	29	Target	AvoidedLoss	True
286.085	0.3	Lose2	0.6333	0.004	Yes	2.826	-0.004	2.0	GoodResponse	0	0.165	n/a	3	29	ButtonPress	AvoidedLoss	True
286.104	0.53	Lose2	0.6333	n/a	Yes	2.826	n/a	n/a	GoodResponse	0	n/a	n/a	3	29	Blank	AvoidedLoss	True
286.622	1.45	Lose2	0.6333	n/a	Yes	2.826	n/a	5.0	GoodResponse	0	0.033	285.655	3	29	Feedback	AvoidedLoss	True
288.077	2.826	Lose2	0.6333	n/a	Yes	2.826	n/a	n/a	GoodResponse	0	0.0	n/a	3	29	ISIslide	AvoidedLoss	True
290.918	0.25	Win2	0.6129	0.0	No	2.782	0.018	n/a	NoResponse	0	n/a	n/a	3	30	Cue	MissedWin	True
291.169	3.9	Win2	0.6129	0.0	No	2.782	0.001	2.0	NoResponse	0	3.64	293.809	3	30	Fixation	MissedWin	True
294.809	0.3	Win2	0.6129	0.0	No	2.782	0.001	2.0	NoResponse	0	3.64	n/a	3	30	ButtonPress	MissedWin	True
295.064	0.18	Win2	0.6129	0.004	No	2.782	-0.004	n/a	NoResponse	0	n/a	n/a	3	30	Target	MissedWin	True
295.248	0.52	Win2	0.6129	n/a	No	2.782	n/a	n/a	NoResponse	0	n/a	n/a	3	30	Blank	MissedWin	True
295.766	1.45	Win2	0.6129	n/a	No	2.782	n/a	5.0	NoResponse	0	0.011	294.777	3	30	Feedback	MissedWin	True
297.221	2.782	Win2	0.6129	n/a	No	2.782	n/a	n/a	NoResponse	0	0.0	n/a	3	30	ISIslide	MissedWin	True
300.029	0.25	Lose2	0.5938	0.0	No	2.821	0.029	n/a	NoResponse	-1	n/a	n/a	2	31	Cue	Loss	True
300.28	4.05	Lose2	0.5938	0.0	No	2.821	0.001	n/a	NoResponse	-1	n/a	n/a	2	31	Fixation	Loss	True
304.325	0.19	Lose2	0.5938	0.004	No	2.821	-0.004	2.0	NoResponse	-1	0.341	303.666	2	31	Target	Loss	True
304.526	0.51	Lose2	0.5938	n/a	No	2.821	n/a	n/a	NoResponse	-1	n/a	n/a	2	31	Blank	Loss	True
304.666	0.3	Lose2	0.5938	0.004	No	2.821	-0.004	2.0	NoResponse	-1	0.341	n/a	2	31	ButtonPress	Loss	True
305.027	1.45	Lose2	0.5938	n/a	No	2.821	n/a	5.0	NoResponse	-1	0.018	304.045	2	31	Feedback	Loss	True
306.482	2.821	Lose2	0.5938	n/a	No	2.821	n/a	n/a	NoResponse	-1	0.0	n/a	2	31	ISIslide	Loss	True
309.323	0.25	Lose2	0.5758	0.001	No	2.627	0.023	n/a	LatePress	-1	n/a	n/a	1	32	Cue	Loss	True
309.574	4.15	Lose2	0.5758	0.0	No	2.627	0.001	n/a	LatePress	-1	n/a	n/a	1	32	Fixation	Loss	True
313.72	0.2	Lose2	0.5758	0.003	No	2.627	-0.003	2.0	LatePress	-1	0.202	312.922	1	32	Target	Loss	True
313.921	0.5	Lose2	0.5758	n/a	No	2.627	n/a	n/a	LatePress	-1	n/a	n/a	1	32	Blank	Loss	True
313.922	0.3	Lose2	0.5758	0.003	No	2.627	-0.003	2.0	LatePress	-1	0.202	n/a	1	32	ButtonPress	Loss	True
314.422	1.45	Lose2	0.5758	n/a	No	2.627	n/a	5.0	LatePress	-1	0.037	313.459	1	32	Feedback	Loss	True
315.876	2.627	Lose2	0.5758	n/a	No	2.627	n/a	n/a	LatePress	-1	0.0	n/a	1	32	ISIslide	Loss	True
318.518	0.25	Win2	0.5882000000000001	0.0	Yes	2.682	0.018	n/a	GoodResponse	1	n/a	n/a	2	33	Cue	Win	True
318.768	4.0	Win2	0.5882000000000001	0.0	Yes	2.682	0.0	n/a	GoodResponse	1	n/a	n/a	2	33	Fixation	Win	True
322.764	0.21	Win2	0.5882000000000001	0.004	Yes	2.682	-0.004	2.0	GoodResponse	1	0.204	321.968	2	33	Target	Win	True
322.968	0.3	Win2	0.5882000000000001	0.004	Yes	2.682	-0.004	2.0	GoodResponse	1	0.204	n/a	2	33	ButtonPress	Win	True
322.981	0.49	Win2	0.5882000000000001	n/a	Yes	2.682	n/a	n/a	GoodResponse	1	n/a	n/a	2	33	Blank	Win	True
323.466	1.45	Win2	0.5882000000000001	n/a	Yes	2.682	n/a	5.0	GoodResponse	1	0.018	322.484	2	33	Feedback	Win	True
324.92	2.682	Win2	0.5882000000000001	n/a	Yes	2.682	n/a	n/a	GoodResponse	1	0.0	n/a	2	33	ISIslide	Win	True
327.628	0.25	Lose2	0.6	0.0	Yes	2.622	0.028	n/a	GoodResponse	0	n/a	n/a	2	34	Cue	AvoidedLoss	True
327.879	4.05	Lose2	0.6	0.0	Yes	2.622	0.001	n/a	GoodResponse	0	n/a	n/a	2	34	Fixation	AvoidedLoss	True
331.924	0.22	Lose2	0.6	0.004	Yes	2.622	-0.004	2.0	GoodResponse	0	0.216	331.14	2	34	Target	AvoidedLoss	True
332.14	0.3	Lose2	0.6	0.004	Yes	2.622	-0.004	2.0	GoodResponse	0	0.216	n/a	2	34	ButtonPress	AvoidedLoss	True
332.158	0.48	Lose2	0.6	n/a	Yes	2.622	n/a	n/a	GoodResponse	0	n/a	n/a	2	34	Blank	AvoidedLoss	True
332.626	1.45	Lose2	0.6	n/a	Yes	2.622	n/a	5.0	GoodResponse	0	0.029	331.655	2	34	Feedback	AvoidedLoss	True
334.081	2.622	Lose2	0.6	n/a	Yes	2.622	n/a	n/a	GoodResponse	0	0.0	n/a	2	34	ISIslide	AvoidedLoss	True
336.722	0.25	Lose2	0.6111	0.0	Yes	2.678	0.022	n/a	GoodResponse	0	n/a	n/a	2	35	Cue	AvoidedLoss	True
336.973	4.0	Lose2	0.6111	0.0	Yes	2.678	0.001	n/a	GoodResponse	0	n/a	n/a	2	35	Fixation	AvoidedLoss	True
340.968	0.23	Lose2	0.6111	0.004	Yes	2.678	-0.004	2.0	GoodResponse	0	0.218	340.186	2	35	Target	AvoidedLoss	True
341.186	0.3	Lose2	0.6111	0.004	Yes	2.678	-0.004	2.0	GoodResponse	0	0.218	n/a	2	35	ButtonPress	AvoidedLoss	True
341.202	0.47	Lose2	0.6111	n/a	Yes	2.678	n/a	n/a	GoodResponse	0	n/a	n/a	2	35	Blank	AvoidedLoss	True
341.67	1.45	Lose2	0.6111	n/a	Yes	2.678	n/a	5.0	GoodResponse	0	0.008	340.678	2	35	Feedback	AvoidedLoss	True
343.124	2.678	Lose2	0.6111	n/a	Yes	2.678	n/a	n/a	GoodResponse	0	0.0	n/a	2	35	ISIslide	AvoidedLoss	True
345.816	0.25	Control	0.6215999999999999	0.0	Yes	2.684	0.016	n/a	GoodResponse	0	n/a	n/a	2	36	Cue	Neutral	True
346.067	4.0	Control	0.6215999999999999	0.0	Yes	2.684	0.001	n/a	GoodResponse	0	n/a	n/a	2	36	Fixation	Neutral	True
350.062	0.24	Control	0.6215999999999999	0.004	Yes	2.684	-0.004	2.0	GoodResponse	0	0.217	349.279	2	36	Target	Neutral	True
350.279	0.3	Control	0.6215999999999999	0.004	Yes	2.684	-0.004	2.0	GoodResponse	0	0.217	n/a	2	36	ButtonPress	Neutral	True
350.313	0.46	Control	0.6215999999999999	n/a	Yes	2.684	n/a	n/a	GoodResponse	0	n/a	n/a	2	36	Blank	Neutral	True
350.764	1.45	Control	0.6215999999999999	n/a	Yes	2.684	n/a	5.0	GoodResponse	0	0.036	349.8	2	36	Feedback	Neutral	True
352.218	2.684	Control	0.6215999999999999	n/a	Yes	2.684	n/a	n/a	GoodResponse	0	0.0	n/a	2	36	ISIslide	Neutral	True
354.926	0.25	Win2	0.6315999999999999	0.001	Yes	2.874	0.026	n/a	GoodResponse	1	n/a	n/a	3	37	Cue	Win	True
355.177	4.0	Win2	0.6315999999999999	0.0	Yes	2.874	0.001	n/a	GoodResponse	1	n/a	n/a	3	37	Fixation	Win	True
359.172	0.25	Win2	0.6315999999999999	0.004	Yes	2.874	-0.004	2.0	GoodResponse	1	0.198	358.37	3	37	Target	Win	True
359.37	0.3	Win2	0.6315999999999999	0.004	Yes	2.874	-0.004	2.0	GoodResponse	1	0.198	n/a	3	37	ButtonPress	Win	True
359.423	0.45	Win2	0.6315999999999999	n/a	Yes	2.874	n/a	n/a	GoodResponse	1	n/a	n/a	3	37	Blank	Win	True
359.875	1.45	Win2	0.6315999999999999	n/a	Yes	2.874	n/a	5.0	GoodResponse	1	0.047	358.922	3	37	Feedback	Win	True
361.329	2.874	Win2	0.6315999999999999	n/a	Yes	2.874	n/a	n/a	GoodResponse	1	0.0	n/a	3	37	ISIslide	Win	True
364.221	0.25	Lose2	0.6154	0.0	No	2.829	0.021	n/a	NoResponse	-1	n/a	n/a	2	38	Cue	Loss	True
364.472	3.95	Lose2	0.6154	0.0	No	2.829	0.001	n/a	NoResponse	-1	n/a	n/a	2	38	Fixation	Loss	True
368.417	0.26	Lose2	0.6154	0.004	No	2.829	-0.004	2.0	NoResponse	-1	0.467	367.884	2	38	Target	Loss	True
368.684	0.44	Lose2	0.6154	n/a	No	2.829	n/a	n/a	NoResponse	-1	n/a	n/a	2	38	Blank	Loss	True
368.884	0.3	Lose2	0.6154	0.004	No	2.829	-0.004	2.0	NoResponse	-1	0.467	n/a	2	38	ButtonPress	Loss	True
369.119	1.45	Lose2	0.6154	n/a	No	2.829	n/a	5.0	NoResponse	-1	0.023	368.142	2	38	Feedback	Loss	True
370.573	2.829	Lose2	0.6154	n/a	No	2.829	n/a	n/a	NoResponse	-1	0.0	n/a	2	38	ISIslide	Loss	True
373.415	0.25	Win2	0.625	0.0	Yes	2.985	0.015	n/a	GoodResponse	1	n/a	n/a	3	39	Cue	Win	True
373.666	4.1	Win2	0.625	0.0	Yes	2.985	0.001	n/a	GoodResponse	1	n/a	n/a	3	39	Fixation	Win	True
377.761	0.27	Win2	0.625	0.004	Yes	2.985	-0.004	2.0	GoodResponse	1	0.209	376.97	3	39	Target	Win	True
377.97	0.3	Win2	0.625	0.004	Yes	2.985	-0.004	2.0	GoodResponse	1	0.209	n/a	3	39	ButtonPress	Win	True
378.046	0.43	Win2	0.625	n/a	Yes	2.985	n/a	n/a	GoodResponse	1	n/a	n/a	3	39	Blank	Win	True
378.463	1.45	Win2	0.625	n/a	Yes	2.985	n/a	5.0	GoodResponse	1	0.045	377.508	3	39	Feedback	Win	True
379.918	2.985	Win2	0.625	n/a	Yes	2.985	n/a	n/a	GoodResponse	1	0.0	n/a	3	39	ISIslide	Win	True
382.927	0.25	Win2	0.6341	0.0	Yes	2.723	0.027	n/a	GoodResponse	1	n/a	n/a	4	40	Cue	Win	False
383.178	3.95	Win2	0.6341	0.0	Yes	2.723	0.001	2.0	GoodResponse	1	3.609	385.787	4	40	Fixation	Win	False
386.787	0.3	Win2	0.6341	0.0	Yes	2.723	0.001	2.0	GoodResponse	1	3.609	n/a	4	40	ButtonPress	Win	False
387.123	0.28	Win2	0.6341	0.004	Yes	2.723	-0.004	2.0	GoodResponse	1	0.21	386.333	4	40	Target	Win	False
387.333	0.3	Win2	0.6341	0.004	Yes	2.723	-0.004	2.0	GoodResponse	1	0.21	n/a	4	40	ButtonPress	Win	False
387.407	0.42	Win2	0.6341	n/a	Yes	2.723	n/a	n/a	GoodResponse	1	n/a	n/a	4	40	Blank	Win	False
387.825	1.45	Win2	0.6341	n/a	Yes	2.723	n/a	5.0	GoodResponse	1	0.048	386.873	4	40	Feedback	Win	False
389.279	2.723	Win2	0.6341	n/a	Yes	2.723	n/a	n/a	GoodResponse	1	0.0	n/a	4	40	ISIslide	Win	False
392.021	0.25	Win2	0.6429	0.0	Yes	2.779	0.021	n/a	GoodResponse	1	n/a	n/a	5	41	Cue	Win	True
392.271	3.9	Win2	0.6429	0.001	Yes	2.779	0.0	n/a	GoodResponse	1	n/a	n/a	5	41	Fixation	Win	True
396.183	0.29	Win2	0.6429	0.0	Yes	2.779	0.012	2.0	GoodResponse	1	0.233	395.416	5	41	Target	Win	True
396.416	0.3	Win2	0.6429	0.0	Yes	2.779	0.012	2.0	GoodResponse	1	0.233	n/a	5	41	ButtonPress	Win	True
396.467	0.41	Win2	0.6429	n/a	Yes	2.779	n/a	n/a	GoodResponse	1	n/a	n/a	5	41	Blank	Win	True
396.869	1.45	Win2	0.6429	n/a	Yes	2.779	n/a	5.0	GoodResponse	1	0.028	395.897	5	41	Feedback	Win	True
398.323	2.779	Win2	0.6429	n/a	Yes	2.779	n/a	n/a	GoodResponse	1	0.0	n/a	5	41	ISIslide	Win	True
401.115	0.25	Control	0.6512	0.0	Yes	2.935	0.015	n/a	GoodResponse	0	n/a	n/a	5	42	Cue	Neutral	True
401.365	3.85	Control	0.6512	0.0	Yes	2.935	0.0	n/a	GoodResponse	0	n/a	n/a	5	42	Fixation	Neutral	True
405.227	0.3	Control	0.6512	0.0	Yes	2.935	0.012	2.0	GoodResponse	0	0.208	404.435	5	42	Target	Neutral	True
405.435	0.3	Control	0.6512	0.0	Yes	2.935	0.012	2.0	GoodResponse	0	0.208	n/a	5	42	ButtonPress	Neutral	True
405.511	0.4	Control	0.6512	n/a	Yes	2.935	n/a	n/a	GoodResponse	0	n/a	n/a	5	42	Blank	Neutral	True
405.912	1.45	Control	0.6512	n/a	Yes	2.935	n/a	5.0	GoodResponse	0	0.01	404.922	5	42	Feedback	Neutral	True
407.367	2.935	Control	0.6512	n/a	Yes	2.935	n/a	n/a	GoodResponse	0	0.0	n/a	5	42	ISIslide	Neutral	True
410.325	0.25	Win2	0.6591	0.001	Yes	3.175	0.025	n/a	GoodResponse	1	n/a	n/a	6	43	Cue	Win	True
410.576	4.0	Win2	0.6591	0.0	Yes	3.175	0.001	n/a	GoodResponse	1	n/a	n/a	6	43	Fixation	Win	True
414.571	0.31	Win2	0.6591	0.004	Yes	3.175	-0.004	2.0	GoodResponse	1	0.207	413.778	6	43	Target	Win	True
414.778	0.3	Win2	0.6591	0.004	Yes	3.175	-0.004	2.0	GoodResponse	1	0.207	n/a	6	43	ButtonPress	Win	True
414.889	0.39	Win2	0.6591	n/a	Yes	3.175	n/a	n/a	GoodResponse	1	n/a	n/a	6	43	Blank	Win	True
415.274	1.45	Win2	0.6591	n/a	Yes	3.175	n/a	5.0	GoodResponse	1	0.014	414.288	6	43	Feedback	Win	True
416.728	3.175	Win2	0.6591	n/a	Yes	3.175	n/a	n/a	GoodResponse	1	0.0	n/a	6	43	ISIslide	Win	True
419.921	0.25	Win2	0.6667000000000001	0.0	Yes	2.979	0.021	n/a	GoodResponse	1	n/a	n/a	7	44	Cue	Win	True
420.172	4.0	Win2	0.6667000000000001	0.0	Yes	2.979	0.001	n/a	GoodResponse	1	n/a	n/a	7	44	Fixation	Win	True
424.167	0.31	Win2	0.6667000000000001	0.004	Yes	2.979	-0.004	2.0	GoodResponse	1	0.221	423.388	7	44	Target	Win	True
424.388	0.3	Win2	0.6667000000000001	0.004	Yes	2.979	-0.004	2.0	GoodResponse	1	0.221	n/a	7	44	ButtonPress	Win	True
424.484	0.39	Win2	0.6667000000000001	n/a	Yes	2.979	n/a	n/a	GoodResponse	1	n/a	n/a	7	44	Blank	Win	True
424.869	1.45	Win2	0.6667000000000001	n/a	Yes	2.979	n/a	5.0	GoodResponse	1	0.028	423.897	7	44	Feedback	Win	True
426.323	2.979	Win2	0.6667000000000001	n/a	Yes	2.979	n/a	n/a	GoodResponse	1	0.0	n/a	7	44	ISIslide	Win	True
429.316	0.25	Control	0.6739	0.0	Yes	2.884	0.016	n/a	GoodResponse	0	n/a	n/a	7	45	Cue	Neutral	True
429.566	4.1	Control	0.6739	0.0	Yes	2.884	0.0	n/a	GoodResponse	0	n/a	n/a	7	45	Fixation	Neutral	True
433.662	0.3	Control	0.6739	0.004	Yes	2.884	-0.004	2.0	GoodResponse	0	0.253	432.915	7	45	Target	Neutral	True
433.915	0.3	Control	0.6739	0.004	Yes	2.884	-0.004	2.0	GoodResponse	0	0.253	n/a	7	45	ButtonPress	Neutral	True
433.963	0.4	Control	0.6739	n/a	Yes	2.884	n/a	n/a	GoodResponse	0	n/a	n/a	7	45	Blank	Neutral	True
434.364	1.45	Control	0.6739	n/a	Yes	2.884	n/a	5.0	GoodResponse	0	0.045	433.409	7	45	Feedback	Neutral	True
435.818	2.884	Control	0.6739	n/a	Yes	2.884	n/a	n/a	GoodResponse	0	0.0	n/a	7	45	ISIslide	Neutral	True
438.727	0.25	Lose2	0.6809000000000001	0.0	Yes	3.373	0.027	n/a	GoodResponse	0	n/a	n/a	7	46	Cue	AvoidedLoss	True
438.978	4.0	Lose2	0.6809000000000001	0.0	Yes	3.373	0.001	n/a	GoodResponse	0	n/a	n/a	7	46	Fixation	AvoidedLoss	True
442.973	0.29	Lose2	0.6809000000000001	0.004	Yes	3.373	-0.004	2.0	GoodResponse	0	0.221	442.194	7	46	Target	AvoidedLoss	True
443.194	0.3	Lose2	0.6809000000000001	0.004	Yes	3.373	-0.004	2.0	GoodResponse	0	0.221	n/a	7	46	ButtonPress	AvoidedLoss	True
443.274	0.41	Lose2	0.6809000000000001	n/a	Yes	3.373	n/a	n/a	GoodResponse	0	n/a	n/a	7	46	Blank	AvoidedLoss	True
443.675	1.45	Lose2	0.6809000000000001	n/a	Yes	3.373	n/a	5.0	GoodResponse	0	0.002	442.677	7	46	Feedback	AvoidedLoss	True
445.129	3.373	Lose2	0.6809000000000001	n/a	Yes	3.373	n/a	n/a	GoodResponse	0	0.0	n/a	7	46	ISIslide	AvoidedLoss	True
448.523	0.25	Lose2	0.6667000000000001	0.0	No	2.677	0.023	n/a	NoResponse	-1	n/a	n/a	6	47	Cue	Loss	True
448.774	4.0	Lose2	0.6667000000000001	0.0	No	2.677	0.001	n/a	NoResponse	-1	n/a	n/a	6	47	Fixation	Loss	True
452.769	0.28	Lose2	0.6667000000000001	0.004	No	2.677	-0.004	2.0	NoResponse	-1	0.47	452.239	6	47	Target	Loss	True
453.053	0.42	Lose2	0.6667000000000001	n/a	No	2.677	n/a	n/a	NoResponse	-1	n/a	n/a	6	47	Blank	Loss	True
453.239	0.3	Lose2	0.6667000000000001	0.004	No	2.677	-0.004	2.0	NoResponse	-1	0.47	n/a	6	47	ButtonPress	Loss	True
453.471	1.45	Lose2	0.6667000000000001	n/a	No	2.677	n/a	5.0	NoResponse	-1	0.011	452.482	6	47	Feedback	Loss	True
454.925	2.677	Lose2	0.6667000000000001	n/a	No	2.677	n/a	n/a	NoResponse	-1	0.0	n/a	6	47	ISIslide	Loss	True
457.617	0.25	Lose2	0.6735	0.0	Yes	3.033	0.017	n/a	GoodResponse	0	n/a	n/a	6	48	Cue	AvoidedLoss	True
457.868	3.95	Lose2	0.6735	0.0	Yes	3.033	0.001	n/a	GoodResponse	0	n/a	n/a	6	48	Fixation	AvoidedLoss	True
461.813	0.27	Lose2	0.6735	0.004	Yes	3.033	-0.004	2.0	GoodResponse	0	0.191	461.004	6	48	Target	AvoidedLoss	True
462.004	0.3	Lose2	0.6735	0.004	Yes	3.033	-0.004	2.0	GoodResponse	0	0.191	n/a	6	48	ButtonPress	AvoidedLoss	True
462.097	0.43	Lose2	0.6735	n/a	Yes	3.033	n/a	n/a	GoodResponse	0	n/a	n/a	6	48	Blank	AvoidedLoss	True
462.515	1.45	Lose2	0.6735	n/a	Yes	3.033	n/a	5.0	GoodResponse	0	0.04	461.555	6	48	Feedback	AvoidedLoss	True
463.969	3.033	Lose2	0.6735	n/a	Yes	3.033	n/a	n/a	GoodResponse	0	0.0	n/a	6	48	ISIslide	AvoidedLoss	True
467.028	0.25	Control	0.68	0.0	Yes	2.872	0.028	n/a	GoodResponse	0	n/a	n/a	6	49	Cue	Neutral	True
467.279	4.0	Control	0.68	0.0	Yes	2.872	0.001	n/a	GoodResponse	0	n/a	n/a	6	49	Fixation	Neutral	True
471.274	0.26	Control	0.68	0.004	Yes	2.872	-0.004	2.0	GoodResponse	0	0.226	470.5	6	49	Target	Neutral	True
471.5	0.3	Control	0.68	0.004	Yes	2.872	-0.004	2.0	GoodResponse	0	0.226	n/a	6	49	ButtonPress	Neutral	True
471.542	0.44	Control	0.68	n/a	Yes	2.872	n/a	n/a	GoodResponse	0	n/a	n/a	6	49	Blank	Neutral	True
471.976	1.45	Control	0.68	n/a	Yes	2.872	n/a	5.0	GoodResponse	0	0.042	471.018	6	49	Feedback	Neutral	True
473.431	2.872	Control	0.68	n/a	Yes	2.872	n/a	n/a	GoodResponse	0	0.0	n/a	6	49	ISIslide	Neutral	True
476.323	0.25	Control	0.6862999999999999	0.0	Yes	2.777	0.023	n/a	GoodResponse	0	n/a	n/a	6	50	Cue	Neutral	True
476.573	4.0	Control	0.6862999999999999	0.001	Yes	2.777	0.0	n/a	GoodResponse	0	n/a	n/a	6	50	Fixation	Neutral	True
480.569	0.25	Control	0.6862999999999999	0.004	Yes	2.777	-0.004	2.0	GoodResponse	0	0.239	479.808	6	50	Target	Neutral	True
480.808	0.3	Control	0.6862999999999999	0.004	Yes	2.777	-0.004	2.0	GoodResponse	0	0.239	n/a	6	50	ButtonPress	Neutral	True
480.82	0.45	Control	0.6862999999999999	n/a	Yes	2.777	n/a	n/a	GoodResponse	0	n/a	n/a	6	50	Blank	Neutral	True
481.271	1.45	Control	0.6862999999999999	n/a	Yes	2.777	n/a	5.0	GoodResponse	0	0.015	480.286	6	50	Feedback	Neutral	True
482.725	2.777	Control	0.6862999999999999	n/a	Yes	2.777	n/a	n/a	GoodResponse	0	0.0	n/a	6	50	ISIslide	Neutral	True
485.517	0.25	Control	0.6923	0.0	Yes	2.733	0.017	n/a	GoodResponse	0	n/a	n/a	6	51	Cue	Neutral	True
485.768	3.95	Control	0.6923	0.0	Yes	2.733	0.001	n/a	GoodResponse	0	n/a	n/a	6	51	Fixation	Neutral	True
489.713	0.24	Control	0.6923	0.004	Yes	2.733	-0.004	2.0	GoodResponse	0	0.167	488.88	6	51	Target	Neutral	True
489.88	0.3	Control	0.6923	0.004	Yes	2.733	-0.004	2.0	GoodResponse	0	0.167	n/a	6	51	ButtonPress	Neutral	True
489.964	0.46	Control	0.6923	n/a	Yes	2.733	n/a	n/a	GoodResponse	0	n/a	n/a	6	51	Blank	Neutral	True
490.415	1.45	Control	0.6923	n/a	Yes	2.733	n/a	5.0	GoodResponse	0	0.042	489.457	6	51	Feedback	Neutral	True
491.869	2.733	Control	0.6923	n/a	Yes	2.733	n/a	n/a	GoodResponse	0	0.0	n/a	6	51	ISIslide	Neutral	True
494.627	0.25	Control	0.6981	0.001	Yes	2.623	0.027	n/a	GoodResponse	0	n/a	n/a	6	52	Cue	Neutral	False
494.878	4.05	Control	0.6981	0.0	Yes	2.623	0.001	2.0	GoodResponse	0	3.514	497.392	6	52	Fixation	Neutral	False
498.392	0.3	Control	0.6981	0.0	Yes	2.623	0.001	2.0	GoodResponse	0	3.514	n/a	6	52	ButtonPress	Neutral	False
498.924	0.23	Control	0.6981	0.003	Yes	2.623	-0.003	2.0	GoodResponse	0	0.219	498.143	6	52	Target	Neutral	False
499.143	0.3	Control	0.6981	0.003	Yes	2.623	-0.003	2.0	GoodResponse	0	0.219	n/a	6	52	ButtonPress	Neutral	False
499.158	0.47	Control	0.6981	n/a	Yes	2.623	n/a	n/a	GoodResponse	0	n/a	n/a	6	52	Blank	Neutral	False
499.626	1.45	Control	0.6981	n/a	Yes	2.623	n/a	5.0	GoodResponse	0	0.006	498.632	6	52	Feedback	Neutral	False
501.08	2.623	Control	0.6981	n/a	Yes	2.623	n/a	n/a	GoodResponse	0	0.0	n/a	6	52	ISIslide	Neutral	False
503.721	0.25	Win2	0.6851999999999999	0.0	No	2.929	0.021	n/a	LatePress	0	n/a	n/a	6	53	Cue	MissedWin	True
503.972	4.05	Win2	0.6851999999999999	0.0	No	2.929	0.001	n/a	LatePress	0	n/a	n/a	6	53	Fixation	MissedWin	True
508.018	0.22	Win2	0.6851999999999999	0.003	No	2.929	-0.003	2.0	LatePress	0	0.223	507.241	6	53	Target	MissedWin	True
508.241	0.3	Win2	0.6851999999999999	0.003	No	2.929	-0.003	2.0	LatePress	0	0.223	n/a	6	53	ButtonPress	MissedWin	True
508.252	0.48	Win2	0.6851999999999999	n/a	No	2.929	n/a	n/a	LatePress	0	n/a	n/a	6	53	Blank	MissedWin	True
508.72	1.45	Win2	0.6851999999999999	n/a	No	2.929	n/a	5.0	LatePress	0	0.03	507.75	6	53	Feedback	MissedWin	True
510.174	2.929	Win2	0.6851999999999999	n/a	No	2.929	n/a	n/a	LatePress	0	0.0	n/a	6	53	ISIslide	MissedWin	True
513.116	0.25	Win2	0.6727	0.0	No	2.734	0.016	n/a	NoResponse	0	n/a	n/a	6	54	Cue	MissedWin	False
513.367	3.95	Win2	0.6727	0.0	No	2.734	0.001	2.0	NoResponse	0	0.034	512.401	6	54	Fixation	MissedWin	False
513.401	0.3	Win2	0.6727	0.0	No	2.734	0.001	2.0	NoResponse	0	0.034	n/a	6	54	ButtonPress	MissedWin	False
517.312	0.21	Win2	0.6727	0.004	No	2.734	-0.004	2.0	NoResponse	0	0.226	516.538	6	54	Target	MissedWin	False
517.529	0.49	Win2	0.6727	n/a	No	2.734	n/a	n/a	NoResponse	0	n/a	n/a	6	54	Blank	MissedWin	False
517.538	0.3	Win2	0.6727	0.004	No	2.734	-0.004	2.0	NoResponse	0	0.226	n/a	6	54	ButtonPress	MissedWin	False
518.014	1.45	Win2	0.6727	n/a	No	2.734	n/a	5.0	NoResponse	0	0.008	517.022	6	54	Feedback	MissedWin	False
519.468	2.734	Win2	0.6727	n/a	No	2.734	n/a	n/a	NoResponse	0	0.0	n/a	6	54	ISIslide	MissedWin	False
522.227	0.25	Control	0.6786	0.0	Yes	3.023	0.027	n/a	GoodResponse	0	n/a	n/a	6	55	Cue	Neutral	True
522.477	3.95	Control	0.6786	0.001	Yes	3.023	0.0	n/a	GoodResponse	0	n/a	n/a	6	55	Fixation	Neutral	True
526.423	0.2	Control	0.6786	0.004	Yes	3.023	-0.004	2.0	GoodResponse	0	0.197	525.62	6	55	Target	Neutral	True
526.62	0.3	Control	0.6786	0.004	Yes	3.023	-0.004	2.0	GoodResponse	0	0.197	n/a	6	55	ButtonPress	Neutral	True
526.623	0.5	Control	0.6786	n/a	Yes	3.023	n/a	n/a	GoodResponse	0	n/a	n/a	6	55	Blank	Neutral	True
527.125	1.45	Control	0.6786	n/a	Yes	3.023	n/a	5.0	GoodResponse	0	0.014	526.139	6	55	Feedback	Neutral	True
528.579	3.023	Control	0.6786	n/a	Yes	3.023	n/a	n/a	GoodResponse	0	0.0	n/a	6	55	ISIslide	Neutral	True
531.621	0.25	Control	0.6667000000000001	0.0	No	2.829	0.021	n/a	NoResponse	0	n/a	n/a	6	56	Cue	Neutral	True
531.872	3.95	Control	0.6667000000000001	0.0	No	2.829	0.001	n/a	NoResponse	0	n/a	n/a	6	56	Fixation	Neutral	True
535.817	0.19	Control	0.6667000000000001	0.004	No	2.829	-0.004	2.0	NoResponse	0	0.26	535.077	6	56	Target	Neutral	True
536.018	0.51	Control	0.6667000000000001	n/a	No	2.829	n/a	n/a	NoResponse	0	n/a	n/a	6	56	Blank	Neutral	True
536.077	0.3	Control	0.6667000000000001	0.004	No	2.829	-0.004	2.0	NoResponse	0	0.26	n/a	6	56	ButtonPress	Neutral	True
536.519	1.45	Control	0.6667000000000001	n/a	No	2.829	n/a	5.0	NoResponse	0	0.035	535.554	6	56	Feedback	Neutral	True
537.974	2.829	Control	0.6667000000000001	n/a	No	2.829	n/a	n/a	NoResponse	0	0.0	n/a	6	56	ISIslide	Neutral	True
540.816	0.25	Control	0.6552	0.0	No	3.484	0.016	n/a	NoResponse	0	n/a	n/a	6	57	Cue	Neutral	True
541.066	4.0	Control	0.6552	0.0	No	3.484	0.0	n/a	NoResponse	0	n/a	n/a	6	57	Fixation	Neutral	True
545.062	0.18	Control	0.6552	0.004	No	3.484	-0.004	2.0	NoResponse	0	0.289	544.351	6	57	Target	Neutral	True
545.245	0.52	Control	0.6552	n/a	No	3.484	n/a	n/a	NoResponse	0	n/a	n/a	6	57	Blank	Neutral	True
545.351	0.3	Control	0.6552	0.004	No	3.484	-0.004	2.0	NoResponse	0	0.289	n/a	6	57	ButtonPress	Neutral	True
545.764	1.45	Control	0.6552	n/a	No	3.484	n/a	5.0	NoResponse	0	0.01	544.774	6	57	Feedback	Neutral	True
547.218	3.484	Control	0.6552	n/a	No	3.484	n/a	n/a	NoResponse	0	0.0	n/a	6	57	ISIslide	Neutral	True
550.729	0.25	Win2	0.6441	0.0	No	2.721	0.029	n/a	NoResponse	0	n/a	n/a	6	58	Cue	MissedWin	True
550.979	4.05	Win2	0.6441	0.0	No	2.721	0.0	n/a	NoResponse	0	n/a	n/a	6	58	Fixation	MissedWin	True
555.025	0.18	Win2	0.6441	0.004	No	2.721	-0.004	2.0	NoResponse	0	0.208	554.233	6	58	Target	MissedWin	True
555.209	0.52	Win2	0.6441	n/a	No	2.721	n/a	n/a	NoResponse	0	n/a	n/a	6	58	Blank	MissedWin	True
555.233	0.3	Win2	0.6441	0.004	No	2.721	-0.004	2.0	NoResponse	0	0.208	n/a	6	58	ButtonPress	MissedWin	True
555.727	1.45	Win2	0.6441	n/a	No	2.721	n/a	5.0	NoResponse	0	0.046	554.773	6	58	Feedback	MissedWin	True
557.181	2.721	Win2	0.6441	n/a	No	2.721	n/a	n/a	NoResponse	0	0.0	n/a	6	58	ISIslide	MissedWin	True
559.923	0.25	Lose2	0.6333	0.0	No	2.677	0.023	n/a	NoResponse	-1	n/a	n/a	5	59	Cue	Loss	True
560.173	4.0	Lose2	0.6333	0.001	No	2.677	0.0	n/a	NoResponse	-1	n/a	n/a	5	59	Fixation	Loss	True
564.169	0.19	Lose2	0.6333	0.004	No	2.677	-0.004	2.0	NoResponse	-1	0.209	563.378	5	59	Target	Loss	True
564.369	0.51	Lose2	0.6333	n/a	No	2.677	n/a	n/a	NoResponse	-1	n/a	n/a	5	59	Blank	Loss	True
564.378	0.3	Lose2	0.6333	0.004	No	2.677	-0.004	2.0	NoResponse	-1	0.209	n/a	5	59	ButtonPress	Loss	True
564.871	1.45	Lose2	0.6333	n/a	No	2.677	n/a	5.0	NoResponse	-1	0.024	563.895	5	59	Feedback	Loss	True
566.325	2.677	Lose2	0.6333	n/a	No	2.677	n/a	n/a	NoResponse	-1	0.0	n/a	5	59	ISIslide	Loss	True
569.017	0.25	Control	0.623	0.0	No	2.683	0.017	n/a	NoResponse	0	n/a	n/a	5	60	Cue	Neutral	True
569.267	4.0	Control	0.623	0.0	No	2.683	0.0	n/a	NoResponse	0	n/a	n/a	5	60	Fixation	Neutral	True
573.263	0.2	Control	0.623	0.004	No	2.683	-0.004	2.0	NoResponse	0	0.334	572.597	5	60	Target	Neutral	True
573.463	0.5	Control	0.623	n/a	No	2.683	n/a	n/a	NoResponse	0	n/a	n/a	5	60	Blank	Neutral	True
573.597	0.3	Control	0.623	0.004	No	2.683	-0.004	2.0	NoResponse	0	0.334	n/a	5	60	ButtonPress	Neutral	True
573.965	1.45	Control	0.623	n/a	No	2.683	n/a	5.0	NoResponse	0	0.007	572.972	5	60	Feedback	Neutral	True
575.419	2.683	Control	0.623	n/a	No	2.683	n/a	n/a	NoResponse	0	0.0	n/a	5	60	ISIslide	Neutral	True
578.127	0.25	Lose2	0.629	0.0	Yes	2.973	0.027	n/a	GoodResponse	0	n/a	n/a	5	61	Cue	AvoidedLoss	True
578.378	4.0	Lose2	0.629	0.0	Yes	2.973	0.001	n/a	GoodResponse	0	n/a	n/a	5	61	Fixation	AvoidedLoss	True
582.373	0.21	Lose2	0.629	0.004	Yes	2.973	-0.004	2.0	GoodResponse	0	0.196	581.569	5	61	Target	AvoidedLoss	True
582.569	0.3	Lose2	0.629	0.004	Yes	2.973	-0.004	2.0	GoodResponse	0	0.196	n/a	5	61	ButtonPress	AvoidedLoss	True
582.59	0.49	Lose2	0.629	n/a	Yes	2.973	n/a	n/a	GoodResponse	0	n/a	n/a	5	61	Blank	AvoidedLoss	True
583.075	1.45	Lose2	0.629	n/a	Yes	2.973	n/a	5.0	GoodResponse	0	0.015	582.09	5	61	Feedback	AvoidedLoss	True
584.53	2.973	Lose2	0.629	n/a	Yes	2.973	n/a	n/a	GoodResponse	0	0.0	n/a	5	61	ISIslide	AvoidedLoss	True
587.522	0.25	Lose2	0.6349	0.0	Yes	2.878	0.022	n/a	GoodResponse	0	n/a	n/a	5	62	Cue	AvoidedLoss	True
587.773	3.9	Lose2	0.6349	0.0	Yes	2.878	0.001	n/a	GoodResponse	0	n/a	n/a	5	62	Fixation	AvoidedLoss	True
591.668	0.22	Lose2	0.6349	0.004	Yes	2.878	-0.004	2.0	GoodResponse	0	0.208	590.876	5	62	Target	AvoidedLoss	True
591.876	0.3	Lose2	0.6349	0.004	Yes	2.878	-0.004	2.0	GoodResponse	0	0.208	n/a	5	62	ButtonPress	AvoidedLoss	True
591.902	0.48	Lose2	0.6349	n/a	Yes	2.878	n/a	n/a	GoodResponse	0	n/a	n/a	5	62	Blank	AvoidedLoss	True
592.37	1.45	Lose2	0.6349	n/a	Yes	2.878	n/a	5.0	GoodResponse	0	0.037	591.407	5	62	Feedback	AvoidedLoss	True
593.824	2.878	Lose2	0.6349	n/a	Yes	2.878	n/a	n/a	GoodResponse	0	0.0	n/a	5	62	ISIslide	AvoidedLoss	True
596.716	0.25	Lose2	0.6406000000000001	0.0	Yes	2.634	0.016	n/a	GoodResponse	0	n/a	n/a	5	63	Cue	AvoidedLoss	True
596.967	4.05	Lose2	0.6406000000000001	0.0	Yes	2.634	0.001	n/a	GoodResponse	0	n/a	n/a	5	63	Fixation	AvoidedLoss	True
601.012	0.23	Lose2	0.6406000000000001	0.004	Yes	2.634	-0.004	2.0	GoodResponse	0	0.179	600.191	5	63	Target	AvoidedLoss	True
601.191	0.3	Lose2	0.6406000000000001	0.004	Yes	2.634	-0.004	2.0	GoodResponse	0	0.179	n/a	5	63	ButtonPress	AvoidedLoss	True
601.246	0.47	Lose2	0.6406000000000001	n/a	Yes	2.634	n/a	n/a	GoodResponse	0	n/a	n/a	5	63	Blank	AvoidedLoss	True
601.714	1.45	Lose2	0.6406000000000001	n/a	Yes	2.634	n/a	5.0	GoodResponse	0	0.01	600.724	5	63	Feedback	AvoidedLoss	True
603.169	2.634	Lose2	0.6406000000000001	n/a	Yes	2.634	n/a	n/a	GoodResponse	0	0.0	n/a	5	63	ISIslide	AvoidedLoss	True
605.827	0.25	Win2	0.6308	0.0	No	3.123	0.027	n/a	NoResponse	0	n/a	n/a	5	64	Cue	MissedWin	True
606.077	4.15	Win2	0.6308	0.0	No	3.123	0.0	n/a	NoResponse	0	n/a	n/a	5	64	Fixation	MissedWin	True
610.223	0.24	Win2	0.6308	0.004	No	3.123	-0.004	2.0	NoResponse	0	0.275	609.498	5	64	Target	MissedWin	True
610.474	0.46	Win2	0.6308	n/a	No	3.123	n/a	n/a	NoResponse	0	n/a	n/a	5	64	Blank	MissedWin	True
610.498	0.3	Win2	0.6308	0.004	No	3.123	-0.004	2.0	NoResponse	0	0.275	n/a	5	64	ButtonPress	MissedWin	True
610.925	1.45	Win2	0.6308	n/a	No	3.123	n/a	5.0	NoResponse	0	0.018	609.943	5	64	Feedback	MissedWin	True
612.38	3.123	Win2	0.6308	n/a	No	3.123	n/a	n/a	NoResponse	0	0.0	n/a	5	64	ISIslide	MissedWin	True
615.522	0.25	Control	0.6364	0.0	Yes	2.778	0.022	n/a	GoodResponse	0	n/a	n/a	5	65	Cue	Neutral	True
615.773	4.0	Control	0.6364	0.0	Yes	2.778	0.001	n/a	GoodResponse	0	n/a	n/a	5	65	Fixation	Neutral	True
619.768	0.25	Control	0.6364	0.004	Yes	2.778	-0.004	2.0	GoodResponse	0	0.218	618.986	5	65	Target	Neutral	True
619.986	0.3	Control	0.6364	0.004	Yes	2.778	-0.004	2.0	GoodResponse	0	0.218	n/a	5	65	ButtonPress	Neutral	True
620.019	0.45	Control	0.6364	n/a	Yes	2.778	n/a	n/a	GoodResponse	0	n/a	n/a	5	65	Blank	Neutral	True
620.47	1.45	Control	0.6364	n/a	Yes	2.778	n/a	5.0	GoodResponse	0	0.034	619.504	5	65	Feedback	Neutral	True
621.925	2.778	Control	0.6364	n/a	Yes	2.778	n/a	n/a	GoodResponse	0	0.0	n/a	5	65	ISIslide	Neutral	True
624.716	0.25	Win2	0.6418	0.0	Yes	2.784	0.016	n/a	GoodResponse	1	n/a	n/a	6	66	Cue	Win	True
624.967	3.9	Win2	0.6418	0.0	Yes	2.784	0.001	n/a	GoodResponse	1	n/a	n/a	6	66	Fixation	Win	True
628.862	0.26	Win2	0.6418	0.004	Yes	2.784	-0.004	2.0	GoodResponse	1	0.199	628.061	6	66	Target	Win	True
629.061	0.3	Win2	0.6418	0.004	Yes	2.784	-0.004	2.0	GoodResponse	1	0.199	n/a	6	66	ButtonPress	Win	True
629.13	0.44	Win2	0.6418	n/a	Yes	2.784	n/a	n/a	GoodResponse	1	n/a	n/a	6	66	Blank	Win	True
629.564	1.45	Win2	0.6418	n/a	Yes	2.784	n/a	5.0	GoodResponse	1	0.013	628.577	6	66	Feedback	Win	True
631.019	2.784	Win2	0.6418	n/a	Yes	2.784	n/a	n/a	GoodResponse	1	0.0	n/a	6	66	ISIslide	Win	True
633.827	0.25	Control	0.6470999999999999	0.0	Yes	2.723	0.027	n/a	GoodResponse	0	n/a	n/a	6	67	Cue	Neutral	True
634.078	3.95	Control	0.6470999999999999	0.0	Yes	2.723	0.001	n/a	GoodResponse	0	n/a	n/a	6	67	Fixation	Neutral	True
638.023	0.27	Control	0.6470999999999999	0.004	Yes	2.723	-0.004	2.0	GoodResponse	0	0.24	637.263	6	67	Target	Neutral	True
638.263	0.3	Control	0.6470999999999999	0.004	Yes	2.723	-0.004	2.0	GoodResponse	0	0.24	n/a	6	67	ButtonPress	Neutral	True
638.307	0.43	Control	0.6470999999999999	n/a	Yes	2.723	n/a	n/a	GoodResponse	0	n/a	n/a	6	67	Blank	Neutral	True
638.725	1.45	Control	0.6470999999999999	n/a	Yes	2.723	n/a	5.0	GoodResponse	0	0.023	637.748	6	67	Feedback	Neutral	True
640.179	2.723	Control	0.6470999999999999	n/a	Yes	2.723	n/a	n/a	GoodResponse	0	0.0	n/a	6	67	ISIslide	Neutral	True
642.921	0.25	Win2	0.6522	0.0	Yes	3.079	0.021	n/a	GoodResponse	1	n/a	n/a	7	68	Cue	Win	True
643.172	4.0	Win2	0.6522	0.0	Yes	3.079	0.001	n/a	GoodResponse	1	n/a	n/a	7	68	Fixation	Win	True
647.167	0.28	Win2	0.6522	0.004	Yes	3.079	-0.004	2.0	GoodResponse	1	0.213	646.38	7	68	Target	Win	True
647.38	0.3	Win2	0.6522	0.004	Yes	3.079	-0.004	2.0	GoodResponse	1	0.213	n/a	7	68	ButtonPress	Win	True
647.451	0.42	Win2	0.6522	n/a	Yes	3.079	n/a	n/a	GoodResponse	1	n/a	n/a	7	68	Blank	Win	True
647.869	1.45	Win2	0.6522	n/a	Yes	3.079	n/a	5.0	GoodResponse	1	0.0	646.869	7	68	Feedback	Win	True
649.323	3.079	Win2	0.6522	n/a	Yes	3.079	n/a	n/a	GoodResponse	1	0.0	n/a	7	68	ISIslide	Win	True
652.416	0.25	Win2	0.6570999999999999	0.0	Yes	3.234	0.016	n/a	GoodResponse	1	n/a	n/a	8	69	Cue	Win	True
652.667	3.95	Win2	0.6570999999999999	0.0	Yes	3.234	0.001	n/a	GoodResponse	1	n/a	n/a	8	69	Fixation	Win	True
656.612	0.29	Win2	0.6570999999999999	0.004	Yes	3.234	-0.004	2.0	GoodResponse	1	0.2	655.812	8	69	Target	Win	True
656.812	0.3	Win2	0.6570999999999999	0.004	Yes	3.234	-0.004	2.0	GoodResponse	1	0.2	n/a	8	69	ButtonPress	Win	True
656.913	0.41	Win2	0.6570999999999999	n/a	Yes	3.234	n/a	n/a	GoodResponse	1	n/a	n/a	8	69	Blank	Win	True
657.314	1.45	Win2	0.6570999999999999	n/a	Yes	3.234	n/a	5.0	GoodResponse	1	0.019	656.333	8	69	Feedback	Win	True
658.768	3.234	Win2	0.6570999999999999	n/a	Yes	3.234	n/a	n/a	GoodResponse	1	0.0	n/a	8	69	ISIslide	Win	True
662.028	0.25	Lose2	0.662	0.0	Yes	3.022	0.028	n/a	GoodResponse	0	n/a	n/a	8	70	Cue	AvoidedLoss	True
662.279	4.05	Lose2	0.662	0.0	Yes	3.022	0.001	n/a	GoodResponse	0	n/a	n/a	8	70	Fixation	AvoidedLoss	True
666.324	0.29	Lose2	0.662	0.004	Yes	3.022	-0.004	2.0	GoodResponse	0	0.213	665.537	8	70	Target	AvoidedLoss	True
666.537	0.3	Lose2	0.662	0.004	Yes	3.022	-0.004	2.0	GoodResponse	0	0.213	n/a	8	70	ButtonPress	AvoidedLoss	True
666.625	0.41	Lose2	0.662	n/a	Yes	3.022	n/a	n/a	GoodResponse	0	n/a	n/a	8	70	Blank	AvoidedLoss	True
667.026	1.45	Lose2	0.662	n/a	Yes	3.022	n/a	5.0	GoodResponse	0	0.014	666.04	8	70	Feedback	AvoidedLoss	True
668.481	3.022	Lose2	0.662	n/a	Yes	3.022	n/a	n/a	GoodResponse	0	0.0	n/a	8	70	ISIslide	AvoidedLoss	True
671.523	0.25	Win2	0.6667000000000001	0.0	Yes	2.727	0.023	n/a	GoodResponse	1	n/a	n/a	9	71	Cue	Win	True
671.774	4.05	Win2	0.6667000000000001	0.0	Yes	2.727	0.001	n/a	GoodResponse	1	n/a	n/a	9	71	Fixation	Win	True
675.819	0.29	Win2	0.6667000000000001	0.004	Yes	2.727	-0.004	2.0	GoodResponse	1	0.196	675.015	9	71	Target	Win	True
676.015	0.3	Win2	0.6667000000000001	0.004	Yes	2.727	-0.004	2.0	GoodResponse	1	0.196	n/a	9	71	ButtonPress	Win	True
676.12	0.41	Win2	0.6667000000000001	n/a	Yes	2.727	n/a	n/a	GoodResponse	1	n/a	n/a	9	71	Blank	Win	True
676.521	1.45	Win2	0.6667000000000001	n/a	Yes	2.727	n/a	5.0	GoodResponse	1	0.032	675.553	9	71	Feedback	Win	True
677.976	2.727	Win2	0.6667000000000001	n/a	Yes	2.727	n/a	n/a	GoodResponse	1	0.0	n/a	9	71	ISIslide	Win	True
680.717	0.25	Win2	0.6712	0.0	Yes	2.783	0.017	n/a	GoodResponse	1	n/a	n/a	10	72	Cue	Win	True
680.968	4.1	Win2	0.6712	0.0	Yes	2.783	0.001	n/a	GoodResponse	1	n/a	n/a	10	72	Fixation	Win	True
685.064	0.28	Win2	0.6712	0.003	Yes	2.783	-0.003	2.0	GoodResponse	1	0.203	684.267	10	72	Target	Win	True
685.267	0.3	Win2	0.6712	0.003	Yes	2.783	-0.003	2.0	GoodResponse	1	0.203	n/a	10	72	ButtonPress	Win	True
685.348	0.42	Win2	0.6712	n/a	Yes	2.783	n/a	n/a	GoodResponse	1	n/a	n/a	10	72	Blank	Win	True
685.766	1.45	Win2	0.6712	n/a	Yes	2.783	n/a	5.0	GoodResponse	1	0.006	684.772	10	72	Feedback	Win	True
687.22	2.783	Win2	0.6712	n/a	Yes	2.783	n/a	n/a	GoodResponse	1	0.0	n/a	10	72	ISIslide	Win	True
690.028	0.25	Win2	0.6757	0.0	Yes	2.672	0.028	n/a	GoodResponse	1	n/a	n/a	11	73	Cue	Win	True
690.279	4.0	Win2	0.6757	0.0	Yes	2.672	0.001	n/a	GoodResponse	1	n/a	n/a	11	73	Fixation	Win	True
694.274	0.27	Win2	0.6757	0.004	Yes	2.672	-0.004	2.0	GoodResponse	1	0.241	693.515	11	73	Target	Win	True
694.515	0.3	Win2	0.6757	0.004	Yes	2.672	-0.004	2.0	GoodResponse	1	0.241	n/a	11	73	ButtonPress	Win	True
694.559	0.43	Win2	0.6757	n/a	Yes	2.672	n/a	n/a	GoodResponse	1	n/a	n/a	11	73	Blank	Win	True
694.977	1.45	Win2	0.6757	n/a	Yes	2.672	n/a	5.0	GoodResponse	1	0.014	693.991	11	73	Feedback	Win	True
696.431	2.672	Win2	0.6757	n/a	Yes	2.672	n/a	n/a	GoodResponse	1	0.0	n/a	11	73	ISIslide	Win	True
699.122	0.25	Lose2	0.68	0.0	Yes	2.628	0.022	n/a	GoodResponse	0	n/a	n/a	11	74	Cue	AvoidedLoss	True
699.373	4.05	Lose2	0.68	0.0	Yes	2.628	0.001	n/a	GoodResponse	0	n/a	n/a	11	74	Fixation	AvoidedLoss	True
703.418	0.26	Lose2	0.68	0.004	Yes	2.628	-0.004	2.0	GoodResponse	0	0.208	702.626	11	74	Target	AvoidedLoss	True
703.626	0.3	Lose2	0.68	0.004	Yes	2.628	-0.004	2.0	GoodResponse	0	0.208	n/a	11	74	ButtonPress	AvoidedLoss	True
703.686	0.44	Lose2	0.68	n/a	Yes	2.628	n/a	n/a	GoodResponse	0	n/a	n/a	11	74	Blank	AvoidedLoss	True
704.121	1.45	Lose2	0.68	n/a	Yes	2.628	n/a	5.0	GoodResponse	0	0.041	703.162	11	74	Feedback	AvoidedLoss	True
705.575	2.628	Lose2	0.68	n/a	Yes	2.628	n/a	n/a	GoodResponse	0	0.0	n/a	11	74	ISIslide	AvoidedLoss	True
708.216	0.25	Lose2	0.6842	0.0	Yes	2.934	0.016	n/a	GoodResponse	0	n/a	n/a	11	75	Cue	AvoidedLoss	True
708.467	3.95	Lose2	0.6842	0.0	Yes	2.934	0.001	n/a	GoodResponse	0	n/a	n/a	11	75	Fixation	AvoidedLoss	True
712.412	0.25	Lose2	0.6842	0.004	Yes	2.934	-0.004	2.0	GoodResponse	0	0.193	711.605	11	75	Target	AvoidedLoss	True
712.605	0.3	Lose2	0.6842	0.004	Yes	2.934	-0.004	2.0	GoodResponse	0	0.193	n/a	11	75	ButtonPress	AvoidedLoss	True
712.663	0.45	Lose2	0.6842	n/a	Yes	2.934	n/a	n/a	GoodResponse	0	n/a	n/a	11	75	Blank	AvoidedLoss	True
713.114	1.45	Lose2	0.6842	n/a	Yes	2.934	n/a	5.0	GoodResponse	0	0.023	712.137	11	75	Feedback	AvoidedLoss	True
714.568	2.934	Lose2	0.6842	n/a	Yes	2.934	n/a	n/a	GoodResponse	0	0.0	n/a	11	75	ISIslide	AvoidedLoss	True
717.527	0.25	Control	0.6883	0.0	Yes	3.223	0.027	n/a	GoodResponse	0	n/a	n/a	11	76	Cue	Neutral	True
717.778	4.05	Control	0.6883	0.0	Yes	3.223	0.001	n/a	GoodResponse	0	n/a	n/a	11	76	Fixation	Neutral	True
721.823	0.24	Control	0.6883	0.004	Yes	3.223	-0.004	2.0	GoodResponse	0	0.218	721.041	11	76	Target	Neutral	True
722.041	0.3	Control	0.6883	0.004	Yes	3.223	-0.004	2.0	GoodResponse	0	0.218	n/a	11	76	ButtonPress	Neutral	True
722.074	0.46	Control	0.6883	n/a	Yes	3.223	n/a	n/a	GoodResponse	0	n/a	n/a	11	76	Blank	Neutral	True
722.526	1.45	Control	0.6883	n/a	Yes	3.223	n/a	5.0	GoodResponse	0	0.026	721.552	11	76	Feedback	Neutral	True
723.98	3.223	Control	0.6883	n/a	Yes	3.223	n/a	n/a	GoodResponse	0	0.0	n/a	11	76	ISIslide	Neutral	True
727.223	0.25	Lose2	0.6923	0.0	Yes	2.577	0.023	n/a	GoodResponse	0	n/a	n/a	11	77	Cue	AvoidedLoss	True
727.474	3.95	Lose2	0.6923	0.0	Yes	2.577	0.001	n/a	GoodResponse	0	n/a	n/a	11	77	Fixation	AvoidedLoss	True
731.419	0.23	Lose2	0.6923	0.004	Yes	2.577	-0.004	2.0	GoodResponse	0	0.189	730.608	11	77	Target	AvoidedLoss	True
731.608	0.3	Lose2	0.6923	0.004	Yes	2.577	-0.004	2.0	GoodResponse	0	0.189	n/a	11	77	ButtonPress	AvoidedLoss	True
731.653	0.47	Lose2	0.6923	n/a	Yes	2.577	n/a	n/a	GoodResponse	0	n/a	n/a	11	77	Blank	AvoidedLoss	True
732.121	1.45	Lose2	0.6923	n/a	Yes	2.577	n/a	5.0	GoodResponse	0	0.04	731.161	11	77	Feedback	AvoidedLoss	True
733.575	2.577	Lose2	0.6923	n/a	Yes	2.577	n/a	n/a	GoodResponse	0	0.0	n/a	11	77	ISIslide	AvoidedLoss	True
