onset	duration	cue_type	current_mean_accuracy	duration_error	is_hit	isi_adjusted	onset_delay	response	response_type	reward	rt	rt_time	total_reward	trial_number	trial_phase	trial_type	one_press
11.109	0.25	Control	1.0	0.0	Yes	2.941	0.009	n/a	GoodResponse	0	n/a	n/a	0	0	Cue	Neutral	True
11.36	3.85	Control	1.0	0.0	Yes	2.941	0.001	n/a	GoodResponse	0	n/a	n/a	0	0	Fixation	Neutral	True
15.205	0.4	Control	1.0	0.004	Yes	2.941	-0.004	2.0	GoodResponse	0	0.287	14.492	0	0	Target	Neutral	True
15.492	0.3	Control	1.0	0.004	Yes	2.941	-0.004	2.0	GoodResponse	0	0.287	n/a	0	0	ButtonPress	Neutral	True
15.606	0.3	Control	1.0	n/a	Yes	2.941	n/a	n/a	GoodResponse	0	n/a	n/a	0	0	Blank	Neutral	True
15.907	1.45	Control	1.0	n/a	Yes	2.941	n/a	5.0	GoodResponse	0	0.023	14.93	0	0	Feedback	Neutral	True
17.361	2.941	Control	1.0	n/a	Yes	2.941	n/a	n/a	GoodResponse	0	0.0	n/a	0	0	ISIslide	Neutral	True
20.32	0.25	Lose2	1.0	0.0	Yes	2.78	0.02	n/a	GoodResponse	0	n/a	n/a	0	1	Cue	AvoidedLoss	True
20.571	4.0	Lose2	1.0	0.0	Yes	2.78	0.001	n/a	GoodResponse	0	n/a	n/a	0	1	Fixation	AvoidedLoss	True
24.566	0.39	Lose2	1.0	0.004	Yes	2.78	-0.004	2.0	GoodResponse	0	0.222	23.788	0	1	Target	AvoidedLoss	True
24.788	0.3	Lose2	1.0	0.004	Yes	2.78	-0.004	2.0	GoodResponse	0	0.222	n/a	0	1	ButtonPress	AvoidedLoss	True
24.967	0.31	Lose2	1.0	n/a	Yes	2.78	n/a	n/a	GoodResponse	0	n/a	n/a	0	1	Blank	AvoidedLoss	True
25.268	1.45	Lose2	1.0	n/a	Yes	2.78	n/a	5.0	GoodResponse	0	0.027	24.295	0	1	Feedback	AvoidedLoss	True
26.723	2.78	Lose2	1.0	n/a	Yes	2.78	n/a	n/a	GoodResponse	0	0.0	n/a	0	1	ISIslide	AvoidedLoss	True
29.531	0.25	Control	1.0	0.0	Yes	2.569	0.031	n/a	GoodResponse	0	n/a	n/a	0	2	Cue	Neutral	True
29.782	4.1	Control	1.0	0.0	Yes	2.569	0.001	n/a	GoodResponse	0	n/a	n/a	0	2	Fixation	Neutral	True
33.877	0.38	Control	1.0	0.004	Yes	2.569	-0.004	2.0	GoodResponse	0	0.247	33.124	0	2	Target	Neutral	True
34.124	0.3	Control	1.0	0.004	Yes	2.569	-0.004	2.0	GoodResponse	0	0.247	n/a	0	2	ButtonPress	Neutral	True
34.262	0.32	Control	1.0	n/a	Yes	2.569	n/a	n/a	GoodResponse	0	n/a	n/a	0	2	Blank	Neutral	True
34.58	1.45	Control	1.0	n/a	Yes	2.569	n/a	5.0	GoodResponse	0	0.032	33.612	0	2	Feedback	Neutral	True
36.034	2.569	Control	1.0	n/a	Yes	2.569	n/a	n/a	GoodResponse	0	0.0	n/a	0	2	ISIslide	Neutral	True
38.625	0.25	Win2	1.0	0.0	Yes	2.825	0.025	n/a	GoodResponse	1	n/a	n/a	1	3	Cue	Win	True
38.876	3.95	Win2	1.0	0.0	Yes	2.825	0.001	n/a	GoodResponse	1	n/a	n/a	1	3	Fixation	Win	True
42.821	0.37	Win2	1.0	0.004	Yes	2.825	-0.004	2.0	GoodResponse	1	0.261	42.082	1	3	Target	Win	True
43.082	0.3	Win2	1.0	0.004	Yes	2.825	-0.004	2.0	GoodResponse	1	0.261	n/a	1	3	ButtonPress	Win	True
43.205	0.33	Win2	1.0	n/a	Yes	2.825	n/a	n/a	GoodResponse	1	n/a	n/a	1	3	Blank	Win	True
43.523	1.45	Win2	1.0	n/a	Yes	2.825	n/a	5.0	GoodResponse	1	0.016	42.539	1	3	Feedback	Win	True
44.977	2.825	Win2	1.0	n/a	Yes	2.825	n/a	n/a	GoodResponse	1	0.0	n/a	1	3	ISIslide	Win	True
47.819	0.25	Win2	1.0	0.0	Yes	3.281	0.019	n/a	GoodResponse	1	n/a	n/a	2	4	Cue	Win	True
48.07	4.0	Win2	1.0	0.0	Yes	3.281	0.001	n/a	GoodResponse	1	n/a	n/a	2	4	Fixation	Win	True
52.065	0.36	Win2	1.0	0.004	Yes	3.281	-0.004	2.0	GoodResponse	1	0.248	51.313	2	4	Target	Win	True
52.313	0.3	Win2	1.0	0.004	Yes	3.281	-0.004	2.0	GoodResponse	1	0.248	n/a	2	4	ButtonPress	Win	True
52.433	0.34	Win2	1.0	n/a	Yes	3.281	n/a	n/a	GoodResponse	1	n/a	n/a	2	4	Blank	Win	True
52.767	1.45	Win2	1.0	n/a	Yes	3.281	n/a	5.0	GoodResponse	1	0.04	51.807	2	4	Feedback	Win	True
54.222	3.281	Win2	1.0	n/a	Yes	3.281	n/a	n/a	GoodResponse	1	0.0	n/a	2	4	ISIslide	Win	True
57.532	0.25	Win2	1.0	0.0	Yes	2.768	0.032	n/a	GoodResponse	1	n/a	n/a	3	5	Cue	Win	True
57.782	4.0	Win2	1.0	0.0	Yes	2.768	0.0	n/a	GoodResponse	1	n/a	n/a	3	5	Fixation	Win	True
61.778	0.35	Win2	1.0	0.004	Yes	2.768	-0.004	2.0	GoodResponse	1	0.278	61.056	3	5	Target	Win	True
62.056	0.3	Win2	1.0	0.004	Yes	2.768	-0.004	2.0	GoodResponse	1	0.278	n/a	3	5	ButtonPress	Win	True
62.129	0.35	Win2	1.0	n/a	Yes	2.768	n/a	n/a	GoodResponse	1	n/a	n/a	3	5	Blank	Win	True
62.48	1.45	Win2	1.0	n/a	Yes	2.768	n/a	5.0	GoodResponse	1	0.035	61.515	3	5	Feedback	Win	True
63.934	2.768	Win2	1.0	n/a	Yes	2.768	n/a	n/a	GoodResponse	1	0.0	n/a	3	5	ISIslide	Win	True
66.726	0.25	Lose2	1.0	0.0	Yes	2.724	0.026	n/a	GoodResponse	0	n/a	n/a	3	6	Cue	AvoidedLoss	True
66.976	3.95	Lose2	1.0	0.001	Yes	2.724	0.0	n/a	GoodResponse	0	n/a	n/a	3	6	Fixation	AvoidedLoss	True
70.922	0.34	Lose2	1.0	0.004	Yes	2.724	-0.004	2.0	GoodResponse	0	0.245	70.167	3	6	Target	AvoidedLoss	True
71.167	0.3	Lose2	1.0	0.004	Yes	2.724	-0.004	2.0	GoodResponse	0	0.245	n/a	3	6	ButtonPress	AvoidedLoss	True
71.273	0.36	Lose2	1.0	n/a	Yes	2.724	n/a	n/a	GoodResponse	0	n/a	n/a	3	6	Blank	AvoidedLoss	True
71.624	1.45	Lose2	1.0	n/a	Yes	2.724	n/a	5.0	GoodResponse	0	0.013	70.637	3	6	Feedback	AvoidedLoss	True
73.078	2.724	Lose2	1.0	n/a	Yes	2.724	n/a	n/a	GoodResponse	0	0.0	n/a	3	6	ISIslide	AvoidedLoss	True
75.82	0.25	Lose2	1.0	0.0	Yes	4.03	0.02	n/a	GoodResponse	0	n/a	n/a	3	7	Cue	AvoidedLoss	True
76.07	4.05	Lose2	1.0	0.0	Yes	4.03	0.0	n/a	GoodResponse	0	n/a	n/a	3	7	Fixation	AvoidedLoss	True
80.116	0.33	Lose2	1.0	0.004	Yes	4.03	-0.004	2.0	GoodResponse	0	0.323	79.439	3	7	Target	AvoidedLoss	True
80.439	0.3	Lose2	1.0	0.004	Yes	4.03	-0.004	2.0	GoodResponse	0	0.323	n/a	3	7	ButtonPress	AvoidedLoss	True
80.45	0.37	Lose2	1.0	n/a	Yes	4.03	n/a	n/a	GoodResponse	0	n/a	n/a	3	7	Blank	AvoidedLoss	True
80.818	1.45	Lose2	1.0	n/a	Yes	4.03	n/a	5.0	GoodResponse	0	0.038	79.856	3	7	Feedback	AvoidedLoss	True
82.272	4.03	Lose2	1.0	n/a	Yes	4.03	n/a	n/a	GoodResponse	0	0.0	n/a	3	7	ISIslide	AvoidedLoss	True
86.318	0.25	Lose2	1.0	0.0	Yes	3.032	0.018	n/a	GoodResponse	0	n/a	n/a	3	8	Cue	AvoidedLoss	True
86.568	3.95	Lose2	1.0	0.001	Yes	3.032	0.0	n/a	GoodResponse	0	n/a	n/a	3	8	Fixation	AvoidedLoss	True
90.514	0.32	Lose2	1.0	0.004	Yes	3.032	-0.004	2.0	GoodResponse	0	0.261	89.775	3	8	Target	AvoidedLoss	True
90.775	0.3	Lose2	1.0	0.004	Yes	3.032	-0.004	2.0	GoodResponse	0	0.261	n/a	3	8	ButtonPress	AvoidedLoss	True
90.848	0.38	Lose2	1.0	n/a	Yes	3.032	n/a	n/a	GoodResponse	0	n/a	n/a	3	8	Blank	AvoidedLoss	True
91.216	1.45	Lose2	1.0	n/a	Yes	3.032	n/a	5.0	GoodResponse	0	0.03	90.246	3	8	Feedback	AvoidedLoss	True
92.67	3.032	Lose2	1.0	n/a	Yes	3.032	n/a	n/a	GoodResponse	0	0.0	n/a	3	8	ISIslide	AvoidedLoss	True
95.729	0.25	Lose2	1.0	0.0	Yes	3.121	0.029	n/a	GoodResponse	0	n/a	n/a	3	9	Cue	AvoidedLoss	True
95.98	3.95	Lose2	1.0	0.0	Yes	3.121	0.001	n/a	GoodResponse	0	n/a	n/a	3	9	Fixation	AvoidedLoss	True
99.925	0.31	Lose2	1.0	0.004	Yes	3.121	-0.004	2.0	GoodResponse	0	0.271	99.196	3	9	Target	AvoidedLoss	True
100.196	0.3	Lose2	1.0	0.004	Yes	3.121	-0.004	2.0	GoodResponse	0	0.271	n/a	3	9	ButtonPress	AvoidedLoss	True
100.243	0.39	Lose2	1.0	n/a	Yes	3.121	n/a	n/a	GoodResponse	0	n/a	n/a	3	9	Blank	AvoidedLoss	True
100.627	1.45	Lose2	1.0	n/a	Yes	3.121	n/a	5.0	GoodResponse	0	0.034	99.661	3	9	Feedback	AvoidedLoss	True
102.082	3.121	Lose2	1.0	n/a	Yes	3.121	n/a	n/a	GoodResponse	0	0.0	n/a	3	9	ISIslide	AvoidedLoss	True
105.224	0.25	Control	1.0	0.0	Yes	3.276	0.024	n/a	GoodResponse	0	n/a	n/a	3	10	Cue	Neutral	True
105.475	4.0	Control	1.0	0.0	Yes	3.276	0.001	n/a	GoodResponse	0	n/a	n/a	3	10	Fixation	Neutral	True
109.47	0.3	Control	1.0	0.004	Yes	3.276	-0.004	2.0	GoodResponse	0	0.249	108.719	3	10	Target	Neutral	True
109.719	0.3	Control	1.0	0.004	Yes	3.276	-0.004	2.0	GoodResponse	0	0.249	n/a	3	10	ButtonPress	Neutral	True
109.771	0.4	Control	1.0	n/a	Yes	3.276	n/a	n/a	GoodResponse	0	n/a	n/a	3	10	Blank	Neutral	True
110.172	1.45	Control	1.0	n/a	Yes	3.276	n/a	5.0	GoodResponse	0	0.001	109.173	3	10	Feedback	Neutral	True
111.627	3.276	Control	1.0	n/a	Yes	3.276	n/a	n/a	GoodResponse	0	0.0	n/a	3	10	ISIslide	Neutral	True
114.92	0.25	Lose2	0.9167000000000001	0.0	No	2.73	0.02	n/a	NoResponse	-1	n/a	n/a	2	11	Cue	Loss	False
115.171	4.05	Lose2	0.9167000000000001	0.0	No	2.73	0.001	2.0	NoResponse	-1	0.216	114.387	2	11	Fixation	Loss	False
115.387	0.3	Lose2	0.9167000000000001	0.0	No	2.73	0.001	2.0	NoResponse	-1	0.216	n/a	2	11	ButtonPress	Loss	False
119.216	0.29	Lose2	0.9167000000000001	0.004	No	2.73	-0.004	2.0	NoResponse	-1	0.309	118.525	2	11	Target	Loss	False
119.517	0.41	Lose2	0.9167000000000001	n/a	No	2.73	n/a	n/a	NoResponse	-1	n/a	n/a	2	11	Blank	Loss	False
119.525	0.3	Lose2	0.9167000000000001	0.004	No	2.73	-0.004	2.0	NoResponse	-1	0.309	n/a	2	11	ButtonPress	Loss	False
119.918	1.45	Lose2	0.9167000000000001	n/a	No	2.73	n/a	5.0	NoResponse	-1	0.011	118.929	2	11	Feedback	Loss	False
121.373	2.73	Lose2	0.9167000000000001	n/a	No	2.73	n/a	n/a	NoResponse	-1	0.0	n/a	2	11	ISIslide	Loss	False
124.131	0.25	Control	0.8462000000000001	0.0	No	2.969	0.031	n/a	LatePress	0	n/a	n/a	2	12	Cue	Neutral	True
124.382	3.9	Control	0.8462000000000001	0.0	No	2.969	0.001	n/a	LatePress	0	n/a	n/a	2	12	Fixation	Neutral	True
128.277	0.28	Control	0.8462000000000001	0.004	No	2.969	-0.004	2.0	LatePress	0	0.281	127.558	2	12	Target	Neutral	True
128.558	0.3	Control	0.8462000000000001	0.004	No	2.969	-0.004	2.0	LatePress	0	0.281	n/a	2	12	ButtonPress	Neutral	True
128.561	0.42	Control	0.8462000000000001	n/a	No	2.969	n/a	n/a	LatePress	0	n/a	n/a	2	12	Blank	Neutral	True
128.979	1.45	Control	0.8462000000000001	n/a	No	2.969	n/a	5.0	LatePress	0	0.023	128.002	2	12	Feedback	Neutral	True
130.433	2.969	Control	0.8462000000000001	n/a	No	2.969	n/a	n/a	LatePress	0	0.0	n/a	2	12	ISIslide	Neutral	True
133.425	0.25	Control	0.7857	0.0	No	2.775	0.025	n/a	NoResponse	0	n/a	n/a	2	13	Cue	Neutral	True
133.676	4.0	Control	0.7857	0.0	No	2.775	0.001	n/a	NoResponse	0	n/a	n/a	2	13	Fixation	Neutral	True
137.671	0.27	Control	0.7857	0.004	No	2.775	-0.004	2.0	NoResponse	0	0.334	137.005	2	13	Target	Neutral	True
137.956	0.43	Control	0.7857	n/a	No	2.775	n/a	n/a	NoResponse	0	n/a	n/a	2	13	Blank	Neutral	True
138.005	0.3	Control	0.7857	0.004	No	2.775	-0.004	2.0	NoResponse	0	0.334	n/a	2	13	ButtonPress	Neutral	True
138.374	1.45	Control	0.7857	n/a	No	2.775	n/a	5.0	NoResponse	0	0.042	137.416	2	13	Feedback	Neutral	True
139.828	2.775	Control	0.7857	n/a	No	2.775	n/a	n/a	NoResponse	0	0.0	n/a	2	13	ISIslide	Neutral	True
142.62	0.25	Win2	0.8	0.0	Yes	2.68	0.02	n/a	GoodResponse	1	n/a	n/a	3	14	Cue	Win	True
142.87	4.1	Win2	0.8	0.0	Yes	2.68	0.0	n/a	GoodResponse	1	n/a	n/a	3	14	Fixation	Win	True
146.966	0.26	Win2	0.8	0.004	Yes	2.68	-0.004	2.0	GoodResponse	1	0.224	146.19	3	14	Target	Win	True
147.19	0.3	Win2	0.8	0.004	Yes	2.68	-0.004	2.0	GoodResponse	1	0.224	n/a	3	14	ButtonPress	Win	True
147.233	0.44	Win2	0.8	n/a	Yes	2.68	n/a	n/a	GoodResponse	1	n/a	n/a	3	14	Blank	Win	True
147.668	1.45	Win2	0.8	n/a	Yes	2.68	n/a	5.0	GoodResponse	1	0.017	146.685	3	14	Feedback	Win	True
149.122	2.68	Win2	0.8	n/a	Yes	2.68	n/a	n/a	GoodResponse	1	0.0	n/a	3	14	ISIslide	Win	True
151.83	0.25	Control	0.75	0.001	No	2.97	0.03	n/a	NoResponse	0	n/a	n/a	3	15	Cue	Neutral	True
152.081	4.0	Control	0.75	0.0	No	2.97	0.001	n/a	NoResponse	0	n/a	n/a	3	15	Fixation	Neutral	True
156.077	0.25	Control	0.75	0.003	No	2.97	-0.003	2.0	NoResponse	0	0.262	155.339	3	15	Target	Neutral	True
156.327	0.45	Control	0.75	n/a	No	2.97	n/a	n/a	NoResponse	0	n/a	n/a	3	15	Blank	Neutral	True
156.339	0.3	Control	0.75	0.003	No	2.97	-0.003	2.0	NoResponse	0	0.262	n/a	3	15	ButtonPress	Neutral	True
156.779	1.45	Control	0.75	n/a	No	2.97	n/a	5.0	NoResponse	0	0.028	155.807	3	15	Feedback	Neutral	True
158.233	2.97	Control	0.75	n/a	No	2.97	n/a	n/a	NoResponse	0	0.0	n/a	3	15	ISIslide	Neutral	True
161.225	0.25	Win2	0.7646999999999999	0.0	Yes	2.875	0.025	n/a	GoodResponse	1	n/a	n/a	4	16	Cue	Win	True
161.476	4.0	Win2	0.7646999999999999	0.0	Yes	2.875	0.001	n/a	GoodResponse	1	n/a	n/a	4	16	Fixation	Win	True
165.471	0.24	Win2	0.7646999999999999	0.004	Yes	2.875	-0.004	2.0	GoodResponse	1	0.208	164.679	4	16	Target	Win	True
165.679	0.3	Win2	0.7646999999999999	0.004	Yes	2.875	-0.004	2.0	GoodResponse	1	0.208	n/a	4	16	ButtonPress	Win	True
165.722	0.46	Win2	0.7646999999999999	n/a	Yes	2.875	n/a	n/a	GoodResponse	1	n/a	n/a	4	16	Blank	Win	True
166.173	1.45	Win2	0.7646999999999999	n/a	Yes	2.875	n/a	5.0	GoodResponse	1	0.049	165.222	4	16	Feedback	Win	True
167.628	2.875	Win2	0.7646999999999999	n/a	Yes	2.875	n/a	n/a	GoodResponse	1	0.0	n/a	4	16	ISIslide	Win	True
170.52	0.25	Lose2	0.7222	0.0	No	2.73	0.02	n/a	NoResponse	-1	n/a	n/a	3	17	Cue	Loss	True
170.771	3.95	Lose2	0.7222	0.0	No	2.73	0.001	n/a	NoResponse	-1	n/a	n/a	3	17	Fixation	Loss	True
174.716	0.23	Lose2	0.7222	0.004	No	2.73	-0.004	2.0	NoResponse	-1	0.241	173.957	3	17	Target	Loss	True
174.95	0.47	Lose2	0.7222	n/a	No	2.73	n/a	n/a	NoResponse	-1	n/a	n/a	3	17	Blank	Loss	True
174.957	0.3	Lose2	0.7222	0.004	No	2.73	-0.004	2.0	NoResponse	-1	0.241	n/a	3	17	ButtonPress	Loss	True
175.418	1.45	Lose2	0.7222	n/a	No	2.73	n/a	5.0	NoResponse	-1	0.022	174.44	3	17	Feedback	Loss	True
176.872	2.73	Lose2	0.7222	n/a	No	2.73	n/a	n/a	NoResponse	-1	0.0	n/a	3	17	ISIslide	Loss	True
179.63	0.25	Lose2	0.6842	0.0	No	2.72	0.03	n/a	NoResponse	-1	n/a	n/a	2	18	Cue	Loss	True
179.881	4.05	Lose2	0.6842	0.0	No	2.72	0.001	n/a	NoResponse	-1	n/a	n/a	2	18	Fixation	Loss	True
183.927	0.22	Lose2	0.6842	0.003	No	2.72	-0.003	2.0	NoResponse	-1	0.249	183.176	2	18	Target	Loss	True
184.161	0.48	Lose2	0.6842	n/a	No	2.72	n/a	n/a	NoResponse	-1	n/a	n/a	2	18	Blank	Loss	True
184.176	0.3	Lose2	0.6842	0.003	No	2.72	-0.003	2.0	NoResponse	-1	0.249	n/a	2	18	ButtonPress	Loss	True
184.629	1.45	Lose2	0.6842	n/a	No	2.72	n/a	5.0	NoResponse	-1	0.031	183.66	2	18	Feedback	Loss	True
186.083	2.72	Lose2	0.6842	n/a	No	2.72	n/a	n/a	NoResponse	-1	0.0	n/a	2	18	ISIslide	Loss	True
188.825	0.25	Control	0.65	0.0	No	2.925	0.025	n/a	NoResponse	0	n/a	n/a	2	19	Cue	Neutral	True
189.075	3.95	Control	0.65	0.0	No	2.925	0.0	n/a	NoResponse	0	n/a	n/a	2	19	Fixation	Neutral	True
193.037	0.21	Control	0.65	0.0	No	2.925	0.012	2.0	NoResponse	0	0.247	192.284	2	19	Target	Neutral	True
193.238	0.49	Control	0.65	n/a	No	2.925	n/a	n/a	NoResponse	0	n/a	n/a	2	19	Blank	Neutral	True
193.284	0.3	Control	0.65	0.0	No	2.925	0.012	2.0	NoResponse	0	0.247	n/a	2	19	ButtonPress	Neutral	True
193.723	1.45	Control	0.65	n/a	No	2.925	n/a	5.0	NoResponse	0	0.01	192.733	2	19	Feedback	Neutral	True
195.177	2.925	Control	0.65	n/a	No	2.925	n/a	n/a	NoResponse	0	0.0	n/a	2	19	ISIslide	Neutral	True
198.119	0.25	Control	0.6667000000000001	0.0	Yes	2.631	0.019	n/a	GoodResponse	0	n/a	n/a	2	20	Cue	Neutral	True
198.37	4.05	Control	0.6667000000000001	0.0	Yes	2.631	0.001	n/a	GoodResponse	0	n/a	n/a	2	20	Fixation	Neutral	True
202.415	0.22	Control	0.6667000000000001	0.004	Yes	2.631	-0.004	2.0	GoodResponse	0	0.201	201.616	2	20	Target	Neutral	True
202.616	0.3	Control	0.6667000000000001	0.004	Yes	2.631	-0.004	2.0	GoodResponse	0	0.201	n/a	2	20	ButtonPress	Neutral	True
202.649	0.48	Control	0.6667000000000001	n/a	Yes	2.631	n/a	n/a	GoodResponse	0	n/a	n/a	2	20	Blank	Neutral	True
203.117	1.45	Control	0.6667000000000001	n/a	Yes	2.631	n/a	5.0	GoodResponse	0	0.031	202.148	2	20	Feedback	Neutral	True
204.572	2.631	Control	0.6667000000000001	n/a	Yes	2.631	n/a	n/a	GoodResponse	0	0.0	n/a	2	20	ISIslide	Neutral	True
207.23	0.25	Control	0.6364	0.0	No	2.77	0.03	n/a	NoResponse	0	n/a	n/a	2	21	Cue	Neutral	True
207.48	4.1	Control	0.6364	0.0	No	2.77	0.0	n/a	NoResponse	0	n/a	n/a	2	21	Fixation	Neutral	True
211.576	0.21	Control	0.6364	0.004	No	2.77	-0.004	2.0	NoResponse	0	0.23	210.806	2	21	Target	Neutral	True
211.793	0.49	Control	0.6364	n/a	No	2.77	n/a	n/a	NoResponse	0	n/a	n/a	2	21	Blank	Neutral	True
211.806	0.3	Control	0.6364	0.004	No	2.77	-0.004	2.0	NoResponse	0	0.23	n/a	2	21	ButtonPress	Neutral	True
212.278	1.45	Control	0.6364	n/a	No	2.77	n/a	5.0	NoResponse	0	0.041	211.319	2	21	Feedback	Neutral	True
213.732	2.77	Control	0.6364	n/a	No	2.77	n/a	n/a	NoResponse	0	0.0	n/a	2	21	ISIslide	Neutral	True
216.524	0.25	Control	0.6087	0.0	No	2.776	0.024	n/a	NoResponse	0	n/a	n/a	2	22	Cue	Neutral	True
216.775	4.0	Control	0.6087	0.0	No	2.776	0.001	n/a	NoResponse	0	n/a	n/a	2	22	Fixation	Neutral	True
220.77	0.22	Control	0.6087	0.004	No	2.776	-0.004	2.0	NoResponse	0	0.294	220.064	2	22	Target	Neutral	True
221.004	0.48	Control	0.6087	n/a	No	2.776	n/a	n/a	NoResponse	0	n/a	n/a	2	22	Blank	Neutral	True
221.064	0.3	Control	0.6087	0.004	No	2.776	-0.004	2.0	NoResponse	0	0.294	n/a	2	22	ButtonPress	Neutral	True
221.472	1.45	Control	0.6087	n/a	No	2.776	n/a	5.0	NoResponse	0	0.018	220.49	2	22	Feedback	Neutral	True
222.927	2.776	Control	0.6087	n/a	No	2.776	n/a	n/a	NoResponse	0	0.0	n/a	2	22	ISIslide	Neutral	True
225.718	0.25	Control	0.5832999999999999	0.0	No	2.782	0.018	n/a	NoResponse	0	n/a	n/a	2	23	Cue	Neutral	True
225.969	3.9	Control	0.5832999999999999	0.0	No	2.782	0.001	n/a	NoResponse	0	n/a	n/a	2	23	Fixation	Neutral	True
229.864	0.23	Control	0.5832999999999999	0.004	No	2.782	-0.004	2.0	NoResponse	0	0.268	229.132	2	23	Target	Neutral	True
230.098	0.47	Control	0.5832999999999999	n/a	No	2.782	n/a	n/a	NoResponse	0	n/a	n/a	2	23	Blank	Neutral	True
230.132	0.3	Control	0.5832999999999999	0.004	No	2.782	-0.004	2.0	NoResponse	0	0.268	n/a	2	23	ButtonPress	Neutral	True
230.566	1.45	Control	0.5832999999999999	n/a	No	2.782	n/a	5.0	NoResponse	0	0.045	229.611	2	23	Feedback	Neutral	True
232.021	2.782	Control	0.5832999999999999	n/a	No	2.782	n/a	n/a	NoResponse	0	0.0	n/a	2	23	ISIslide	Neutral	True
234.829	0.25	Win2	0.56	0.0	No	3.121	0.029	n/a	NoResponse	0	n/a	n/a	2	24	Cue	MissedWin	False
235.08	3.95	Win2	0.56	0.0	No	3.121	0.001	2.0	NoResponse	0	0.356	234.436	2	24	Fixation	MissedWin	False
235.436	0.3	Win2	0.56	0.0	No	3.121	0.001	2.0	NoResponse	0	0.356	n/a	2	24	ButtonPress	MissedWin	False
239.025	0.24	Win2	0.56	0.004	No	3.121	-0.004	2.0	NoResponse	0	0.286	238.311	2	24	Target	MissedWin	False
239.276	0.46	Win2	0.56	n/a	No	3.121	n/a	n/a	NoResponse	0	n/a	n/a	2	24	Blank	MissedWin	False
239.311	0.3	Win2	0.56	0.004	No	3.121	-0.004	2.0	NoResponse	0	0.286	n/a	2	24	ButtonPress	MissedWin	False
239.727	1.45	Win2	0.56	n/a	No	3.121	n/a	5.0	NoResponse	0	0.007	238.734	2	24	Feedback	MissedWin	False
241.181	3.121	Win2	0.56	n/a	No	3.121	n/a	n/a	NoResponse	0	0.0	n/a	2	24	ISIslide	MissedWin	False
244.324	0.25	Win2	0.5769	0.0	Yes	3.076	0.024	n/a	GoodResponse	1	n/a	n/a	3	25	Cue	Win	True
244.575	4.0	Win2	0.5769	0.0	Yes	3.076	0.001	n/a	GoodResponse	1	n/a	n/a	3	25	Fixation	Win	True
248.57	0.25	Win2	0.5769	0.004	Yes	3.076	-0.004	2.0	GoodResponse	1	0.247	247.817	3	25	Target	Win	True
248.817	0.3	Win2	0.5769	0.004	Yes	3.076	-0.004	2.0	GoodResponse	1	0.247	n/a	3	25	ButtonPress	Win	True
248.821	0.45	Win2	0.5769	n/a	Yes	3.076	n/a	n/a	GoodResponse	1	n/a	n/a	3	25	Blank	Win	True
249.272	1.45	Win2	0.5769	n/a	Yes	3.076	n/a	5.0	GoodResponse	1	0.022	248.294	3	25	Feedback	Win	True
250.727	3.076	Win2	0.5769	n/a	Yes	3.076	n/a	n/a	GoodResponse	1	0.0	n/a	3	25	ISIslide	Win	True
253.819	0.25	Win2	0.5556	0.0	No	2.931	0.019	n/a	NoResponse	0	n/a	n/a	3	26	Cue	MissedWin	True
254.07	3.95	Win2	0.5556	0.0	No	2.931	0.001	n/a	NoResponse	0	n/a	n/a	3	26	Fixation	MissedWin	True
258.015	0.26	Win2	0.5556	0.004	No	2.931	-0.004	2.0	NoResponse	0	0.299	257.314	3	26	Target	MissedWin	True
258.282	0.44	Win2	0.5556	n/a	No	2.931	n/a	n/a	NoResponse	0	n/a	n/a	3	26	Blank	MissedWin	True
258.314	0.3	Win2	0.5556	0.004	No	2.931	-0.004	2.0	NoResponse	0	0.299	n/a	3	26	ButtonPress	MissedWin	True
258.717	1.45	Win2	0.5556	n/a	No	2.931	n/a	5.0	NoResponse	0	0.04	257.757	3	26	Feedback	MissedWin	True
260.171	2.931	Win2	0.5556	n/a	No	2.931	n/a	n/a	NoResponse	0	0.0	n/a	3	26	ISIslide	MissedWin	True
263.13	0.25	Lose2	0.5714	0.0	Yes	2.82	0.03	n/a	GoodResponse	0	n/a	n/a	3	27	Cue	AvoidedLoss	True
263.381	4.05	Lose2	0.5714	0.0	Yes	2.82	0.001	n/a	GoodResponse	0	n/a	n/a	3	27	Fixation	AvoidedLoss	True
267.427	0.27	Lose2	0.5714	0.003	Yes	2.82	-0.003	2.0	GoodResponse	0	0.211	266.638	3	27	Target	AvoidedLoss	True
267.638	0.3	Lose2	0.5714	0.003	Yes	2.82	-0.003	2.0	GoodResponse	0	0.211	n/a	3	27	ButtonPress	AvoidedLoss	True
267.711	0.43	Lose2	0.5714	n/a	Yes	2.82	n/a	n/a	GoodResponse	0	n/a	n/a	3	27	Blank	AvoidedLoss	True
268.129	1.45	Lose2	0.5714	n/a	Yes	2.82	n/a	5.0	GoodResponse	0	0.043	267.172	3	27	Feedback	AvoidedLoss	True
269.583	2.82	Lose2	0.5714	n/a	Yes	2.82	n/a	n/a	GoodResponse	0	0.0	n/a	3	27	ISIslide	AvoidedLoss	True
272.425	0.25	Control	0.5861999999999999	0.0	Yes	2.825	0.025	n/a	GoodResponse	0	n/a	n/a	3	28	Cue	Neutral	True
272.676	4.05	Control	0.5861999999999999	0.0	Yes	2.825	0.001	n/a	GoodResponse	0	n/a	n/a	3	28	Fixation	Neutral	True
276.721	0.28	Control	0.5861999999999999	0.004	Yes	2.825	-0.004	2.0	GoodResponse	0	0.258	275.979	3	28	Target	Neutral	True
276.979	0.3	Control	0.5861999999999999	0.004	Yes	2.825	-0.004	2.0	GoodResponse	0	0.258	n/a	3	28	ButtonPress	Neutral	True
277.005	0.42	Control	0.5861999999999999	n/a	Yes	2.825	n/a	n/a	GoodResponse	0	n/a	n/a	3	28	Blank	Neutral	True
277.423	1.45	Control	0.5861999999999999	n/a	Yes	2.825	n/a	5.0	GoodResponse	0	0.016	276.439	3	28	Feedback	Neutral	True
278.877	2.825	Control	0.5861999999999999	n/a	Yes	2.825	n/a	n/a	GoodResponse	0	0.0	n/a	3	28	ISIslide	Neutral	True
281.719	0.25	Lose2	0.6	0.0	Yes	2.831	0.019	n/a	GoodResponse	0	n/a	n/a	3	29	Cue	AvoidedLoss	True
281.97	3.95	Lose2	0.6	0.0	Yes	2.831	0.001	n/a	GoodResponse	0	n/a	n/a	3	29	Fixation	AvoidedLoss	True
285.915	0.29	Lose2	0.6	0.004	Yes	2.831	-0.004	2.0	GoodResponse	0	0.21	285.125	3	29	Target	AvoidedLoss	True
286.125	0.3	Lose2	0.6	0.004	Yes	2.831	-0.004	2.0	GoodResponse	0	0.21	n/a	3	29	ButtonPress	AvoidedLoss	True
286.216	0.41	Lose2	0.6	n/a	Yes	2.831	n/a	n/a	GoodResponse	0	n/a	n/a	3	29	Blank	AvoidedLoss	True
286.617	1.45	Lose2	0.6	n/a	Yes	2.831	n/a	5.0	GoodResponse	0	0.042	285.659	3	29	Feedback	AvoidedLoss	True
288.072	2.831	Lose2	0.6	n/a	Yes	2.831	n/a	n/a	GoodResponse	0	0.0	n/a	3	29	ISIslide	AvoidedLoss	True
290.93	0.25	Win2	0.6129	0.0	Yes	2.77	0.03	n/a	GoodResponse	1	n/a	n/a	4	30	Cue	Win	True
291.181	3.9	Win2	0.6129	0.0	Yes	2.77	0.001	n/a	GoodResponse	1	n/a	n/a	4	30	Fixation	Win	True
295.076	0.3	Win2	0.6129	0.004	Yes	2.77	-0.004	2.0	GoodResponse	1	0.226	294.302	4	30	Target	Win	True
295.302	0.3	Win2	0.6129	0.004	Yes	2.77	-0.004	2.0	GoodResponse	1	0.226	n/a	4	30	ButtonPress	Win	True
295.377	0.4	Win2	0.6129	n/a	Yes	2.77	n/a	n/a	GoodResponse	1	n/a	n/a	4	30	Blank	Win	True
295.778	1.45	Win2	0.6129	n/a	Yes	2.77	n/a	5.0	GoodResponse	1	0.007	294.785	4	30	Feedback	Win	True
297.232	2.77	Win2	0.6129	n/a	Yes	2.77	n/a	n/a	GoodResponse	1	0.0	n/a	4	30	ISIslide	Win	True
300.024	0.25	Lose2	0.625	0.0	Yes	2.826	0.024	n/a	GoodResponse	0	n/a	n/a	4	31	Cue	AvoidedLoss	True
300.275	4.05	Lose2	0.625	0.0	Yes	2.826	0.001	n/a	GoodResponse	0	n/a	n/a	4	31	Fixation	AvoidedLoss	True
304.32	0.31	Lose2	0.625	0.004	Yes	2.826	-0.004	2.0	GoodResponse	0	0.214	303.534	4	31	Target	AvoidedLoss	True
304.534	0.3	Lose2	0.625	0.004	Yes	2.826	-0.004	2.0	GoodResponse	0	0.214	n/a	4	31	ButtonPress	AvoidedLoss	True
304.638	0.39	Lose2	0.625	n/a	Yes	2.826	n/a	n/a	GoodResponse	0	n/a	n/a	4	31	Blank	AvoidedLoss	True
305.022	1.45	Lose2	0.625	n/a	Yes	2.826	n/a	5.0	GoodResponse	0	0.028	304.05	4	31	Feedback	AvoidedLoss	True
306.477	2.826	Lose2	0.625	n/a	Yes	2.826	n/a	n/a	GoodResponse	0	0.0	n/a	4	31	ISIslide	AvoidedLoss	True
309.319	0.25	Lose2	0.6364	0.0	Yes	2.631	0.019	n/a	GoodResponse	0	n/a	n/a	4	32	Cue	AvoidedLoss	True
309.569	4.15	Lose2	0.6364	0.0	Yes	2.631	0.0	n/a	GoodResponse	0	n/a	n/a	4	32	Fixation	AvoidedLoss	True
313.715	0.32	Lose2	0.6364	0.004	Yes	2.631	-0.004	2.0	GoodResponse	0	0.232	312.947	4	32	Target	AvoidedLoss	True
313.947	0.3	Lose2	0.6364	0.004	Yes	2.631	-0.004	2.0	GoodResponse	0	0.232	n/a	4	32	ButtonPress	AvoidedLoss	True
314.049	0.38	Lose2	0.6364	n/a	Yes	2.631	n/a	n/a	GoodResponse	0	n/a	n/a	4	32	Blank	AvoidedLoss	True
314.417	1.45	Lose2	0.6364	n/a	Yes	2.631	n/a	5.0	GoodResponse	0	0.047	313.464	4	32	Feedback	AvoidedLoss	True
315.872	2.631	Lose2	0.6364	n/a	Yes	2.631	n/a	n/a	GoodResponse	0	0.0	n/a	4	32	ISIslide	AvoidedLoss	True
318.529	0.25	Win2	0.6470999999999999	0.001	Yes	2.671	0.029	n/a	GoodResponse	1	n/a	n/a	5	33	Cue	Win	True
318.78	4.0	Win2	0.6470999999999999	0.0	Yes	2.671	0.001	n/a	GoodResponse	1	n/a	n/a	5	33	Fixation	Win	True
322.776	0.33	Win2	0.6470999999999999	0.003	Yes	2.671	-0.003	2.0	GoodResponse	1	0.217	321.993	5	33	Target	Win	True
322.993	0.3	Win2	0.6470999999999999	0.003	Yes	2.671	-0.003	2.0	GoodResponse	1	0.217	n/a	5	33	ButtonPress	Win	True
323.11	0.37	Win2	0.6470999999999999	n/a	Yes	2.671	n/a	n/a	GoodResponse	1	n/a	n/a	5	33	Blank	Win	True
323.478	1.45	Win2	0.6470999999999999	n/a	Yes	2.671	n/a	5.0	GoodResponse	1	0.011	322.489	5	33	Feedback	Win	True
324.932	2.671	Win2	0.6470999999999999	n/a	Yes	2.671	n/a	n/a	GoodResponse	1	0.0	n/a	5	33	ISIslide	Win	True
327.623	0.25	Lose2	0.6570999999999999	0.0	Yes	2.627	0.023	n/a	GoodResponse	0	n/a	n/a	5	34	Cue	AvoidedLoss	True
327.874	4.05	Lose2	0.6570999999999999	0.0	Yes	2.627	0.001	n/a	GoodResponse	0	n/a	n/a	5	34	Fixation	AvoidedLoss	True
331.92	0.34	Lose2	0.6570999999999999	0.003	Yes	2.627	-0.003	2.0	GoodResponse	0	0.243	331.163	5	34	Target	AvoidedLoss	True
332.163	0.3	Lose2	0.6570999999999999	0.003	Yes	2.627	-0.003	2.0	GoodResponse	0	0.243	n/a	5	34	ButtonPress	AvoidedLoss	True
332.271	0.36	Lose2	0.6570999999999999	n/a	Yes	2.627	n/a	n/a	GoodResponse	0	n/a	n/a	5	34	Blank	AvoidedLoss	True
332.622	1.45	Lose2	0.6570999999999999	n/a	Yes	2.627	n/a	5.0	GoodResponse	0	0.037	331.659	5	34	Feedback	AvoidedLoss	True
334.076	2.627	Lose2	0.6570999999999999	n/a	Yes	2.627	n/a	n/a	GoodResponse	0	0.0	n/a	5	34	ISIslide	AvoidedLoss	True
336.717	0.25	Lose2	0.6667000000000001	0.0	Yes	2.683	0.017	n/a	GoodResponse	0	n/a	n/a	5	35	Cue	AvoidedLoss	True
336.968	4.0	Lose2	0.6667000000000001	0.0	Yes	2.683	0.001	n/a	GoodResponse	0	n/a	n/a	5	35	Fixation	AvoidedLoss	True
340.963	0.34	Lose2	0.6667000000000001	0.004	Yes	2.683	-0.004	2.0	GoodResponse	0	0.237	340.2	5	35	Target	AvoidedLoss	True
341.2	0.3	Lose2	0.6667000000000001	0.004	Yes	2.683	-0.004	2.0	GoodResponse	0	0.237	n/a	5	35	ButtonPress	AvoidedLoss	True
341.314	0.36	Lose2	0.6667000000000001	n/a	Yes	2.683	n/a	n/a	GoodResponse	0	n/a	n/a	5	35	Blank	AvoidedLoss	True
341.665	1.45	Lose2	0.6667000000000001	n/a	Yes	2.683	n/a	5.0	GoodResponse	0	0.018	340.683	5	35	Feedback	AvoidedLoss	True
343.12	2.683	Lose2	0.6667000000000001	n/a	Yes	2.683	n/a	n/a	GoodResponse	0	0.0	n/a	5	35	ISIslide	AvoidedLoss	True
345.828	0.25	Control	0.6757	0.0	Yes	2.672	0.028	n/a	GoodResponse	0	n/a	n/a	5	36	Cue	Neutral	True
346.079	4.0	Control	0.6757	0.0	Yes	2.672	0.001	n/a	GoodResponse	0	n/a	n/a	5	36	Fixation	Neutral	True
350.074	0.33	Control	0.6757	0.004	Yes	2.672	-0.004	2.0	GoodResponse	0	0.244	349.318	5	36	Target	Neutral	True
350.318	0.3	Control	0.6757	0.004	Yes	2.672	-0.004	2.0	GoodResponse	0	0.244	n/a	5	36	ButtonPress	Neutral	True
350.408	0.37	Control	0.6757	n/a	Yes	2.672	n/a	n/a	GoodResponse	0	n/a	n/a	5	36	Blank	Neutral	True
350.776	1.45	Control	0.6757	n/a	Yes	2.672	n/a	5.0	GoodResponse	0	0.029	349.805	5	36	Feedback	Neutral	True
352.23	2.672	Control	0.6757	n/a	Yes	2.672	n/a	n/a	GoodResponse	0	0.0	n/a	5	36	ISIslide	Neutral	True
354.922	0.25	Win2	0.6842	0.0	Yes	2.878	0.022	n/a	GoodResponse	1	n/a	n/a	6	37	Cue	Win	True
355.172	4.0	Win2	0.6842	0.001	Yes	2.878	0.0	n/a	GoodResponse	1	n/a	n/a	6	37	Fixation	Win	True
359.168	0.32	Win2	0.6842	0.004	Yes	2.878	-0.004	2.0	GoodResponse	1	0.284	358.452	6	37	Target	Win	True
359.452	0.3	Win2	0.6842	0.004	Yes	2.878	-0.004	2.0	GoodResponse	1	0.284	n/a	6	37	ButtonPress	Win	True
359.502	0.38	Win2	0.6842	n/a	Yes	2.878	n/a	n/a	GoodResponse	1	n/a	n/a	6	37	Blank	Win	True
359.87	1.45	Win2	0.6842	n/a	Yes	2.878	n/a	5.0	GoodResponse	1	0.009	358.879	6	37	Feedback	Win	True
361.324	2.878	Win2	0.6842	n/a	Yes	2.878	n/a	n/a	GoodResponse	1	0.0	n/a	6	37	ISIslide	Win	True
364.216	0.25	Lose2	0.6667000000000001	0.0	No	2.834	0.016	n/a	NoResponse	-1	n/a	n/a	5	38	Cue	Loss	True
364.467	3.95	Lose2	0.6667000000000001	0.0	No	2.834	0.001	n/a	NoResponse	-1	n/a	n/a	5	38	Fixation	Loss	True
368.412	0.31	Lose2	0.6667000000000001	0.004	No	2.834	-0.004	2.0	NoResponse	-1	0.325	367.737	5	38	Target	Loss	True
368.73	0.39	Lose2	0.6667000000000001	n/a	No	2.834	n/a	n/a	NoResponse	-1	n/a	n/a	5	38	Blank	Loss	True
368.737	0.3	Lose2	0.6667000000000001	0.004	No	2.834	-0.004	2.0	NoResponse	-1	0.325	n/a	5	38	ButtonPress	Loss	True
369.114	1.45	Lose2	0.6667000000000001	n/a	No	2.834	n/a	5.0	NoResponse	-1	0.033	368.147	5	38	Feedback	Loss	True
370.569	2.834	Lose2	0.6667000000000001	n/a	No	2.834	n/a	n/a	NoResponse	-1	0.0	n/a	5	38	ISIslide	Loss	True
373.427	0.25	Win2	0.675	0.0	Yes	2.973	0.027	n/a	GoodResponse	1	n/a	n/a	6	39	Cue	Win	True
373.678	4.1	Win2	0.675	0.0	Yes	2.973	0.001	n/a	GoodResponse	1	n/a	n/a	6	39	Fixation	Win	True
377.773	0.3	Win2	0.675	0.004	Yes	2.973	-0.004	2.0	GoodResponse	1	0.256	377.029	6	39	Target	Win	True
378.029	0.3	Win2	0.675	0.004	Yes	2.973	-0.004	2.0	GoodResponse	1	0.256	n/a	6	39	ButtonPress	Win	True
378.074	0.4	Win2	0.675	n/a	Yes	2.973	n/a	n/a	GoodResponse	1	n/a	n/a	6	39	Blank	Win	True
378.476	1.45	Win2	0.675	n/a	Yes	2.973	n/a	5.0	GoodResponse	1	0.036	377.512	6	39	Feedback	Win	True
379.93	2.973	Win2	0.675	n/a	Yes	2.973	n/a	n/a	GoodResponse	1	0.0	n/a	6	39	ISIslide	Win	True
382.922	0.25	Win2	0.6829000000000001	0.0	Yes	2.728	0.022	n/a	GoodResponse	1	n/a	n/a	7	40	Cue	Win	True
383.173	3.95	Win2	0.6829000000000001	0.0	Yes	2.728	0.001	n/a	GoodResponse	1	n/a	n/a	7	40	Fixation	Win	True
387.118	0.29	Win2	0.6829000000000001	0.004	Yes	2.728	-0.004	2.0	GoodResponse	1	0.221	386.339	7	40	Target	Win	True
387.339	0.3	Win2	0.6829000000000001	0.004	Yes	2.728	-0.004	2.0	GoodResponse	1	0.221	n/a	7	40	ButtonPress	Win	True
387.419	0.41	Win2	0.6829000000000001	n/a	Yes	2.728	n/a	n/a	GoodResponse	1	n/a	n/a	7	40	Blank	Win	True
387.82	1.45	Win2	0.6829000000000001	n/a	Yes	2.728	n/a	5.0	GoodResponse	1	0.009	386.829	7	40	Feedback	Win	True
389.275	2.728	Win2	0.6829000000000001	n/a	Yes	2.728	n/a	n/a	GoodResponse	1	0.0	n/a	7	40	ISIslide	Win	True
392.016	0.25	Win2	0.6905	0.0	Yes	2.784	0.016	n/a	GoodResponse	1	n/a	n/a	8	41	Cue	Win	True
392.267	3.9	Win2	0.6905	0.0	Yes	2.784	0.001	n/a	GoodResponse	1	n/a	n/a	8	41	Fixation	Win	True
396.162	0.28	Win2	0.6905	0.004	Yes	2.784	-0.004	2.0	GoodResponse	1	0.232	395.394	8	41	Target	Win	True
396.394	0.3	Win2	0.6905	0.004	Yes	2.784	-0.004	2.0	GoodResponse	1	0.232	n/a	8	41	ButtonPress	Win	True
396.446	0.42	Win2	0.6905	n/a	Yes	2.784	n/a	n/a	GoodResponse	1	n/a	n/a	8	41	Blank	Win	True
396.864	1.45	Win2	0.6905	n/a	Yes	2.784	n/a	5.0	GoodResponse	1	0.038	395.902	8	41	Feedback	Win	True
398.318	2.784	Win2	0.6905	n/a	Yes	2.784	n/a	n/a	GoodResponse	1	0.0	n/a	8	41	ISIslide	Win	True
401.127	0.25	Control	0.6977	0.0	Yes	2.923	0.027	n/a	GoodResponse	0	n/a	n/a	8	42	Cue	Neutral	True
401.377	3.85	Control	0.6977	0.001	Yes	2.923	0.0	n/a	GoodResponse	0	n/a	n/a	8	42	Fixation	Neutral	True
405.239	0.27	Control	0.6977	0.0	Yes	2.923	0.012	2.0	GoodResponse	0	0.256	404.495	8	42	Target	Neutral	True
405.495	0.3	Control	0.6977	0.0	Yes	2.923	0.012	2.0	GoodResponse	0	0.256	n/a	8	42	ButtonPress	Neutral	True
405.506	0.43	Control	0.6977	n/a	Yes	2.923	n/a	n/a	GoodResponse	0	n/a	n/a	8	42	Blank	Neutral	True
405.924	1.45	Control	0.6977	n/a	Yes	2.923	n/a	5.0	GoodResponse	0	0.003	404.927	8	42	Feedback	Neutral	True
407.379	2.923	Control	0.6977	n/a	Yes	2.923	n/a	n/a	GoodResponse	0	0.0	n/a	8	42	ISIslide	Neutral	True
410.321	0.25	Win2	0.6818000000000001	0.0	No	3.179	0.021	n/a	LatePress	0	n/a	n/a	8	43	Cue	MissedWin	True
410.572	4.0	Win2	0.6818000000000001	0.0	No	3.179	0.001	n/a	LatePress	0	n/a	n/a	8	43	Fixation	MissedWin	True
414.567	0.26	Win2	0.6818000000000001	0.004	No	3.179	-0.004	2.0	LatePress	0	0.26	413.827	8	43	Target	MissedWin	True
414.827	0.3	Win2	0.6818000000000001	0.004	No	3.179	-0.004	2.0	LatePress	0	0.26	n/a	8	43	ButtonPress	MissedWin	True
414.834	0.44	Win2	0.6818000000000001	n/a	No	3.179	n/a	n/a	LatePress	0	n/a	n/a	8	43	Blank	MissedWin	True
415.269	1.45	Win2	0.6818000000000001	n/a	No	3.179	n/a	5.0	LatePress	0	0.024	414.293	8	43	Feedback	MissedWin	True
416.723	3.179	Win2	0.6818000000000001	n/a	No	3.179	n/a	n/a	LatePress	0	0.0	n/a	8	43	ISIslide	MissedWin	True
419.916	0.25	Win2	0.6889	0.0	Yes	2.984	0.016	n/a	GoodResponse	1	n/a	n/a	9	44	Cue	Win	True
420.167	4.0	Win2	0.6889	0.0	Yes	2.984	0.001	n/a	GoodResponse	1	n/a	n/a	9	44	Fixation	Win	True
424.162	0.25	Win2	0.6889	0.004	Yes	2.984	-0.004	2.0	GoodResponse	1	0.247	423.409	9	44	Target	Win	True
424.409	0.3	Win2	0.6889	0.004	Yes	2.984	-0.004	2.0	GoodResponse	1	0.247	n/a	9	44	ButtonPress	Win	True
424.413	0.45	Win2	0.6889	n/a	Yes	2.984	n/a	n/a	GoodResponse	1	n/a	n/a	9	44	Blank	Win	True
424.864	1.45	Win2	0.6889	n/a	Yes	2.984	n/a	5.0	GoodResponse	1	0.039	423.903	9	44	Feedback	Win	True
426.319	2.984	Win2	0.6889	n/a	Yes	2.984	n/a	n/a	GoodResponse	1	0.0	n/a	9	44	ISIslide	Win	True
429.328	0.25	Control	0.6739	0.0	No	2.872	0.028	n/a	NoResponse	0	n/a	n/a	9	45	Cue	Neutral	True
429.579	4.1	Control	0.6739	0.0	No	2.872	0.001	n/a	NoResponse	0	n/a	n/a	9	45	Fixation	Neutral	True
433.674	0.24	Control	0.6739	0.004	No	2.872	-0.004	2.0	NoResponse	0	0.259	432.933	9	45	Target	Neutral	True
433.925	0.46	Control	0.6739	n/a	No	2.872	n/a	n/a	NoResponse	0	n/a	n/a	9	45	Blank	Neutral	True
433.933	0.3	Control	0.6739	0.004	No	2.872	-0.004	2.0	NoResponse	0	0.259	n/a	9	45	ButtonPress	Neutral	True
434.376	1.45	Control	0.6739	n/a	No	2.872	n/a	5.0	NoResponse	0	0.038	433.414	9	45	Feedback	Neutral	True
435.831	2.872	Control	0.6739	n/a	No	2.872	n/a	n/a	NoResponse	0	0.0	n/a	9	45	ISIslide	Neutral	True
438.723	0.25	Lose2	0.6596	0.0	No	3.377	0.023	n/a	LatePress	-1	n/a	n/a	8	46	Cue	Loss	True
438.973	4.0	Lose2	0.6596	0.0	No	3.377	0.0	n/a	LatePress	-1	n/a	n/a	8	46	Fixation	Loss	True
442.969	0.23	Lose2	0.6596	0.004	No	3.377	-0.004	2.0	LatePress	-1	0.232	442.201	8	46	Target	Loss	True
443.201	0.3	Lose2	0.6596	0.004	No	3.377	-0.004	2.0	LatePress	-1	0.232	n/a	8	46	ButtonPress	Loss	True
443.203	0.47	Lose2	0.6596	n/a	No	3.377	n/a	n/a	LatePress	-1	n/a	n/a	8	46	Blank	Loss	True
443.671	1.45	Lose2	0.6596	n/a	No	3.377	n/a	5.0	LatePress	-1	0.012	442.683	8	46	Feedback	Loss	True
445.125	3.377	Lose2	0.6596	n/a	No	3.377	n/a	n/a	LatePress	-1	0.0	n/a	8	46	ISIslide	Loss	True
448.519	0.25	Lose2	0.6667000000000001	0.0	Yes	2.681	0.019	n/a	GoodResponse	0	n/a	n/a	8	47	Cue	AvoidedLoss	True
448.769	4.0	Lose2	0.6667000000000001	0.0	Yes	2.681	0.0	n/a	GoodResponse	0	n/a	n/a	8	47	Fixation	AvoidedLoss	True
452.765	0.23	Lose2	0.6667000000000001	0.004	Yes	2.681	-0.004	2.0	GoodResponse	0	0.225	451.99	8	47	Target	AvoidedLoss	True
452.99	0.3	Lose2	0.6667000000000001	0.004	Yes	2.681	-0.004	2.0	GoodResponse	0	0.225	n/a	8	47	ButtonPress	AvoidedLoss	True
452.999	0.47	Lose2	0.6667000000000001	n/a	Yes	2.681	n/a	n/a	GoodResponse	0	n/a	n/a	8	47	Blank	AvoidedLoss	True
453.467	1.45	Lose2	0.6667000000000001	n/a	Yes	2.681	n/a	5.0	GoodResponse	0	0.021	452.488	8	47	Feedback	AvoidedLoss	True
454.921	2.681	Lose2	0.6667000000000001	n/a	Yes	2.681	n/a	n/a	GoodResponse	0	0.0	n/a	8	47	ISIslide	AvoidedLoss	True
457.629	0.25	Lose2	0.6735	0.0	Yes	3.021	0.029	n/a	GoodResponse	0	n/a	n/a	8	48	Cue	AvoidedLoss	True
457.88	3.95	Lose2	0.6735	0.0	Yes	3.021	0.001	n/a	GoodResponse	0	n/a	n/a	8	48	Fixation	AvoidedLoss	True
461.825	0.22	Lose2	0.6735	0.004	Yes	3.021	-0.004	2.0	GoodResponse	0	0.198	461.023	8	48	Target	AvoidedLoss	True
462.023	0.3	Lose2	0.6735	0.004	Yes	3.021	-0.004	2.0	GoodResponse	0	0.198	n/a	8	48	ButtonPress	AvoidedLoss	True
462.059	0.48	Lose2	0.6735	n/a	Yes	3.021	n/a	n/a	GoodResponse	0	n/a	n/a	8	48	Blank	AvoidedLoss	True
462.527	1.45	Lose2	0.6735	n/a	Yes	3.021	n/a	5.0	GoodResponse	0	0.034	461.561	8	48	Feedback	AvoidedLoss	True
463.982	3.021	Lose2	0.6735	n/a	Yes	3.021	n/a	n/a	GoodResponse	0	0.0	n/a	8	48	ISIslide	AvoidedLoss	True
467.024	0.25	Control	0.66	0.0	No	2.876	0.024	n/a	NoResponse	0	n/a	n/a	8	49	Cue	Neutral	True
467.275	4.0	Control	0.66	0.0	No	2.876	0.001	n/a	NoResponse	0	n/a	n/a	8	49	Fixation	Neutral	True
471.27	0.21	Control	0.66	0.004	No	2.876	-0.004	2.0	NoResponse	0	0.276	470.546	8	49	Target	Neutral	True
471.487	0.49	Control	0.66	n/a	No	2.876	n/a	n/a	NoResponse	0	n/a	n/a	8	49	Blank	Neutral	True
471.546	0.3	Control	0.66	0.004	No	2.876	-0.004	2.0	NoResponse	0	0.276	n/a	8	49	ButtonPress	Neutral	True
471.972	1.45	Control	0.66	n/a	No	2.876	n/a	5.0	NoResponse	0	0.007	470.979	8	49	Feedback	Neutral	True
473.426	2.876	Control	0.66	n/a	No	2.876	n/a	n/a	NoResponse	0	0.0	n/a	8	49	ISIslide	Neutral	True
476.318	0.25	Control	0.6470999999999999	0.001	No	2.782	0.018	n/a	LatePress	0	n/a	n/a	8	50	Cue	Neutral	True
476.569	4.0	Control	0.6470999999999999	0.0	No	2.782	0.001	n/a	LatePress	0	n/a	n/a	8	50	Fixation	Neutral	True
480.564	0.21	Control	0.6470999999999999	0.004	No	2.782	-0.004	2.0	LatePress	0	0.212	479.776	8	50	Target	Neutral	True
480.776	0.3	Control	0.6470999999999999	0.004	No	2.782	-0.004	2.0	LatePress	0	0.212	n/a	8	50	ButtonPress	Neutral	True
480.782	0.49	Control	0.6470999999999999	n/a	No	2.782	n/a	n/a	LatePress	0	n/a	n/a	8	50	Blank	Neutral	True
481.267	1.45	Control	0.6470999999999999	n/a	No	2.782	n/a	5.0	LatePress	0	0.025	480.292	8	50	Feedback	Neutral	True
482.721	2.782	Control	0.6470999999999999	n/a	No	2.782	n/a	n/a	LatePress	0	0.0	n/a	8	50	ISIslide	Neutral	True
485.529	0.25	Control	0.6346	0.0	No	2.721	0.029	n/a	NoResponse	0	n/a	n/a	8	51	Cue	Neutral	True
485.78	3.95	Control	0.6346	0.0	No	2.721	0.001	n/a	NoResponse	0	n/a	n/a	8	51	Fixation	Neutral	True
489.725	0.22	Control	0.6346	0.004	No	2.721	-0.004	2.0	NoResponse	0	0.249	488.974	8	51	Target	Neutral	True
489.959	0.48	Control	0.6346	n/a	No	2.721	n/a	n/a	NoResponse	0	n/a	n/a	8	51	Blank	Neutral	True
489.974	0.3	Control	0.6346	0.004	No	2.721	-0.004	2.0	NoResponse	0	0.249	n/a	8	51	ButtonPress	Neutral	True
490.427	1.45	Control	0.6346	n/a	No	2.721	n/a	5.0	NoResponse	0	0.036	489.463	8	51	Feedback	Neutral	True
491.882	2.721	Control	0.6346	n/a	No	2.721	n/a	n/a	NoResponse	0	0.0	n/a	8	51	ISIslide	Neutral	True
494.623	0.25	Control	0.6415000000000001	0.0	Yes	2.627	0.023	n/a	GoodResponse	0	n/a	n/a	8	52	Cue	Neutral	True
494.874	4.05	Control	0.6415000000000001	0.0	Yes	2.627	0.001	n/a	GoodResponse	0	n/a	n/a	8	52	Fixation	Neutral	True
498.919	0.23	Control	0.6415000000000001	0.004	Yes	2.627	-0.004	2.0	GoodResponse	0	0.224	498.143	8	52	Target	Neutral	True
499.143	0.3	Control	0.6415000000000001	0.004	Yes	2.627	-0.004	2.0	GoodResponse	0	0.224	n/a	8	52	ButtonPress	Neutral	True
499.153	0.47	Control	0.6415000000000001	n/a	Yes	2.627	n/a	n/a	GoodResponse	0	n/a	n/a	8	52	Blank	Neutral	True
499.622	1.45	Control	0.6415000000000001	n/a	Yes	2.627	n/a	5.0	GoodResponse	0	0.011	498.633	8	52	Feedback	Neutral	True
501.076	2.627	Control	0.6415000000000001	n/a	Yes	2.627	n/a	n/a	GoodResponse	0	0.0	n/a	8	52	ISIslide	Neutral	True
503.717	0.25	Win2	0.6296	0.0	No	2.933	0.017	n/a	NoResponse	0	n/a	n/a	8	53	Cue	MissedWin	True
503.968	4.05	Win2	0.6296	0.0	No	2.933	0.001	n/a	NoResponse	0	n/a	n/a	8	53	Fixation	MissedWin	True
508.013	0.24	Win2	0.6296	0.004	No	2.933	-0.004	2.0	NoResponse	0	0.259	507.272	8	53	Target	MissedWin	True
508.264	0.46	Win2	0.6296	n/a	No	2.933	n/a	n/a	NoResponse	0	n/a	n/a	8	53	Blank	MissedWin	True
508.272	0.3	Win2	0.6296	0.004	No	2.933	-0.004	2.0	NoResponse	0	0.259	n/a	8	53	ButtonPress	MissedWin	True
508.715	1.45	Win2	0.6296	n/a	No	2.933	n/a	5.0	NoResponse	0	0.041	507.756	8	53	Feedback	MissedWin	True
510.17	2.933	Win2	0.6296	n/a	No	2.933	n/a	n/a	NoResponse	0	0.0	n/a	8	53	ISIslide	MissedWin	True
513.129	0.25	Win2	0.6364	0.0	Yes	2.721	0.029	n/a	GoodResponse	1	n/a	n/a	9	54	Cue	Win	True
513.379	3.95	Win2	0.6364	0.0	Yes	2.721	0.0	n/a	GoodResponse	1	n/a	n/a	9	54	Fixation	Win	True
517.325	0.25	Win2	0.6364	0.004	Yes	2.721	-0.004	2.0	GoodResponse	1	0.216	516.541	9	54	Target	Win	True
517.541	0.3	Win2	0.6364	0.004	Yes	2.721	-0.004	2.0	GoodResponse	1	0.216	n/a	9	54	ButtonPress	Win	True
517.575	0.45	Win2	0.6364	n/a	Yes	2.721	n/a	n/a	GoodResponse	1	n/a	n/a	9	54	Blank	Win	True
518.027	1.45	Win2	0.6364	n/a	Yes	2.721	n/a	5.0	GoodResponse	1	0.046	517.073	9	54	Feedback	Win	True
519.481	2.721	Win2	0.6364	n/a	Yes	2.721	n/a	n/a	GoodResponse	1	0.0	n/a	9	54	ISIslide	Win	True
522.223	0.25	Control	0.6429	0.0	Yes	3.027	0.023	n/a	GoodResponse	0	n/a	n/a	9	55	Cue	Neutral	True
522.473	3.95	Control	0.6429	0.0	Yes	3.027	0.0	n/a	GoodResponse	0	n/a	n/a	9	55	Fixation	Neutral	True
526.435	0.26	Control	0.6429	0.0	Yes	3.027	0.012	2.0	GoodResponse	0	0.25	525.685	9	55	Target	Neutral	True
526.685	0.3	Control	0.6429	0.0	Yes	3.027	0.012	2.0	GoodResponse	0	0.25	n/a	9	55	ButtonPress	Neutral	True
526.686	0.44	Control	0.6429	n/a	Yes	3.027	n/a	n/a	GoodResponse	0	n/a	n/a	9	55	Blank	Neutral	True
527.121	1.45	Control	0.6429	n/a	Yes	3.027	n/a	5.0	GoodResponse	0	0.025	526.146	9	55	Feedback	Neutral	True
528.575	3.027	Control	0.6429	n/a	Yes	3.027	n/a	n/a	GoodResponse	0	0.0	n/a	9	55	ISIslide	Neutral	True
531.617	0.25	Control	0.6315999999999999	0.0	No	2.833	0.017	n/a	LatePress	0	n/a	n/a	9	56	Cue	Neutral	True
531.868	3.95	Control	0.6315999999999999	0.0	No	2.833	0.001	n/a	LatePress	0	n/a	n/a	9	56	Fixation	Neutral	True
535.813	0.27	Control	0.6315999999999999	0.004	No	2.833	-0.004	2.0	LatePress	0	0.282	535.095	9	56	Target	Neutral	True
536.095	0.3	Control	0.6315999999999999	0.004	No	2.833	-0.004	2.0	LatePress	0	0.282	n/a	9	56	ButtonPress	Neutral	True
536.097	0.43	Control	0.6315999999999999	n/a	No	2.833	n/a	n/a	LatePress	0	n/a	n/a	9	56	Blank	Neutral	True
536.515	1.45	Control	0.6315999999999999	n/a	No	2.833	n/a	5.0	LatePress	0	0.045	535.56	9	56	Feedback	Neutral	True
537.97	2.833	Control	0.6315999999999999	n/a	No	2.833	n/a	n/a	LatePress	0	0.0	n/a	9	56	ISIslide	Neutral	True
540.828	0.25	Control	0.6379	0.0	Yes	3.472	0.028	n/a	GoodResponse	0	n/a	n/a	9	57	Cue	Neutral	True
541.079	4.0	Control	0.6379	0.0	Yes	3.472	0.001	n/a	GoodResponse	0	n/a	n/a	9	57	Fixation	Neutral	True
545.074	0.28	Control	0.6379	0.004	Yes	3.472	-0.004	2.0	GoodResponse	0	0.256	544.33	9	57	Target	Neutral	True
545.33	0.3	Control	0.6379	0.004	Yes	3.472	-0.004	2.0	GoodResponse	0	0.256	n/a	9	57	ButtonPress	Neutral	True
545.358	0.42	Control	0.6379	n/a	Yes	3.472	n/a	n/a	GoodResponse	0	n/a	n/a	9	57	Blank	Neutral	True
545.776	1.45	Control	0.6379	n/a	Yes	3.472	n/a	5.0	GoodResponse	0	0.007	544.783	9	57	Feedback	Neutral	True
547.231	3.472	Control	0.6379	n/a	Yes	3.472	n/a	n/a	GoodResponse	0	0.0	n/a	9	57	ISIslide	Neutral	True
550.724	0.25	Win2	0.6441	0.001	Yes	2.726	0.024	n/a	GoodResponse	1	n/a	n/a	10	58	Cue	Win	True
550.975	4.05	Win2	0.6441	0.0	Yes	2.726	0.001	n/a	GoodResponse	1	n/a	n/a	10	58	Fixation	Win	True
555.021	0.29	Win2	0.6441	0.003	Yes	2.726	-0.003	2.0	GoodResponse	1	0.265	554.286	10	58	Target	Win	True
555.286	0.3	Win2	0.6441	0.003	Yes	2.726	-0.003	2.0	GoodResponse	1	0.265	n/a	10	58	ButtonPress	Win	True
555.322	0.41	Win2	0.6441	n/a	Yes	2.726	n/a	n/a	GoodResponse	1	n/a	n/a	10	58	Blank	Win	True
555.723	1.45	Win2	0.6441	n/a	Yes	2.726	n/a	5.0	GoodResponse	1	0.008	554.731	10	58	Feedback	Win	True
557.177	2.726	Win2	0.6441	n/a	Yes	2.726	n/a	n/a	GoodResponse	1	0.0	n/a	10	58	ISIslide	Win	True
559.919	0.25	Lose2	0.65	0.0	Yes	2.681	0.019	n/a	GoodResponse	0	n/a	n/a	10	59	Cue	AvoidedLoss	True
560.169	4.0	Lose2	0.65	0.001	Yes	2.681	0.0	n/a	GoodResponse	0	n/a	n/a	10	59	Fixation	AvoidedLoss	True
564.165	0.3	Lose2	0.65	0.004	Yes	2.681	-0.004	2.0	GoodResponse	0	0.236	563.401	10	59	Target	AvoidedLoss	True
564.401	0.3	Lose2	0.65	0.004	Yes	2.681	-0.004	2.0	GoodResponse	0	0.236	n/a	10	59	ButtonPress	AvoidedLoss	True
564.466	0.4	Lose2	0.65	n/a	Yes	2.681	n/a	n/a	GoodResponse	0	n/a	n/a	10	59	Blank	AvoidedLoss	True
564.867	1.45	Lose2	0.65	n/a	Yes	2.681	n/a	5.0	GoodResponse	0	0.035	563.902	10	59	Feedback	AvoidedLoss	True
566.321	2.681	Lose2	0.65	n/a	Yes	2.681	n/a	n/a	GoodResponse	0	0.0	n/a	10	59	ISIslide	AvoidedLoss	True
569.029	0.25	Control	0.6557	0.0	Yes	2.671	0.029	n/a	GoodResponse	0	n/a	n/a	10	60	Cue	Neutral	True
569.28	4.0	Control	0.6557	0.0	Yes	2.671	0.001	n/a	GoodResponse	0	n/a	n/a	10	60	Fixation	Neutral	True
573.275	0.31	Control	0.6557	0.004	Yes	2.671	-0.004	2.0	GoodResponse	0	0.25	572.525	10	60	Target	Neutral	True
573.525	0.3	Control	0.6557	0.004	Yes	2.671	-0.004	2.0	GoodResponse	0	0.25	n/a	10	60	ButtonPress	Neutral	True
573.593	0.39	Control	0.6557	n/a	Yes	2.671	n/a	n/a	GoodResponse	0	n/a	n/a	10	60	Blank	Neutral	True
573.977	1.45	Control	0.6557	n/a	Yes	2.671	n/a	5.0	GoodResponse	0	0.047	573.024	10	60	Feedback	Neutral	True
575.432	2.671	Control	0.6557	n/a	Yes	2.671	n/a	n/a	GoodResponse	0	0.0	n/a	10	60	ISIslide	Neutral	True
578.123	0.25	Lose2	0.6613	0.0	Yes	2.977	0.023	n/a	GoodResponse	0	n/a	n/a	10	61	Cue	AvoidedLoss	True
578.374	4.0	Lose2	0.6613	0.0	Yes	2.977	0.001	n/a	GoodResponse	0	n/a	n/a	10	61	Fixation	AvoidedLoss	True
582.369	0.31	Lose2	0.6613	0.004	Yes	2.977	-0.004	2.0	GoodResponse	0	0.256	581.625	10	61	Target	AvoidedLoss	True
582.625	0.3	Lose2	0.6613	0.004	Yes	2.977	-0.004	2.0	GoodResponse	0	0.256	n/a	10	61	ButtonPress	AvoidedLoss	True
582.687	0.39	Lose2	0.6613	n/a	Yes	2.977	n/a	n/a	GoodResponse	0	n/a	n/a	10	61	Blank	AvoidedLoss	True
583.071	1.45	Lose2	0.6613	n/a	Yes	2.977	n/a	5.0	GoodResponse	0	0.025	582.096	10	61	Feedback	AvoidedLoss	True
584.526	2.977	Lose2	0.6613	n/a	Yes	2.977	n/a	n/a	GoodResponse	0	0.0	n/a	10	61	ISIslide	AvoidedLoss	True
587.518	0.25	Lose2	0.6667000000000001	0.0	Yes	2.882	0.018	n/a	GoodResponse	0	n/a	n/a	10	62	Cue	AvoidedLoss	False
587.769	3.9	Lose2	0.6667000000000001	0.0	Yes	2.882	0.001	2.0	GoodResponse	0	2.037	588.806	10	62	Fixation	AvoidedLoss	False
589.806	0.3	Lose2	0.6667000000000001	0.0	Yes	2.882	0.001	2.0	GoodResponse	0	2.037	n/a	10	62	ButtonPress	AvoidedLoss	False
591.664	0.31	Lose2	0.6667000000000001	0.004	Yes	2.882	-0.004	2.0	GoodResponse	0	0.242	590.906	10	62	Target	AvoidedLoss	False
591.906	0.3	Lose2	0.6667000000000001	0.004	Yes	2.882	-0.004	2.0	GoodResponse	0	0.242	n/a	10	62	ButtonPress	AvoidedLoss	False
591.981	0.39	Lose2	0.6667000000000001	n/a	Yes	2.882	n/a	n/a	GoodResponse	0	n/a	n/a	10	62	Blank	AvoidedLoss	False
592.366	1.45	Lose2	0.6667000000000001	n/a	Yes	2.882	n/a	5.0	GoodResponse	0	0.047	591.413	10	62	Feedback	AvoidedLoss	False
593.82	2.882	Lose2	0.6667000000000001	n/a	Yes	2.882	n/a	n/a	GoodResponse	0	0.0	n/a	10	62	ISIslide	AvoidedLoss	False
596.729	0.25	Lose2	0.6718999999999999	0.0	Yes	2.621	0.029	n/a	GoodResponse	0	n/a	n/a	10	63	Cue	AvoidedLoss	True
596.98	4.05	Lose2	0.6718999999999999	0.0	Yes	2.621	0.001	n/a	GoodResponse	0	n/a	n/a	10	63	Fixation	AvoidedLoss	True
601.025	0.3	Lose2	0.6718999999999999	0.004	Yes	2.621	-0.004	2.0	GoodResponse	0	0.269	600.294	10	63	Target	AvoidedLoss	True
601.294	0.3	Lose2	0.6718999999999999	0.004	Yes	2.621	-0.004	2.0	GoodResponse	0	0.269	n/a	10	63	ButtonPress	AvoidedLoss	True
601.326	0.4	Lose2	0.6718999999999999	n/a	Yes	2.621	n/a	n/a	GoodResponse	0	n/a	n/a	10	63	Blank	AvoidedLoss	True
601.727	1.45	Lose2	0.6718999999999999	n/a	Yes	2.621	n/a	5.0	GoodResponse	0	0.007	600.734	10	63	Feedback	AvoidedLoss	True
603.182	2.621	Lose2	0.6718999999999999	n/a	Yes	2.621	n/a	n/a	GoodResponse	0	0.0	n/a	10	63	ISIslide	AvoidedLoss	True
605.823	0.25	Win2	0.6769	0.0	Yes	3.127	0.023	n/a	GoodResponse	1	n/a	n/a	11	64	Cue	Win	True
606.074	4.15	Win2	0.6769	0.0	Yes	3.127	0.001	n/a	GoodResponse	1	n/a	n/a	11	64	Fixation	Win	True
610.219	0.29	Win2	0.6769	0.004	Yes	3.127	-0.004	2.0	GoodResponse	1	0.229	609.448	11	64	Target	Win	True
610.448	0.3	Win2	0.6769	0.004	Yes	3.127	-0.004	2.0	GoodResponse	1	0.229	n/a	11	64	ButtonPress	Win	True
610.52	0.41	Win2	0.6769	n/a	Yes	3.127	n/a	n/a	GoodResponse	1	n/a	n/a	11	64	Blank	Win	True
610.921	1.45	Win2	0.6769	n/a	Yes	3.127	n/a	5.0	GoodResponse	1	0.029	609.95	11	64	Feedback	Win	True
612.376	3.127	Win2	0.6769	n/a	Yes	3.127	n/a	n/a	GoodResponse	1	0.0	n/a	11	64	ISIslide	Win	True
615.518	0.25	Control	0.6667000000000001	0.001	No	2.782	0.018	n/a	NoResponse	0	n/a	n/a	11	65	Cue	Neutral	True
615.769	4.0	Control	0.6667000000000001	0.0	No	2.782	0.001	n/a	NoResponse	0	n/a	n/a	11	65	Fixation	Neutral	True
619.764	0.28	Control	0.6667000000000001	0.004	No	2.782	-0.004	2.0	NoResponse	0	0.293	619.057	11	65	Target	Neutral	True
620.049	0.42	Control	0.6667000000000001	n/a	No	2.782	n/a	n/a	NoResponse	0	n/a	n/a	11	65	Blank	Neutral	True
620.057	0.3	Control	0.6667000000000001	0.004	No	2.782	-0.004	2.0	NoResponse	0	0.293	n/a	11	65	ButtonPress	Neutral	True
620.467	1.45	Control	0.6667000000000001	n/a	No	2.782	n/a	5.0	NoResponse	0	0.044	619.511	11	65	Feedback	Neutral	True
621.921	2.782	Control	0.6667000000000001	n/a	No	2.782	n/a	n/a	NoResponse	0	0.0	n/a	11	65	ISIslide	Neutral	True
624.729	0.25	Win2	0.6567000000000001	0.0	No	2.771	0.029	n/a	LatePress	0	n/a	n/a	11	66	Cue	MissedWin	True
624.98	3.9	Win2	0.6567000000000001	0.0	No	2.771	0.001	n/a	LatePress	0	n/a	n/a	11	66	Fixation	MissedWin	True
628.875	0.27	Win2	0.6567000000000001	0.004	No	2.771	-0.004	2.0	LatePress	0	0.275	628.15	11	66	Target	MissedWin	True
629.15	0.3	Win2	0.6567000000000001	0.004	No	2.771	-0.004	2.0	LatePress	0	0.275	n/a	11	66	ButtonPress	MissedWin	True
629.159	0.43	Win2	0.6567000000000001	n/a	No	2.771	n/a	n/a	LatePress	0	n/a	n/a	11	66	Blank	MissedWin	True
629.577	1.45	Win2	0.6567000000000001	n/a	No	2.771	n/a	5.0	LatePress	0	0.007	628.584	11	66	Feedback	MissedWin	True
631.032	2.771	Win2	0.6567000000000001	n/a	No	2.771	n/a	n/a	LatePress	0	0.0	n/a	11	66	ISIslide	MissedWin	True
633.823	0.25	Control	0.6470999999999999	0.0	No	2.727	0.023	n/a	NoResponse	0	n/a	n/a	11	67	Cue	Neutral	True
634.074	3.95	Control	0.6470999999999999	0.0	No	2.727	0.001	n/a	NoResponse	0	n/a	n/a	11	67	Fixation	Neutral	True
638.019	0.27	Control	0.6470999999999999	0.004	No	2.727	-0.004	2.0	NoResponse	0	0.457	637.476	11	67	Target	Neutral	True
638.303	0.43	Control	0.6470999999999999	n/a	No	2.727	n/a	n/a	NoResponse	0	n/a	n/a	11	67	Blank	Neutral	True
638.476	0.3	Control	0.6470999999999999	0.004	No	2.727	-0.004	2.0	NoResponse	0	0.457	n/a	11	67	ButtonPress	Neutral	True
638.721	1.45	Control	0.6470999999999999	n/a	No	2.727	n/a	5.0	NoResponse	0	0.033	637.754	11	67	Feedback	Neutral	True
640.176	2.727	Control	0.6470999999999999	n/a	No	2.727	n/a	n/a	NoResponse	0	0.0	n/a	11	67	ISIslide	Neutral	True
642.917	0.25	Win2	0.6522	0.0	Yes	3.083	0.017	n/a	GoodResponse	1	n/a	n/a	12	68	Cue	Win	True
643.168	4.0	Win2	0.6522	0.0	Yes	3.083	0.001	n/a	GoodResponse	1	n/a	n/a	12	68	Fixation	Win	True
647.163	0.28	Win2	0.6522	0.004	Yes	3.083	-0.004	2.0	GoodResponse	1	0.212	646.375	12	68	Target	Win	True
647.375	0.3	Win2	0.6522	0.004	Yes	3.083	-0.004	2.0	GoodResponse	1	0.212	n/a	12	68	ButtonPress	Win	True
647.447	0.42	Win2	0.6522	n/a	Yes	3.083	n/a	n/a	GoodResponse	1	n/a	n/a	12	68	Blank	Win	True
647.865	1.45	Win2	0.6522	n/a	Yes	3.083	n/a	5.0	GoodResponse	1	0.011	646.876	12	68	Feedback	Win	True
649.32	3.083	Win2	0.6522	n/a	Yes	3.083	n/a	n/a	GoodResponse	1	0.0	n/a	12	68	ISIslide	Win	True
652.429	0.25	Win2	0.6570999999999999	0.0	Yes	3.221	0.029	n/a	GoodResponse	1	n/a	n/a	13	69	Cue	Win	True
652.68	3.95	Win2	0.6570999999999999	0.0	Yes	3.221	0.001	n/a	GoodResponse	1	n/a	n/a	13	69	Fixation	Win	True
656.625	0.29	Win2	0.6570999999999999	0.004	Yes	3.221	-0.004	2.0	GoodResponse	1	0.243	655.868	13	69	Target	Win	True
656.868	0.3	Win2	0.6570999999999999	0.004	Yes	3.221	-0.004	2.0	GoodResponse	1	0.243	n/a	13	69	ButtonPress	Win	True
656.926	0.41	Win2	0.6570999999999999	n/a	Yes	3.221	n/a	n/a	GoodResponse	1	n/a	n/a	13	69	Blank	Win	True
657.327	1.45	Win2	0.6570999999999999	n/a	Yes	3.221	n/a	5.0	GoodResponse	1	0.013	656.34	13	69	Feedback	Win	True
658.781	3.221	Win2	0.6570999999999999	n/a	Yes	3.221	n/a	n/a	GoodResponse	1	0.0	n/a	13	69	ISIslide	Win	True
662.024	0.25	Lose2	0.662	0.0	Yes	3.026	0.024	n/a	GoodResponse	0	n/a	n/a	13	70	Cue	AvoidedLoss	True
662.275	4.05	Lose2	0.662	0.0	Yes	3.026	0.001	n/a	GoodResponse	0	n/a	n/a	13	70	Fixation	AvoidedLoss	True
666.321	0.29	Lose2	0.662	0.003	Yes	3.026	-0.003	2.0	GoodResponse	0	0.187	665.508	13	70	Target	AvoidedLoss	True
666.508	0.3	Lose2	0.662	0.003	Yes	3.026	-0.003	2.0	GoodResponse	0	0.187	n/a	13	70	ButtonPress	AvoidedLoss	True
666.621	0.41	Lose2	0.662	n/a	Yes	3.026	n/a	n/a	GoodResponse	0	n/a	n/a	13	70	Blank	AvoidedLoss	True
667.023	1.45	Lose2	0.662	n/a	Yes	3.026	n/a	5.0	GoodResponse	0	0.024	666.047	13	70	Feedback	AvoidedLoss	True
668.477	3.026	Lose2	0.662	n/a	Yes	3.026	n/a	n/a	GoodResponse	0	0.0	n/a	13	70	ISIslide	AvoidedLoss	True
671.519	0.25	Win2	0.6528	0.0	No	2.731	0.019	n/a	LatePress	0	n/a	n/a	13	71	Cue	MissedWin	True
671.77	4.05	Win2	0.6528	0.0	No	2.731	0.001	n/a	LatePress	0	n/a	n/a	13	71	Fixation	MissedWin	True
675.816	0.29	Win2	0.6528	0.003	No	2.731	-0.003	2.0	LatePress	0	0.301	675.117	13	71	Target	MissedWin	True
676.117	0.41	Win2	0.6528	n/a	No	2.731	n/a	n/a	LatePress	0	n/a	n/a	13	71	Blank	MissedWin	True
676.117	0.3	Win2	0.6528	0.003	No	2.731	-0.003	2.0	LatePress	0	0.301	n/a	13	71	ButtonPress	MissedWin	True
676.518	1.45	Win2	0.6528	n/a	No	2.731	n/a	5.0	LatePress	0	0.041	675.559	13	71	Feedback	MissedWin	True
677.972	2.731	Win2	0.6528	n/a	No	2.731	n/a	n/a	LatePress	0	0.0	n/a	13	71	ISIslide	MissedWin	True
680.73	0.25	Win2	0.6575	0.0	Yes	2.77	0.03	n/a	GoodResponse	1	n/a	n/a	14	72	Cue	Win	True
680.981	4.1	Win2	0.6575	0.0	Yes	2.77	0.001	n/a	GoodResponse	1	n/a	n/a	14	72	Fixation	Win	True
685.077	0.3	Win2	0.6575	0.003	Yes	2.77	-0.003	2.0	GoodResponse	1	0.285	684.362	14	72	Target	Win	True
685.362	0.3	Win2	0.6575	0.003	Yes	2.77	-0.003	2.0	GoodResponse	1	0.285	n/a	14	72	ButtonPress	Win	True
685.378	0.4	Win2	0.6575	n/a	Yes	2.77	n/a	n/a	GoodResponse	1	n/a	n/a	14	72	Blank	Win	True
685.779	1.45	Win2	0.6575	n/a	Yes	2.77	n/a	5.0	GoodResponse	1	0.048	684.827	14	72	Feedback	Win	True
687.233	2.77	Win2	0.6575	n/a	Yes	2.77	n/a	n/a	GoodResponse	1	0.0	n/a	14	72	ISIslide	Win	True
690.025	0.25	Win2	0.6622	0.0	Yes	2.675	0.025	n/a	GoodResponse	1	n/a	n/a	15	73	Cue	Win	True
690.276	4.0	Win2	0.6622	0.0	Yes	2.675	0.001	n/a	GoodResponse	1	n/a	n/a	15	73	Fixation	Win	True
694.271	0.3	Win2	0.6622	0.004	Yes	2.675	-0.004	2.0	GoodResponse	1	0.284	693.555	15	73	Target	Win	True
694.555	0.3	Win2	0.6622	0.004	Yes	2.675	-0.004	2.0	GoodResponse	1	0.284	n/a	15	73	ButtonPress	Win	True
694.572	0.4	Win2	0.6622	n/a	Yes	2.675	n/a	n/a	GoodResponse	1	n/a	n/a	15	73	Blank	Win	True
694.973	1.45	Win2	0.6622	n/a	Yes	2.675	n/a	5.0	GoodResponse	1	0.025	693.998	15	73	Feedback	Win	True
696.427	2.675	Win2	0.6622	n/a	Yes	2.675	n/a	n/a	GoodResponse	1	0.0	n/a	15	73	ISIslide	Win	True
699.119	0.25	Lose2	0.6667000000000001	0.0	Yes	2.631	0.019	n/a	GoodResponse	0	n/a	n/a	15	74	Cue	AvoidedLoss	True
699.369	4.05	Lose2	0.6667000000000001	0.001	Yes	2.631	0.0	n/a	GoodResponse	0	n/a	n/a	15	74	Fixation	AvoidedLoss	True
703.415	0.3	Lose2	0.6667000000000001	0.004	Yes	2.631	-0.004	2.0	GoodResponse	0	0.236	702.651	15	74	Target	AvoidedLoss	True
703.651	0.3	Lose2	0.6667000000000001	0.004	Yes	2.631	-0.004	2.0	GoodResponse	0	0.236	n/a	15	74	ButtonPress	AvoidedLoss	True
703.716	0.4	Lose2	0.6667000000000001	n/a	Yes	2.631	n/a	n/a	GoodResponse	0	n/a	n/a	15	74	Blank	AvoidedLoss	True
704.117	1.45	Lose2	0.6667000000000001	n/a	Yes	2.631	n/a	5.0	GoodResponse	0	0.006	703.123	15	74	Feedback	AvoidedLoss	True
705.571	2.631	Lose2	0.6667000000000001	n/a	Yes	2.631	n/a	n/a	GoodResponse	0	0.0	n/a	15	74	ISIslide	AvoidedLoss	True
708.229	0.25	Lose2	0.6579	0.0	No	2.921	0.029	n/a	LatePress	-1	n/a	n/a	14	75	Cue	Loss	True
708.48	3.95	Lose2	0.6579	0.0	No	2.921	0.001	n/a	LatePress	-1	n/a	n/a	14	75	Fixation	Loss	True
712.425	0.29	Lose2	0.6579	0.004	No	2.921	-0.004	2.0	LatePress	-1	0.294	711.719	14	75	Target	Loss	True
712.719	0.3	Lose2	0.6579	0.004	No	2.921	-0.004	2.0	LatePress	-1	0.294	n/a	14	75	ButtonPress	Loss	True
712.726	0.41	Lose2	0.6579	n/a	No	2.921	n/a	n/a	LatePress	-1	n/a	n/a	14	75	Blank	Loss	True
713.127	1.45	Lose2	0.6579	n/a	No	2.921	n/a	5.0	LatePress	-1	0.017	712.144	14	75	Feedback	Loss	True
714.582	2.921	Lose2	0.6579	n/a	No	2.921	n/a	n/a	LatePress	-1	0.0	n/a	14	75	ISIslide	Loss	True
717.524	0.25	Control	0.6623	0.0	Yes	3.226	0.024	n/a	GoodResponse	0	n/a	n/a	14	76	Cue	Neutral	True
717.775	4.05	Control	0.6623	0.0	Yes	3.226	0.001	n/a	GoodResponse	0	n/a	n/a	14	76	Fixation	Neutral	True
721.82	0.29	Control	0.6623	0.004	Yes	3.226	-0.004	2.0	GoodResponse	0	0.247	721.067	14	76	Target	Neutral	True
722.067	0.3	Control	0.6623	0.004	Yes	3.226	-0.004	2.0	GoodResponse	0	0.247	n/a	14	76	ButtonPress	Neutral	True
722.121	0.41	Control	0.6623	n/a	Yes	3.226	n/a	n/a	GoodResponse	0	n/a	n/a	14	76	Blank	Neutral	True
722.522	1.45	Control	0.6623	n/a	Yes	3.226	n/a	5.0	GoodResponse	0	0.037	721.559	14	76	Feedback	Neutral	True
723.976	3.226	Control	0.6623	n/a	Yes	3.226	n/a	n/a	GoodResponse	0	0.0	n/a	14	76	ISIslide	Neutral	True
727.219	0.25	Lose2	0.6667000000000001	0.001	Yes	2.581	0.019	n/a	GoodResponse	0	n/a	n/a	14	77	Cue	AvoidedLoss	False
727.47	3.95	Lose2	0.6667000000000001	0.0	Yes	2.581	0.001	2.0	GoodResponse	0	0.116	726.586	14	77	Fixation	AvoidedLoss	False
727.586	0.3	Lose2	0.6667000000000001	0.0	Yes	2.581	0.001	2.0	GoodResponse	0	0.116	n/a	14	77	ButtonPress	AvoidedLoss	False
731.415	0.29	Lose2	0.6667000000000001	0.004	Yes	2.581	-0.004	2.0	GoodResponse	0	0.261	730.676	14	77	Target	AvoidedLoss	False
731.676	0.3	Lose2	0.6667000000000001	0.004	Yes	2.581	-0.004	2.0	GoodResponse	0	0.261	n/a	14	77	ButtonPress	AvoidedLoss	False
731.716	0.41	Lose2	0.6667000000000001	n/a	Yes	2.581	n/a	n/a	GoodResponse	0	n/a	n/a	14	77	Blank	AvoidedLoss	False
732.117	1.45	Lose2	0.6667000000000001	n/a	Yes	2.581	n/a	5.0	GoodResponse	0	0.007	731.124	14	77	Feedback	AvoidedLoss	False
733.572	2.581	Lose2	0.6667000000000001	n/a	Yes	2.581	n/a	n/a	GoodResponse	0	0.0	n/a	14	77	ISIslide	AvoidedLoss	False
