onset	duration	cue_type	current_mean_accuracy	duration_error	is_hit	isi_adjusted	onset_delay	response	response_type	reward	rt	rt_time	total_reward	trial_number	trial_phase	trial_type	one_press
11.099	0.25	Control	1.0	0.0	Yes	2.951	-0.001	n/a	GoodResponse	0	n/a	n/a	0	0	Cue	Neutral	True
11.35	3.85	Control	1.0	0.0	Yes	2.951	0.001	n/a	GoodResponse	0	n/a	n/a	0	0	Fixation	Neutral	True
15.195	0.4	Control	1.0	0.004	Yes	2.951	-0.004	2.0	GoodResponse	0	0.218	14.413	0	0	Target	Neutral	True
15.413	0.3	Control	1.0	0.004	Yes	2.951	-0.004	2.0	GoodResponse	0	0.218	n/a	0	0	ButtonPress	Neutral	True
15.596	0.3	Control	1.0	n/a	Yes	2.951	n/a	n/a	GoodResponse	0	n/a	n/a	0	0	Blank	Neutral	True
15.897	1.45	Control	1.0	n/a	Yes	2.951	n/a	5.0	GoodResponse	0	0.033	14.93	0	0	Feedback	Neutral	True
17.351	2.951	Control	1.0	n/a	Yes	2.951	n/a	n/a	GoodResponse	0	0.0	n/a	0	0	ISIslide	Neutral	True
20.327	0.25	Lose2	1.0	0.0	Yes	2.773	0.027	n/a	GoodResponse	0	n/a	n/a	0	1	Cue	AvoidedLoss	True
20.578	4.0	Lose2	1.0	0.0	Yes	2.773	0.001	n/a	GoodResponse	0	n/a	n/a	0	1	Fixation	AvoidedLoss	True
24.573	0.39	Lose2	1.0	0.004	Yes	2.773	-0.004	2.0	GoodResponse	0	0.184	23.757	0	1	Target	AvoidedLoss	True
24.757	0.3	Lose2	1.0	0.004	Yes	2.773	-0.004	2.0	GoodResponse	0	0.184	n/a	0	1	ButtonPress	AvoidedLoss	True
24.974	0.31	Lose2	1.0	n/a	Yes	2.773	n/a	n/a	GoodResponse	0	n/a	n/a	0	1	Blank	AvoidedLoss	True
25.275	1.45	Lose2	1.0	n/a	Yes	2.773	n/a	5.0	GoodResponse	0	0.021	24.296	0	1	Feedback	AvoidedLoss	True
26.729	2.773	Lose2	1.0	n/a	Yes	2.773	n/a	n/a	GoodResponse	0	0.0	n/a	0	1	ISIslide	AvoidedLoss	True
29.521	0.25	Control	1.0	0.0	Yes	2.579	0.021	n/a	GoodResponse	0	n/a	n/a	0	2	Cue	Neutral	True
29.772	4.1	Control	1.0	0.0	Yes	2.579	0.001	n/a	GoodResponse	0	n/a	n/a	0	2	Fixation	Neutral	True
33.867	0.38	Control	1.0	0.004	Yes	2.579	-0.004	2.0	GoodResponse	0	0.235	33.102	0	2	Target	Neutral	True
34.102	0.3	Control	1.0	0.004	Yes	2.579	-0.004	2.0	GoodResponse	0	0.235	n/a	0	2	ButtonPress	Neutral	True
34.252	0.32	Control	1.0	n/a	Yes	2.579	n/a	n/a	GoodResponse	0	n/a	n/a	0	2	Blank	Neutral	True
34.569	1.45	Control	1.0	n/a	Yes	2.579	n/a	5.0	GoodResponse	0	0.044	33.613	0	2	Feedback	Neutral	True
36.024	2.579	Control	1.0	n/a	Yes	2.579	n/a	n/a	GoodResponse	0	0.0	n/a	0	2	ISIslide	Neutral	True
38.615	0.25	Win2	1.0	0.0	Yes	2.835	0.015	n/a	GoodResponse	1	n/a	n/a	1	3	Cue	Win	True
38.866	3.95	Win2	1.0	0.0	Yes	2.835	0.001	n/a	GoodResponse	1	n/a	n/a	1	3	Fixation	Win	True
42.811	0.37	Win2	1.0	0.004	Yes	2.835	-0.004	2.0	GoodResponse	1	0.196	42.007	1	3	Target	Win	True
43.007	0.3	Win2	1.0	0.004	Yes	2.835	-0.004	2.0	GoodResponse	1	0.196	n/a	1	3	ButtonPress	Win	True
43.195	0.33	Win2	1.0	n/a	Yes	2.835	n/a	n/a	GoodResponse	1	n/a	n/a	1	3	Blank	Win	True
43.513	1.45	Win2	1.0	n/a	Yes	2.835	n/a	5.0	GoodResponse	1	0.026	42.539	1	3	Feedback	Win	True
44.967	2.835	Win2	1.0	n/a	Yes	2.835	n/a	n/a	GoodResponse	1	0.0	n/a	1	3	ISIslide	Win	True
47.826	0.25	Win2	1.0	0.0	Yes	3.274	0.026	n/a	GoodResponse	1	n/a	n/a	2	4	Cue	Win	True
48.077	4.0	Win2	1.0	0.0	Yes	3.274	0.001	n/a	GoodResponse	1	n/a	n/a	2	4	Fixation	Win	True
52.072	0.36	Win2	1.0	0.004	Yes	3.274	-0.004	2.0	GoodResponse	1	0.173	51.245	2	4	Target	Win	True
52.245	0.3	Win2	1.0	0.004	Yes	3.274	-0.004	2.0	GoodResponse	1	0.173	n/a	2	4	ButtonPress	Win	True
52.44	0.34	Win2	1.0	n/a	Yes	3.274	n/a	n/a	GoodResponse	1	n/a	n/a	2	4	Blank	Win	True
52.774	1.45	Win2	1.0	n/a	Yes	3.274	n/a	5.0	GoodResponse	1	0.033	51.807	2	4	Feedback	Win	True
54.228	3.274	Win2	1.0	n/a	Yes	3.274	n/a	n/a	GoodResponse	1	0.0	n/a	2	4	ISIslide	Win	True
57.522	0.25	Win2	1.0	0.0	Yes	2.778	0.022	n/a	GoodResponse	1	n/a	n/a	3	5	Cue	Win	True
57.772	4.0	Win2	1.0	0.0	Yes	2.778	0.0	n/a	GoodResponse	1	n/a	n/a	3	5	Fixation	Win	True
61.768	0.35	Win2	1.0	0.004	Yes	2.778	-0.004	2.0	GoodResponse	1	0.187	60.955	3	5	Target	Win	True
61.955	0.3	Win2	1.0	0.004	Yes	2.778	-0.004	2.0	GoodResponse	1	0.187	n/a	3	5	ButtonPress	Win	True
62.119	0.35	Win2	1.0	n/a	Yes	2.778	n/a	n/a	GoodResponse	1	n/a	n/a	3	5	Blank	Win	True
62.47	1.45	Win2	1.0	n/a	Yes	2.778	n/a	5.0	GoodResponse	1	0.045	61.515	3	5	Feedback	Win	True
63.924	2.778	Win2	1.0	n/a	Yes	2.778	n/a	n/a	GoodResponse	1	0.0	n/a	3	5	ISIslide	Win	True
66.716	0.25	Lose2	1.0	0.0	Yes	2.734	0.016	n/a	GoodResponse	0	n/a	n/a	3	6	Cue	AvoidedLoss	True
66.966	3.95	Lose2	1.0	0.001	Yes	2.734	0.0	n/a	GoodResponse	0	n/a	n/a	3	6	Fixation	AvoidedLoss	True
70.912	0.34	Lose2	1.0	0.004	Yes	2.734	-0.004	2.0	GoodResponse	0	0.211	70.123	3	6	Target	AvoidedLoss	True
71.123	0.3	Lose2	1.0	0.004	Yes	2.734	-0.004	2.0	GoodResponse	0	0.211	n/a	3	6	ButtonPress	AvoidedLoss	True
71.263	0.36	Lose2	1.0	n/a	Yes	2.734	n/a	n/a	GoodResponse	0	n/a	n/a	3	6	Blank	AvoidedLoss	True
71.614	1.45	Lose2	1.0	n/a	Yes	2.734	n/a	5.0	GoodResponse	0	0.023	70.637	3	6	Feedback	AvoidedLoss	True
73.068	2.734	Lose2	1.0	n/a	Yes	2.734	n/a	n/a	GoodResponse	0	0.0	n/a	3	6	ISIslide	AvoidedLoss	True
75.826	0.25	Lose2	1.0	0.0	Yes	4.024	0.026	n/a	GoodResponse	0	n/a	n/a	3	7	Cue	AvoidedLoss	True
76.077	4.05	Lose2	1.0	0.0	Yes	4.024	0.001	n/a	GoodResponse	0	n/a	n/a	3	7	Fixation	AvoidedLoss	True
80.123	0.33	Lose2	1.0	0.003	Yes	4.024	-0.003	2.0	GoodResponse	0	0.243	79.366	3	7	Target	AvoidedLoss	True
80.366	0.3	Lose2	1.0	0.003	Yes	4.024	-0.003	2.0	GoodResponse	0	0.243	n/a	3	7	ButtonPress	AvoidedLoss	True
80.457	0.37	Lose2	1.0	n/a	Yes	4.024	n/a	n/a	GoodResponse	0	n/a	n/a	3	7	Blank	AvoidedLoss	True
80.825	1.45	Lose2	1.0	n/a	Yes	4.024	n/a	5.0	GoodResponse	0	0.031	79.856	3	7	Feedback	AvoidedLoss	True
82.279	4.024	Lose2	1.0	n/a	Yes	4.024	n/a	n/a	GoodResponse	0	0.0	n/a	3	7	ISIslide	AvoidedLoss	True
86.324	0.25	Lose2	1.0	0.001	Yes	3.026	0.024	n/a	GoodResponse	0	n/a	n/a	3	8	Cue	AvoidedLoss	True
86.575	3.95	Lose2	1.0	0.0	Yes	3.026	0.001	n/a	GoodResponse	0	n/a	n/a	3	8	Fixation	AvoidedLoss	True
90.52	0.32	Lose2	1.0	0.004	Yes	3.026	-0.004	2.0	GoodResponse	0	0.194	89.714	3	8	Target	AvoidedLoss	True
90.714	0.3	Lose2	1.0	0.004	Yes	3.026	-0.004	2.0	GoodResponse	0	0.194	n/a	3	8	ButtonPress	AvoidedLoss	True
90.855	0.38	Lose2	1.0	n/a	Yes	3.026	n/a	n/a	GoodResponse	0	n/a	n/a	3	8	Blank	AvoidedLoss	True
91.222	1.45	Lose2	1.0	n/a	Yes	3.026	n/a	5.0	GoodResponse	0	0.025	90.247	3	8	Feedback	AvoidedLoss	True
92.677	3.026	Lose2	1.0	n/a	Yes	3.026	n/a	n/a	GoodResponse	0	0.0	n/a	3	8	ISIslide	AvoidedLoss	True
95.719	0.25	Lose2	1.0	0.0	Yes	3.131	0.019	n/a	GoodResponse	0	n/a	n/a	3	9	Cue	AvoidedLoss	True
95.97	3.95	Lose2	1.0	0.0	Yes	3.131	0.001	n/a	GoodResponse	0	n/a	n/a	3	9	Fixation	AvoidedLoss	True
99.915	0.31	Lose2	1.0	0.004	Yes	3.131	-0.004	2.0	GoodResponse	0	0.184	99.099	3	9	Target	AvoidedLoss	True
100.099	0.3	Lose2	1.0	0.004	Yes	3.131	-0.004	2.0	GoodResponse	0	0.184	n/a	3	9	ButtonPress	AvoidedLoss	True
100.233	0.39	Lose2	1.0	n/a	Yes	3.131	n/a	n/a	GoodResponse	0	n/a	n/a	3	9	Blank	AvoidedLoss	True
100.617	1.45	Lose2	1.0	n/a	Yes	3.131	n/a	5.0	GoodResponse	0	0.043	99.66	3	9	Feedback	AvoidedLoss	True
102.072	3.131	Lose2	1.0	n/a	Yes	3.131	n/a	n/a	GoodResponse	0	0.0	n/a	3	9	ISIslide	AvoidedLoss	True
105.214	0.25	Control	1.0	0.0	Yes	3.286	0.014	n/a	GoodResponse	0	n/a	n/a	3	10	Cue	Neutral	True
105.465	4.0	Control	1.0	0.0	Yes	3.286	0.001	n/a	GoodResponse	0	n/a	n/a	3	10	Fixation	Neutral	True
109.46	0.3	Control	1.0	0.004	Yes	3.286	-0.004	2.0	GoodResponse	0	0.203	108.663	3	10	Target	Neutral	True
109.663	0.3	Control	1.0	0.004	Yes	3.286	-0.004	2.0	GoodResponse	0	0.203	n/a	3	10	ButtonPress	Neutral	True
109.761	0.4	Control	1.0	n/a	Yes	3.286	n/a	n/a	GoodResponse	0	n/a	n/a	3	10	Blank	Neutral	True
110.162	1.45	Control	1.0	n/a	Yes	3.286	n/a	5.0	GoodResponse	0	0.011	109.173	3	10	Feedback	Neutral	True
111.617	3.286	Control	1.0	n/a	Yes	3.286	n/a	n/a	GoodResponse	0	0.0	n/a	3	10	ISIslide	Neutral	True
114.927	0.25	Lose2	1.0	0.0	Yes	2.723	0.027	n/a	GoodResponse	0	n/a	n/a	3	11	Cue	AvoidedLoss	True
115.177	4.05	Lose2	1.0	0.001	Yes	2.723	0.0	n/a	GoodResponse	0	n/a	n/a	3	11	Fixation	AvoidedLoss	True
119.223	0.29	Lose2	1.0	0.004	Yes	2.723	-0.004	2.0	GoodResponse	0	0.204	118.427	3	11	Target	AvoidedLoss	True
119.427	0.3	Lose2	1.0	0.004	Yes	2.723	-0.004	2.0	GoodResponse	0	0.204	n/a	3	11	ButtonPress	AvoidedLoss	True
119.524	0.41	Lose2	1.0	n/a	Yes	2.723	n/a	n/a	GoodResponse	0	n/a	n/a	3	11	Blank	AvoidedLoss	True
119.925	1.45	Lose2	1.0	n/a	Yes	2.723	n/a	5.0	GoodResponse	0	0.005	118.93	3	11	Feedback	AvoidedLoss	True
121.379	2.723	Lose2	1.0	n/a	Yes	2.723	n/a	n/a	GoodResponse	0	0.0	n/a	3	11	ISIslide	AvoidedLoss	True
124.121	0.25	Control	1.0	0.0	Yes	2.979	0.021	n/a	GoodResponse	0	n/a	n/a	3	12	Cue	Neutral	True
124.372	3.9	Control	1.0	0.0	Yes	2.979	0.001	n/a	GoodResponse	0	n/a	n/a	3	12	Fixation	Neutral	True
128.267	0.28	Control	1.0	0.004	Yes	2.979	-0.004	2.0	GoodResponse	0	0.191	127.458	3	12	Target	Neutral	True
128.458	0.3	Control	1.0	0.004	Yes	2.979	-0.004	2.0	GoodResponse	0	0.191	n/a	3	12	ButtonPress	Neutral	True
128.551	0.42	Control	1.0	n/a	Yes	2.979	n/a	n/a	GoodResponse	0	n/a	n/a	3	12	Blank	Neutral	True
128.969	1.45	Control	1.0	n/a	Yes	2.979	n/a	5.0	GoodResponse	0	0.033	128.002	3	12	Feedback	Neutral	True
130.423	2.979	Control	1.0	n/a	Yes	2.979	n/a	n/a	GoodResponse	0	0.0	n/a	3	12	ISIslide	Neutral	True
133.415	0.25	Control	1.0	0.0	Yes	2.785	0.015	n/a	GoodResponse	0	n/a	n/a	3	13	Cue	Neutral	True
133.666	4.0	Control	1.0	0.0	Yes	2.785	0.001	n/a	GoodResponse	0	n/a	n/a	3	13	Fixation	Neutral	True
137.661	0.27	Control	1.0	0.004	Yes	2.785	-0.004	2.0	GoodResponse	0	0.213	136.874	3	13	Target	Neutral	True
137.874	0.3	Control	1.0	0.004	Yes	2.785	-0.004	2.0	GoodResponse	0	0.213	n/a	3	13	ButtonPress	Neutral	True
137.946	0.43	Control	1.0	n/a	Yes	2.785	n/a	n/a	GoodResponse	0	n/a	n/a	3	13	Blank	Neutral	True
138.364	1.45	Control	1.0	n/a	Yes	2.785	n/a	5.0	GoodResponse	0	0.004	137.368	3	13	Feedback	Neutral	True
139.818	2.785	Control	1.0	n/a	Yes	2.785	n/a	n/a	GoodResponse	0	0.0	n/a	3	13	ISIslide	Neutral	True
142.626	0.25	Win2	1.0	0.0	Yes	2.674	0.026	n/a	GoodResponse	1	n/a	n/a	4	14	Cue	Win	True
142.877	4.1	Win2	1.0	0.0	Yes	2.674	0.001	n/a	GoodResponse	1	n/a	n/a	4	14	Fixation	Win	True
146.973	0.26	Win2	1.0	0.003	Yes	2.674	-0.003	2.0	GoodResponse	1	0.221	146.194	4	14	Target	Win	True
147.194	0.3	Win2	1.0	0.003	Yes	2.674	-0.003	2.0	GoodResponse	1	0.221	n/a	4	14	ButtonPress	Win	True
147.24	0.44	Win2	1.0	n/a	Yes	2.674	n/a	n/a	GoodResponse	1	n/a	n/a	4	14	Blank	Win	True
147.675	1.45	Win2	1.0	n/a	Yes	2.674	n/a	5.0	GoodResponse	1	0.009	146.684	4	14	Feedback	Win	True
149.129	2.674	Win2	1.0	n/a	Yes	2.674	n/a	n/a	GoodResponse	1	0.0	n/a	4	14	ISIslide	Win	True
151.82	0.25	Control	0.9375	0.001	No	2.98	0.02	n/a	NoResponse	0	n/a	n/a	4	15	Cue	Neutral	True
152.071	4.0	Control	0.9375	0.0	No	2.98	0.001	n/a	NoResponse	0	n/a	n/a	4	15	Fixation	Neutral	True
156.067	0.25	Control	0.9375	0.003	No	2.98	-0.003	2.0	NoResponse	0	0.324	155.391	4	15	Target	Neutral	True
156.317	0.45	Control	0.9375	n/a	No	2.98	n/a	n/a	NoResponse	0	n/a	n/a	4	15	Blank	Neutral	True
156.391	0.3	Control	0.9375	0.003	No	2.98	-0.003	2.0	NoResponse	0	0.324	n/a	4	15	ButtonPress	Neutral	True
156.769	1.45	Control	0.9375	n/a	No	2.98	n/a	5.0	NoResponse	0	0.038	155.807	4	15	Feedback	Neutral	True
158.223	2.98	Control	0.9375	n/a	No	2.98	n/a	n/a	NoResponse	0	0.0	n/a	4	15	ISIslide	Neutral	True
161.215	0.25	Win2	0.9412	0.0	Yes	2.885	0.015	n/a	GoodResponse	1	n/a	n/a	5	16	Cue	Win	True
161.466	4.0	Win2	0.9412	0.0	Yes	2.885	0.001	n/a	GoodResponse	1	n/a	n/a	5	16	Fixation	Win	True
165.461	0.24	Win2	0.9412	0.004	Yes	2.885	-0.004	2.0	GoodResponse	1	0.193	164.654	5	16	Target	Win	True
165.654	0.3	Win2	0.9412	0.004	Yes	2.885	-0.004	2.0	GoodResponse	1	0.193	n/a	5	16	ButtonPress	Win	True
165.712	0.46	Win2	0.9412	n/a	Yes	2.885	n/a	n/a	GoodResponse	1	n/a	n/a	5	16	Blank	Win	True
166.163	1.45	Win2	0.9412	n/a	Yes	2.885	n/a	5.0	GoodResponse	1	0.01	165.173	5	16	Feedback	Win	True
167.618	2.885	Win2	0.9412	n/a	Yes	2.885	n/a	n/a	GoodResponse	1	0.0	n/a	5	16	ISIslide	Win	True
170.526	0.25	Lose2	0.9444	0.001	Yes	2.724	0.026	n/a	GoodResponse	0	n/a	n/a	5	17	Cue	AvoidedLoss	True
170.777	3.95	Lose2	0.9444	0.0	Yes	2.724	0.001	n/a	GoodResponse	0	n/a	n/a	5	17	Fixation	AvoidedLoss	True
174.722	0.23	Lose2	0.9444	0.004	Yes	2.724	-0.004	2.0	GoodResponse	0	0.207	173.929	5	17	Target	AvoidedLoss	True
174.929	0.3	Lose2	0.9444	0.004	Yes	2.724	-0.004	2.0	GoodResponse	0	0.207	n/a	5	17	ButtonPress	AvoidedLoss	True
174.956	0.47	Lose2	0.9444	n/a	Yes	2.724	n/a	n/a	GoodResponse	0	n/a	n/a	5	17	Blank	AvoidedLoss	True
175.424	1.45	Lose2	0.9444	n/a	Yes	2.724	n/a	5.0	GoodResponse	0	0.017	174.441	5	17	Feedback	AvoidedLoss	True
176.879	2.724	Lose2	0.9444	n/a	Yes	2.724	n/a	n/a	GoodResponse	0	0.0	n/a	5	17	ISIslide	AvoidedLoss	True
179.62	0.25	Lose2	0.8946999999999999	0.0	No	2.73	0.02	n/a	LatePress	-1	n/a	n/a	4	18	Cue	Loss	True
179.871	4.05	Lose2	0.8946999999999999	0.0	No	2.73	0.001	n/a	LatePress	-1	n/a	n/a	4	18	Fixation	Loss	True
183.917	0.22	Lose2	0.8946999999999999	0.003	No	2.73	-0.003	2.0	LatePress	-1	0.229	183.146	4	18	Target	Loss	True
184.146	0.3	Lose2	0.8946999999999999	0.003	No	2.73	-0.003	2.0	LatePress	-1	0.229	n/a	4	18	ButtonPress	Loss	True
184.151	0.48	Lose2	0.8946999999999999	n/a	No	2.73	n/a	n/a	LatePress	-1	n/a	n/a	4	18	Blank	Loss	True
184.619	1.45	Lose2	0.8946999999999999	n/a	No	2.73	n/a	5.0	LatePress	-1	0.042	183.661	4	18	Feedback	Loss	True
186.073	2.73	Lose2	0.8946999999999999	n/a	No	2.73	n/a	n/a	LatePress	-1	0.0	n/a	4	18	ISIslide	Loss	True
188.815	0.25	Control	0.85	0.0	No	2.935	0.015	n/a	NoResponse	0	n/a	n/a	4	19	Cue	Neutral	True
189.065	3.95	Control	0.85	0.0	No	2.935	0.0	n/a	NoResponse	0	n/a	n/a	4	19	Fixation	Neutral	True
193.027	0.21	Control	0.85	0.0	No	2.935	0.012	2.0	NoResponse	0	0.234	192.261	4	19	Target	Neutral	True
193.228	0.49	Control	0.85	n/a	No	2.935	n/a	n/a	NoResponse	0	n/a	n/a	4	19	Blank	Neutral	True
193.261	0.3	Control	0.85	0.0	No	2.935	0.012	2.0	NoResponse	0	0.234	n/a	4	19	ButtonPress	Neutral	True
193.713	1.45	Control	0.85	n/a	No	2.935	n/a	5.0	NoResponse	0	0.02	192.733	4	19	Feedback	Neutral	True
195.167	2.935	Control	0.85	n/a	No	2.935	n/a	n/a	NoResponse	0	0.0	n/a	4	19	ISIslide	Neutral	True
198.126	0.25	Control	0.8095	0.0	No	2.624	0.026	n/a	NoResponse	0	n/a	n/a	4	20	Cue	Neutral	True
198.376	4.05	Control	0.8095	0.001	No	2.624	0.0	n/a	NoResponse	0	n/a	n/a	4	20	Fixation	Neutral	True
202.422	0.2	Control	0.8095	0.004	No	2.624	-0.004	2.0	NoResponse	0	0.238	201.66	4	20	Target	Neutral	True
202.623	0.5	Control	0.8095	n/a	No	2.624	n/a	n/a	NoResponse	0	n/a	n/a	4	20	Blank	Neutral	True
202.66	0.3	Control	0.8095	0.004	No	2.624	-0.004	2.0	NoResponse	0	0.238	n/a	4	20	ButtonPress	Neutral	True
203.124	1.45	Control	0.8095	n/a	No	2.624	n/a	5.0	NoResponse	0	0.024	202.148	4	20	Feedback	Neutral	True
204.578	2.624	Control	0.8095	n/a	No	2.624	n/a	n/a	NoResponse	0	0.0	n/a	4	20	ISIslide	Neutral	True
207.22	0.25	Control	0.7726999999999999	0.0	No	2.78	0.02	n/a	LatePress	0	n/a	n/a	4	21	Cue	Neutral	True
207.47	4.1	Control	0.7726999999999999	0.0	No	2.78	0.0	n/a	LatePress	0	n/a	n/a	4	21	Fixation	Neutral	True
211.566	0.19	Control	0.7726999999999999	0.004	No	2.78	-0.004	2.0	LatePress	0	0.192	210.758	4	21	Target	Neutral	True
211.758	0.3	Control	0.7726999999999999	0.004	No	2.78	-0.004	2.0	LatePress	0	0.192	n/a	4	21	ButtonPress	Neutral	True
211.767	0.51	Control	0.7726999999999999	n/a	No	2.78	n/a	n/a	LatePress	0	n/a	n/a	4	21	Blank	Neutral	True
212.268	1.45	Control	0.7726999999999999	n/a	No	2.78	n/a	5.0	LatePress	0	0.002	211.27	4	21	Feedback	Neutral	True
213.722	2.78	Control	0.7726999999999999	n/a	No	2.78	n/a	n/a	LatePress	0	0.0	n/a	4	21	ISIslide	Neutral	True
216.514	0.25	Control	0.7391	0.0	No	2.786	0.014	n/a	NoResponse	0	n/a	n/a	4	22	Cue	Neutral	True
216.765	4.0	Control	0.7391	0.0	No	2.786	0.001	n/a	NoResponse	0	n/a	n/a	4	22	Fixation	Neutral	True
220.76	0.18	Control	0.7391	0.004	No	2.786	-0.004	2.0	NoResponse	0	0.233	219.993	4	22	Target	Neutral	True
220.944	0.52	Control	0.7391	n/a	No	2.786	n/a	n/a	NoResponse	0	n/a	n/a	4	22	Blank	Neutral	True
220.993	0.3	Control	0.7391	0.004	No	2.786	-0.004	2.0	NoResponse	0	0.233	n/a	4	22	ButtonPress	Neutral	True
221.462	1.45	Control	0.7391	n/a	No	2.786	n/a	5.0	NoResponse	0	0.027	220.489	4	22	Feedback	Neutral	True
222.917	2.786	Control	0.7391	n/a	No	2.786	n/a	n/a	NoResponse	0	0.0	n/a	4	22	ISIslide	Neutral	True
225.725	0.25	Control	0.7082999999999999	0.0	No	2.775	0.025	n/a	NoResponse	0	n/a	n/a	4	23	Cue	Neutral	True
225.976	3.9	Control	0.7082999999999999	0.0	No	2.775	0.001	n/a	NoResponse	0	n/a	n/a	4	23	Fixation	Neutral	True
229.871	0.17	Control	0.7082999999999999	0.004	No	2.775	-0.004	2.0	NoResponse	0	0.197	229.068	4	23	Target	Neutral	True
230.055	0.53	Control	0.7082999999999999	n/a	No	2.775	n/a	n/a	NoResponse	0	n/a	n/a	4	23	Blank	Neutral	True
230.068	0.3	Control	0.7082999999999999	0.004	No	2.775	-0.004	2.0	NoResponse	0	0.197	n/a	4	23	ButtonPress	Neutral	True
230.573	1.45	Control	0.7082999999999999	n/a	No	2.775	n/a	5.0	NoResponse	0	0.038	229.611	4	23	Feedback	Neutral	True
232.027	2.775	Control	0.7082999999999999	n/a	No	2.775	n/a	n/a	NoResponse	0	0.0	n/a	4	23	ISIslide	Neutral	True
234.819	0.25	Win2	0.68	0.0	No	3.131	0.019	n/a	NoResponse	0	n/a	n/a	4	24	Cue	MissedWin	True
235.07	3.95	Win2	0.68	0.0	No	3.131	0.001	n/a	NoResponse	0	n/a	n/a	4	24	Fixation	MissedWin	True
239.015	0.16	Win2	0.68	0.004	No	3.131	-0.004	2.0	NoResponse	0	0.193	238.208	4	24	Target	MissedWin	True
239.182	0.54	Win2	0.68	n/a	No	3.131	n/a	n/a	NoResponse	0	n/a	n/a	4	24	Blank	MissedWin	True
239.208	0.3	Win2	0.68	0.004	No	3.131	-0.004	2.0	NoResponse	0	0.193	n/a	4	24	ButtonPress	MissedWin	True
239.717	1.45	Win2	0.68	n/a	No	3.131	n/a	5.0	NoResponse	0	0.016	238.733	4	24	Feedback	MissedWin	True
241.171	3.131	Win2	0.68	n/a	No	3.131	n/a	n/a	NoResponse	0	0.0	n/a	4	24	ISIslide	MissedWin	True
244.314	0.25	Win2	0.6537999999999999	0.0	No	3.086	0.014	n/a	NoResponse	0	n/a	n/a	4	25	Cue	MissedWin	True
244.565	4.0	Win2	0.6537999999999999	0.0	No	3.086	0.001	n/a	NoResponse	0	n/a	n/a	4	25	Fixation	MissedWin	True
248.56	0.15	Win2	0.6537999999999999	0.004	No	3.086	-0.004	2.0	NoResponse	0	0.183	247.743	4	25	Target	MissedWin	True
248.71	0.55	Win2	0.6537999999999999	n/a	No	3.086	n/a	n/a	NoResponse	0	n/a	n/a	4	25	Blank	MissedWin	True
248.743	0.3	Win2	0.6537999999999999	0.004	No	3.086	-0.004	2.0	NoResponse	0	0.183	n/a	4	25	ButtonPress	MissedWin	True
249.262	1.45	Win2	0.6537999999999999	n/a	No	3.086	n/a	5.0	NoResponse	0	0.032	248.294	4	25	Feedback	MissedWin	True
250.716	3.086	Win2	0.6537999999999999	n/a	No	3.086	n/a	n/a	NoResponse	0	0.0	n/a	4	25	ISIslide	MissedWin	True
253.826	0.25	Win2	0.6296	0.0	No	2.924	0.026	n/a	NoResponse	0	n/a	n/a	4	26	Cue	MissedWin	True
254.077	3.95	Win2	0.6296	0.0	No	2.924	0.001	n/a	NoResponse	0	n/a	n/a	4	26	Fixation	MissedWin	True
258.022	0.16	Win2	0.6296	0.004	No	2.924	-0.004	2.0	NoResponse	0	0.198	257.22	4	26	Target	MissedWin	True
258.189	0.54	Win2	0.6296	n/a	No	2.924	n/a	n/a	NoResponse	0	n/a	n/a	4	26	Blank	MissedWin	True
258.22	0.3	Win2	0.6296	0.004	No	2.924	-0.004	2.0	NoResponse	0	0.198	n/a	4	26	ButtonPress	MissedWin	True
258.724	1.45	Win2	0.6296	n/a	No	2.924	n/a	5.0	NoResponse	0	0.033	257.757	4	26	Feedback	MissedWin	True
260.178	2.924	Win2	0.6296	n/a	No	2.924	n/a	n/a	NoResponse	0	0.0	n/a	4	26	ISIslide	MissedWin	True
263.12	0.25	Lose2	0.6071	0.0	No	2.83	0.02	n/a	NoResponse	-1	n/a	n/a	3	27	Cue	Loss	True
263.371	4.05	Lose2	0.6071	0.0	No	2.83	0.001	n/a	NoResponse	-1	n/a	n/a	3	27	Fixation	Loss	True
267.416	0.17	Lose2	0.6071	0.004	No	2.83	-0.004	2.0	NoResponse	-1	0.208	266.624	3	27	Target	Loss	True
267.6	0.53	Lose2	0.6071	n/a	No	2.83	n/a	n/a	NoResponse	-1	n/a	n/a	3	27	Blank	Loss	True
267.624	0.3	Lose2	0.6071	0.004	No	2.83	-0.004	2.0	NoResponse	-1	0.208	n/a	3	27	ButtonPress	Loss	True
268.119	1.45	Lose2	0.6071	n/a	No	2.83	n/a	5.0	NoResponse	-1	0.004	267.123	3	27	Feedback	Loss	True
269.573	2.83	Lose2	0.6071	n/a	No	2.83	n/a	n/a	NoResponse	-1	0.0	n/a	3	27	ISIslide	Loss	True
272.415	0.25	Control	0.5861999999999999	0.0	No	2.835	0.015	n/a	NoResponse	0	n/a	n/a	3	28	Cue	Neutral	True
272.666	4.05	Control	0.5861999999999999	0.0	No	2.835	0.001	n/a	NoResponse	0	n/a	n/a	3	28	Fixation	Neutral	True
276.711	0.18	Control	0.5861999999999999	0.004	No	2.835	-0.004	2.0	NoResponse	0	0.206	275.917	3	28	Target	Neutral	True
276.895	0.52	Control	0.5861999999999999	n/a	No	2.835	n/a	n/a	NoResponse	0	n/a	n/a	3	28	Blank	Neutral	True
276.917	0.3	Control	0.5861999999999999	0.004	No	2.835	-0.004	2.0	NoResponse	0	0.206	n/a	3	28	ButtonPress	Neutral	True
277.413	1.45	Control	0.5861999999999999	n/a	No	2.835	n/a	5.0	NoResponse	0	0.027	276.44	3	28	Feedback	Neutral	True
278.867	2.835	Control	0.5861999999999999	n/a	No	2.835	n/a	n/a	NoResponse	0	0.0	n/a	3	28	ISIslide	Neutral	True
281.726	0.25	Lose2	0.6	0.0	Yes	2.824	0.026	n/a	GoodResponse	0	n/a	n/a	3	29	Cue	AvoidedLoss	True
281.977	3.95	Lose2	0.6	0.0	Yes	2.824	0.001	n/a	GoodResponse	0	n/a	n/a	3	29	Fixation	AvoidedLoss	True
285.922	0.19	Lose2	0.6	0.004	Yes	2.824	-0.004	2.0	GoodResponse	0	0.188	285.11	3	29	Target	AvoidedLoss	True
286.11	0.3	Lose2	0.6	0.004	Yes	2.824	-0.004	2.0	GoodResponse	0	0.188	n/a	3	29	ButtonPress	AvoidedLoss	True
286.122	0.51	Lose2	0.6	n/a	Yes	2.824	n/a	n/a	GoodResponse	0	n/a	n/a	3	29	Blank	AvoidedLoss	True
286.624	1.45	Lose2	0.6	n/a	Yes	2.824	n/a	5.0	GoodResponse	0	0.036	285.66	3	29	Feedback	AvoidedLoss	True
288.078	2.824	Lose2	0.6	n/a	Yes	2.824	n/a	n/a	GoodResponse	0	0.0	n/a	3	29	ISIslide	AvoidedLoss	True
290.92	0.25	Win2	0.6129	0.0	Yes	2.78	0.02	n/a	GoodResponse	1	n/a	n/a	4	30	Cue	Win	True
291.171	3.9	Win2	0.6129	0.0	Yes	2.78	0.001	n/a	GoodResponse	1	n/a	n/a	4	30	Fixation	Win	True
295.066	0.2	Win2	0.6129	0.004	Yes	2.78	-0.004	2.0	GoodResponse	1	0.19	294.256	4	30	Target	Win	True
295.256	0.3	Win2	0.6129	0.004	Yes	2.78	-0.004	2.0	GoodResponse	1	0.19	n/a	4	30	ButtonPress	Win	True
295.267	0.5	Win2	0.6129	n/a	Yes	2.78	n/a	n/a	GoodResponse	1	n/a	n/a	4	30	Blank	Win	True
295.768	1.45	Win2	0.6129	n/a	Yes	2.78	n/a	5.0	GoodResponse	1	0.013	294.781	4	30	Feedback	Win	True
297.222	2.78	Win2	0.6129	n/a	Yes	2.78	n/a	n/a	GoodResponse	1	0.0	n/a	4	30	ISIslide	Win	True
300.014	0.25	Lose2	0.5938	0.0	No	2.836	0.014	n/a	LatePress	-1	n/a	n/a	3	31	Cue	Loss	True
300.265	4.05	Lose2	0.5938	0.0	No	2.836	0.001	n/a	LatePress	-1	n/a	n/a	3	31	Fixation	Loss	True
304.31	0.21	Lose2	0.5938	0.004	No	2.836	-0.004	2.0	LatePress	-1	0.214	303.524	3	31	Target	Loss	True
304.524	0.3	Lose2	0.5938	0.004	No	2.836	-0.004	2.0	LatePress	-1	0.214	n/a	3	31	ButtonPress	Loss	True
304.528	0.49	Lose2	0.5938	n/a	No	2.836	n/a	n/a	LatePress	-1	n/a	n/a	3	31	Blank	Loss	True
305.012	1.45	Lose2	0.5938	n/a	No	2.836	n/a	5.0	LatePress	-1	0.037	304.049	3	31	Feedback	Loss	True
306.467	2.836	Lose2	0.5938	n/a	No	2.836	n/a	n/a	LatePress	-1	0.0	n/a	3	31	ISIslide	Loss	True
309.325	0.25	Lose2	0.6061	0.0	Yes	2.625	0.025	n/a	GoodResponse	0	n/a	n/a	3	32	Cue	AvoidedLoss	True
309.576	4.15	Lose2	0.6061	0.0	Yes	2.625	0.001	n/a	GoodResponse	0	n/a	n/a	3	32	Fixation	AvoidedLoss	True
313.722	0.22	Lose2	0.6061	0.003	Yes	2.625	-0.003	2.0	GoodResponse	0	0.191	312.913	3	32	Target	AvoidedLoss	True
313.913	0.3	Lose2	0.6061	0.003	Yes	2.625	-0.003	2.0	GoodResponse	0	0.191	n/a	3	32	ButtonPress	AvoidedLoss	True
313.956	0.48	Lose2	0.6061	n/a	Yes	2.625	n/a	n/a	GoodResponse	0	n/a	n/a	3	32	Blank	AvoidedLoss	True
314.424	1.45	Lose2	0.6061	n/a	Yes	2.625	n/a	5.0	GoodResponse	0	0.04	313.464	3	32	Feedback	AvoidedLoss	True
315.878	2.625	Lose2	0.6061	n/a	Yes	2.625	n/a	n/a	GoodResponse	0	0.0	n/a	3	32	ISIslide	AvoidedLoss	True
318.519	0.25	Win2	0.6175999999999999	0.001	Yes	2.681	0.019	n/a	GoodResponse	1	n/a	n/a	4	33	Cue	Win	True
318.77	4.0	Win2	0.6175999999999999	0.0	Yes	2.681	0.001	n/a	GoodResponse	1	n/a	n/a	4	33	Fixation	Win	True
322.765	0.23	Win2	0.6175999999999999	0.004	Yes	2.681	-0.004	2.0	GoodResponse	1	0.192	321.957	4	33	Target	Win	True
322.957	0.3	Win2	0.6175999999999999	0.004	Yes	2.681	-0.004	2.0	GoodResponse	1	0.192	n/a	4	33	ButtonPress	Win	True
323	0.47	Win2	0.6175999999999999	n/a	Yes	2.681	n/a	n/a	GoodResponse	1	n/a	n/a	4	33	Blank	Win	True
323.468	1.45	Win2	0.6175999999999999	n/a	Yes	2.681	n/a	5.0	GoodResponse	1	0.021	322.489	4	33	Feedback	Win	True
324.922	2.681	Win2	0.6175999999999999	n/a	Yes	2.681	n/a	n/a	GoodResponse	1	0.0	n/a	4	33	ISIslide	Win	True
327.63	0.25	Lose2	0.6286	0.0	Yes	2.62	0.03	n/a	GoodResponse	0	n/a	n/a	4	34	Cue	AvoidedLoss	True
327.881	4.05	Lose2	0.6286	0.0	Yes	2.62	0.001	n/a	GoodResponse	0	n/a	n/a	4	34	Fixation	AvoidedLoss	True
331.926	0.24	Lose2	0.6286	0.004	Yes	2.62	-0.004	2.0	GoodResponse	0	0.207	331.133	4	34	Target	AvoidedLoss	True
332.133	0.3	Lose2	0.6286	0.004	Yes	2.62	-0.004	2.0	GoodResponse	0	0.207	n/a	4	34	ButtonPress	AvoidedLoss	True
332.177	0.46	Lose2	0.6286	n/a	Yes	2.62	n/a	n/a	GoodResponse	0	n/a	n/a	4	34	Blank	AvoidedLoss	True
332.628	1.45	Lose2	0.6286	n/a	Yes	2.62	n/a	5.0	GoodResponse	0	0.031	331.659	4	34	Feedback	AvoidedLoss	True
334.083	2.62	Lose2	0.6286	n/a	Yes	2.62	n/a	n/a	GoodResponse	0	0.0	n/a	4	34	ISIslide	AvoidedLoss	True
336.724	0.25	Lose2	0.6389	0.0	Yes	2.676	0.024	n/a	GoodResponse	0	n/a	n/a	4	35	Cue	AvoidedLoss	True
336.975	4.0	Lose2	0.6389	0.0	Yes	2.676	0.001	n/a	GoodResponse	0	n/a	n/a	4	35	Fixation	AvoidedLoss	True
340.97	0.25	Lose2	0.6389	0.004	Yes	2.676	-0.004	2.0	GoodResponse	0	0.182	340.152	4	35	Target	AvoidedLoss	True
341.152	0.3	Lose2	0.6389	0.004	Yes	2.676	-0.004	2.0	GoodResponse	0	0.182	n/a	4	35	ButtonPress	AvoidedLoss	True
341.221	0.45	Lose2	0.6389	n/a	Yes	2.676	n/a	n/a	GoodResponse	0	n/a	n/a	4	35	Blank	AvoidedLoss	True
341.672	1.45	Lose2	0.6389	n/a	Yes	2.676	n/a	5.0	GoodResponse	0	0.012	340.684	4	35	Feedback	AvoidedLoss	True
343.126	2.676	Lose2	0.6389	n/a	Yes	2.676	n/a	n/a	GoodResponse	0	0.0	n/a	4	35	ISIslide	AvoidedLoss	True
345.818	0.25	Control	0.6486	0.0	Yes	2.682	0.018	n/a	GoodResponse	0	n/a	n/a	4	36	Cue	Neutral	True
346.069	4.0	Control	0.6486	0.0	Yes	2.682	0.001	n/a	GoodResponse	0	n/a	n/a	4	36	Fixation	Neutral	True
350.064	0.26	Control	0.6486	0.004	Yes	2.682	-0.004	2.0	GoodResponse	0	0.193	349.257	4	36	Target	Neutral	True
350.257	0.3	Control	0.6486	0.004	Yes	2.682	-0.004	2.0	GoodResponse	0	0.193	n/a	4	36	ButtonPress	Neutral	True
350.331	0.44	Control	0.6486	n/a	Yes	2.682	n/a	n/a	GoodResponse	0	n/a	n/a	4	36	Blank	Neutral	True
350.766	1.45	Control	0.6486	n/a	Yes	2.682	n/a	5.0	GoodResponse	0	0.039	349.805	4	36	Feedback	Neutral	True
352.22	2.682	Control	0.6486	n/a	Yes	2.682	n/a	n/a	GoodResponse	0	0.0	n/a	4	36	ISIslide	Neutral	True
354.928	0.25	Win2	0.6579	0.001	Yes	2.872	0.028	n/a	GoodResponse	1	n/a	n/a	5	37	Cue	Win	True
355.179	4.0	Win2	0.6579	0.0	Yes	2.872	0.001	n/a	GoodResponse	1	n/a	n/a	5	37	Fixation	Win	True
359.174	0.27	Win2	0.6579	0.004	Yes	2.872	-0.004	2.0	GoodResponse	1	0.22	358.394	5	37	Target	Win	True
359.394	0.3	Win2	0.6579	0.004	Yes	2.872	-0.004	2.0	GoodResponse	1	0.22	n/a	5	37	ButtonPress	Win	True
359.459	0.43	Win2	0.6579	n/a	Yes	2.872	n/a	n/a	GoodResponse	1	n/a	n/a	5	37	Blank	Win	True
359.877	1.45	Win2	0.6579	n/a	Yes	2.872	n/a	5.0	GoodResponse	1	0.001	358.878	5	37	Feedback	Win	True
361.331	2.872	Win2	0.6579	n/a	Yes	2.872	n/a	n/a	GoodResponse	1	0.0	n/a	5	37	ISIslide	Win	True
364.223	0.25	Lose2	0.6667000000000001	0.0	Yes	2.827	0.023	n/a	GoodResponse	0	n/a	n/a	5	38	Cue	AvoidedLoss	True
364.474	3.95	Lose2	0.6667000000000001	0.0	Yes	2.827	0.001	n/a	GoodResponse	0	n/a	n/a	5	38	Fixation	AvoidedLoss	True
368.419	0.27	Lose2	0.6667000000000001	0.004	Yes	2.827	-0.004	2.0	GoodResponse	0	0.216	367.635	5	38	Target	AvoidedLoss	True
368.635	0.3	Lose2	0.6667000000000001	0.004	Yes	2.827	-0.004	2.0	GoodResponse	0	0.216	n/a	5	38	ButtonPress	AvoidedLoss	True
368.703	0.43	Lose2	0.6667000000000001	n/a	Yes	2.827	n/a	n/a	GoodResponse	0	n/a	n/a	5	38	Blank	AvoidedLoss	True
369.121	1.45	Lose2	0.6667000000000001	n/a	Yes	2.827	n/a	5.0	GoodResponse	0	0.026	368.147	5	38	Feedback	AvoidedLoss	True
370.575	2.827	Lose2	0.6667000000000001	n/a	Yes	2.827	n/a	n/a	GoodResponse	0	0.0	n/a	5	38	ISIslide	AvoidedLoss	True
373.417	0.25	Win2	0.675	0.0	Yes	2.983	0.017	n/a	GoodResponse	1	n/a	n/a	6	39	Cue	Win	True
373.668	4.1	Win2	0.675	0.0	Yes	2.983	0.001	n/a	GoodResponse	1	n/a	n/a	6	39	Fixation	Win	True
377.763	0.26	Win2	0.675	0.004	Yes	2.983	-0.004	2.0	GoodResponse	1	0.214	376.977	6	39	Target	Win	True
377.977	0.3	Win2	0.675	0.004	Yes	2.983	-0.004	2.0	GoodResponse	1	0.214	n/a	6	39	ButtonPress	Win	True
378.031	0.44	Win2	0.675	n/a	Yes	2.983	n/a	n/a	GoodResponse	1	n/a	n/a	6	39	Blank	Win	True
378.466	1.45	Win2	0.675	n/a	Yes	2.983	n/a	5.0	GoodResponse	1	0.047	377.513	6	39	Feedback	Win	True
379.92	2.983	Win2	0.675	n/a	Yes	2.983	n/a	n/a	GoodResponse	1	0.0	n/a	6	39	ISIslide	Win	True
382.929	0.25	Win2	0.6829000000000001	0.0	Yes	2.721	0.029	n/a	GoodResponse	1	n/a	n/a	7	40	Cue	Win	True
383.18	3.95	Win2	0.6829000000000001	0.0	Yes	2.721	0.001	n/a	GoodResponse	1	n/a	n/a	7	40	Fixation	Win	True
387.125	0.25	Win2	0.6829000000000001	0.004	Yes	2.721	-0.004	2.0	GoodResponse	1	0.224	386.349	7	40	Target	Win	True
387.349	0.3	Win2	0.6829000000000001	0.004	Yes	2.721	-0.004	2.0	GoodResponse	1	0.224	n/a	7	40	ButtonPress	Win	True
387.376	0.45	Win2	0.6829000000000001	n/a	Yes	2.721	n/a	n/a	GoodResponse	1	n/a	n/a	7	40	Blank	Win	True
387.827	1.45	Win2	0.6829000000000001	n/a	Yes	2.721	n/a	5.0	GoodResponse	1	0.005	386.832	7	40	Feedback	Win	True
389.281	2.721	Win2	0.6829000000000001	n/a	Yes	2.721	n/a	n/a	GoodResponse	1	0.0	n/a	7	40	ISIslide	Win	True
392.023	0.25	Win2	0.6905	0.0	Yes	2.777	0.023	n/a	GoodResponse	1	n/a	n/a	8	41	Cue	Win	True
392.274	3.9	Win2	0.6905	0.0	Yes	2.777	0.001	n/a	GoodResponse	1	n/a	n/a	8	41	Fixation	Win	True
396.169	0.24	Win2	0.6905	0.004	Yes	2.777	-0.004	2.0	GoodResponse	1	0.183	395.352	8	41	Target	Win	True
396.352	0.3	Win2	0.6905	0.004	Yes	2.777	-0.004	2.0	GoodResponse	1	0.183	n/a	8	41	ButtonPress	Win	True
396.419	0.46	Win2	0.6905	n/a	Yes	2.777	n/a	n/a	GoodResponse	1	n/a	n/a	8	41	Blank	Win	True
396.871	1.45	Win2	0.6905	n/a	Yes	2.777	n/a	5.0	GoodResponse	1	0.031	395.902	8	41	Feedback	Win	True
398.325	2.777	Win2	0.6905	n/a	Yes	2.777	n/a	n/a	GoodResponse	1	0.0	n/a	8	41	ISIslide	Win	True
401.117	0.25	Control	0.6744	0.0	No	2.933	0.017	n/a	NoResponse	0	n/a	n/a	8	42	Cue	Neutral	True
401.367	3.85	Control	0.6744	0.001	No	2.933	0.0	n/a	NoResponse	0	n/a	n/a	8	42	Fixation	Neutral	True
405.229	0.23	Control	0.6744	0.0	No	2.933	0.012	2.0	NoResponse	0	0.227	404.456	8	42	Target	Neutral	True
405.446	0.47	Control	0.6744	n/a	No	2.933	n/a	n/a	NoResponse	0	n/a	n/a	8	42	Blank	Neutral	True
405.456	0.3	Control	0.6744	0.0	No	2.933	0.012	2.0	NoResponse	0	0.227	n/a	8	42	ButtonPress	Neutral	True
405.914	1.45	Control	0.6744	n/a	No	2.933	n/a	5.0	NoResponse	0	0.013	404.927	8	42	Feedback	Neutral	True
407.369	2.933	Control	0.6744	n/a	No	2.933	n/a	n/a	NoResponse	0	0.0	n/a	8	42	ISIslide	Neutral	True
410.328	0.25	Win2	0.6591	0.0	No	3.172	0.028	n/a	LatePress	0	n/a	n/a	8	43	Cue	MissedWin	True
410.578	4.0	Win2	0.6591	0.0	No	3.172	0.0	n/a	LatePress	0	n/a	n/a	8	43	Fixation	MissedWin	True
414.574	0.22	Win2	0.6591	0.004	No	3.172	-0.004	2.0	LatePress	0	0.231	413.805	8	43	Target	MissedWin	True
414.805	0.3	Win2	0.6591	0.004	No	3.172	-0.004	2.0	LatePress	0	0.231	n/a	8	43	ButtonPress	MissedWin	True
414.808	0.48	Win2	0.6591	n/a	No	3.172	n/a	n/a	LatePress	0	n/a	n/a	8	43	Blank	MissedWin	True
415.276	1.45	Win2	0.6591	n/a	No	3.172	n/a	5.0	LatePress	0	0.017	414.293	8	43	Feedback	MissedWin	True
416.73	3.172	Win2	0.6591	n/a	No	3.172	n/a	n/a	LatePress	0	0.0	n/a	8	43	ISIslide	MissedWin	True
419.923	0.25	Win2	0.6667000000000001	0.0	Yes	2.977	0.023	n/a	GoodResponse	1	n/a	n/a	9	44	Cue	Win	True
420.174	4.0	Win2	0.6667000000000001	0.0	Yes	2.977	0.001	n/a	GoodResponse	1	n/a	n/a	9	44	Fixation	Win	True
424.169	0.22	Win2	0.6667000000000001	0.004	Yes	2.977	-0.004	2.0	GoodResponse	1	0.191	423.36	9	44	Target	Win	True
424.36	0.3	Win2	0.6667000000000001	0.004	Yes	2.977	-0.004	2.0	GoodResponse	1	0.191	n/a	9	44	ButtonPress	Win	True
424.403	0.48	Win2	0.6667000000000001	n/a	Yes	2.977	n/a	n/a	GoodResponse	1	n/a	n/a	9	44	Blank	Win	True
424.871	1.45	Win2	0.6667000000000001	n/a	Yes	2.977	n/a	5.0	GoodResponse	1	0.032	423.903	9	44	Feedback	Win	True
426.325	2.977	Win2	0.6667000000000001	n/a	Yes	2.977	n/a	n/a	GoodResponse	1	0.0	n/a	9	44	ISIslide	Win	True
429.318	0.25	Control	0.6739	0.0	Yes	2.882	0.018	n/a	GoodResponse	0	n/a	n/a	9	45	Cue	Neutral	True
429.569	4.1	Control	0.6739	0.0	Yes	2.882	0.001	n/a	GoodResponse	0	n/a	n/a	9	45	Fixation	Neutral	True
433.664	0.21	Control	0.6739	0.004	Yes	2.882	-0.004	2.0	GoodResponse	0	0.199	432.863	9	45	Target	Neutral	True
433.863	0.3	Control	0.6739	0.004	Yes	2.882	-0.004	2.0	GoodResponse	0	0.199	n/a	9	45	ButtonPress	Neutral	True
433.881	0.49	Control	0.6739	n/a	Yes	2.882	n/a	n/a	GoodResponse	0	n/a	n/a	9	45	Blank	Neutral	True
434.366	1.45	Control	0.6739	n/a	Yes	2.882	n/a	5.0	GoodResponse	0	0.049	433.415	9	45	Feedback	Neutral	True
435.821	2.882	Control	0.6739	n/a	Yes	2.882	n/a	n/a	GoodResponse	0	0.0	n/a	9	45	ISIslide	Neutral	True
438.729	0.25	Lose2	0.6809000000000001	0.0	Yes	3.371	0.029	n/a	GoodResponse	0	n/a	n/a	9	46	Cue	AvoidedLoss	True
438.98	4.0	Lose2	0.6809000000000001	0.0	Yes	3.371	0.001	n/a	GoodResponse	0	n/a	n/a	9	46	Fixation	AvoidedLoss	True
442.975	0.2	Lose2	0.6809000000000001	0.004	Yes	3.371	-0.004	2.0	GoodResponse	0	0.199	442.174	9	46	Target	AvoidedLoss	True
443.174	0.3	Lose2	0.6809000000000001	0.004	Yes	3.371	-0.004	2.0	GoodResponse	0	0.199	n/a	9	46	ButtonPress	AvoidedLoss	True
443.176	0.5	Lose2	0.6809000000000001	n/a	Yes	3.371	n/a	n/a	GoodResponse	0	n/a	n/a	9	46	Blank	AvoidedLoss	True
443.677	1.45	Lose2	0.6809000000000001	n/a	Yes	3.371	n/a	5.0	GoodResponse	0	0.006	442.683	9	46	Feedback	AvoidedLoss	True
445.132	3.371	Lose2	0.6809000000000001	n/a	Yes	3.371	n/a	n/a	GoodResponse	0	0.0	n/a	9	46	ISIslide	AvoidedLoss	True
448.525	0.25	Lose2	0.6667000000000001	0.0	No	2.675	0.025	n/a	NoResponse	-1	n/a	n/a	8	47	Cue	Loss	True
448.776	4.0	Lose2	0.6667000000000001	0.0	No	2.675	0.001	n/a	NoResponse	-1	n/a	n/a	8	47	Fixation	Loss	True
452.771	0.19	Lose2	0.6667000000000001	0.004	No	2.675	-0.004	2.0	NoResponse	-1	0.219	451.99	8	47	Target	Loss	True
452.972	0.51	Lose2	0.6667000000000001	n/a	No	2.675	n/a	n/a	NoResponse	-1	n/a	n/a	8	47	Blank	Loss	True
452.99	0.3	Lose2	0.6667000000000001	0.004	No	2.675	-0.004	2.0	NoResponse	-1	0.219	n/a	8	47	ButtonPress	Loss	True
453.473	1.45	Lose2	0.6667000000000001	n/a	No	2.675	n/a	5.0	NoResponse	-1	0.014	452.487	8	47	Feedback	Loss	True
454.928	2.675	Lose2	0.6667000000000001	n/a	No	2.675	n/a	n/a	NoResponse	-1	0.0	n/a	8	47	ISIslide	Loss	True
457.619	0.25	Lose2	0.6531	0.0	No	3.031	0.019	n/a	NoResponse	-1	n/a	n/a	7	48	Cue	Loss	True
457.87	3.95	Lose2	0.6531	0.0	No	3.031	0.001	n/a	NoResponse	-1	n/a	n/a	7	48	Fixation	Loss	True
461.815	0.18	Lose2	0.6531	0.004	No	3.031	-0.004	2.0	NoResponse	-1	0.201	461.016	7	48	Target	Loss	True
461.999	0.52	Lose2	0.6531	n/a	No	3.031	n/a	n/a	NoResponse	-1	n/a	n/a	7	48	Blank	Loss	True
462.016	0.3	Lose2	0.6531	0.004	No	3.031	-0.004	2.0	NoResponse	-1	0.201	n/a	7	48	ButtonPress	Loss	True
462.517	1.45	Lose2	0.6531	n/a	No	3.031	n/a	5.0	NoResponse	-1	0.044	461.561	7	48	Feedback	Loss	True
463.971	3.031	Lose2	0.6531	n/a	No	3.031	n/a	n/a	NoResponse	-1	0.0	n/a	7	48	ISIslide	Loss	True
467.014	0.25	Control	0.66	0.0	Yes	2.886	0.014	n/a	GoodResponse	0	n/a	n/a	7	49	Cue	Neutral	True
467.265	4.0	Control	0.66	0.0	Yes	2.886	0.001	n/a	GoodResponse	0	n/a	n/a	7	49	Fixation	Neutral	True
471.26	0.19	Control	0.66	0.004	Yes	2.886	-0.004	2.0	GoodResponse	0	0.144	470.404	7	49	Target	Neutral	True
471.404	0.3	Control	0.66	0.004	Yes	2.886	-0.004	2.0	GoodResponse	0	0.144	n/a	7	49	ButtonPress	Neutral	True
471.461	0.51	Control	0.66	n/a	Yes	2.886	n/a	n/a	GoodResponse	0	n/a	n/a	7	49	Blank	Neutral	True
471.962	1.45	Control	0.66	n/a	Yes	2.886	n/a	5.0	GoodResponse	0	0.013	470.975	7	49	Feedback	Neutral	True
473.416	2.886	Control	0.66	n/a	Yes	2.886	n/a	n/a	GoodResponse	0	0.0	n/a	7	49	ISIslide	Neutral	True
476.325	0.25	Control	0.6667000000000001	0.0	Yes	2.775	0.025	n/a	GoodResponse	0	n/a	n/a	7	50	Cue	Neutral	True
476.576	4.0	Control	0.6667000000000001	0.0	Yes	2.775	0.001	n/a	GoodResponse	0	n/a	n/a	7	50	Fixation	Neutral	True
480.571	0.19	Control	0.6667000000000001	0.004	Yes	2.775	-0.004	2.0	GoodResponse	0	0.181	479.752	7	50	Target	Neutral	True
480.752	0.3	Control	0.6667000000000001	0.004	Yes	2.775	-0.004	2.0	GoodResponse	0	0.181	n/a	7	50	ButtonPress	Neutral	True
480.772	0.51	Control	0.6667000000000001	n/a	Yes	2.775	n/a	n/a	GoodResponse	0	n/a	n/a	7	50	Blank	Neutral	True
481.273	1.45	Control	0.6667000000000001	n/a	Yes	2.775	n/a	5.0	GoodResponse	0	0.02	480.293	7	50	Feedback	Neutral	True
482.728	2.775	Control	0.6667000000000001	n/a	Yes	2.775	n/a	n/a	GoodResponse	0	0.0	n/a	7	50	ISIslide	Neutral	True
485.519	0.25	Control	0.6537999999999999	0.0	No	2.731	0.019	n/a	NoResponse	0	n/a	n/a	7	51	Cue	Neutral	True
485.77	3.95	Control	0.6537999999999999	0.0	No	2.731	0.001	n/a	NoResponse	0	n/a	n/a	7	51	Fixation	Neutral	True
489.715	0.18	Control	0.6537999999999999	0.004	No	2.731	-0.004	2.0	NoResponse	0	0.214	488.929	7	51	Target	Neutral	True
489.899	0.52	Control	0.6537999999999999	n/a	No	2.731	n/a	n/a	NoResponse	0	n/a	n/a	7	51	Blank	Neutral	True
489.929	0.3	Control	0.6537999999999999	0.004	No	2.731	-0.004	2.0	NoResponse	0	0.214	n/a	7	51	ButtonPress	Neutral	True
490.417	1.45	Control	0.6537999999999999	n/a	No	2.731	n/a	5.0	NoResponse	0	0.046	489.463	7	51	Feedback	Neutral	True
491.872	2.731	Control	0.6537999999999999	n/a	No	2.731	n/a	n/a	NoResponse	0	0.0	n/a	7	51	ISIslide	Neutral	True
494.613	0.25	Control	0.6604000000000001	0.0	Yes	2.637	0.013	n/a	GoodResponse	0	n/a	n/a	7	52	Cue	Neutral	True
494.864	4.05	Control	0.6604000000000001	0.0	Yes	2.637	0.001	n/a	GoodResponse	0	n/a	n/a	7	52	Fixation	Neutral	True
498.909	0.19	Control	0.6604000000000001	0.004	Yes	2.637	-0.004	2.0	GoodResponse	0	0.189	498.098	7	52	Target	Neutral	True
499.098	0.3	Control	0.6604000000000001	0.004	Yes	2.637	-0.004	2.0	GoodResponse	0	0.189	n/a	7	52	ButtonPress	Neutral	True
499.11	0.51	Control	0.6604000000000001	n/a	Yes	2.637	n/a	n/a	GoodResponse	0	n/a	n/a	7	52	Blank	Neutral	True
499.611	1.45	Control	0.6604000000000001	n/a	Yes	2.637	n/a	5.0	GoodResponse	0	0.022	498.633	7	52	Feedback	Neutral	True
501.066	2.637	Control	0.6604000000000001	n/a	Yes	2.637	n/a	n/a	GoodResponse	0	0.0	n/a	7	52	ISIslide	Neutral	True
503.724	0.25	Win2	0.6481	0.0	No	2.926	0.024	n/a	NoResponse	0	n/a	n/a	7	53	Cue	MissedWin	True
503.975	4.05	Win2	0.6481	0.0	No	2.926	0.001	n/a	NoResponse	0	n/a	n/a	7	53	Fixation	MissedWin	True
508.02	0.19	Win2	0.6481	0.004	No	2.926	-0.004	2.0	NoResponse	0	0.207	507.227	7	53	Target	MissedWin	True
508.221	0.51	Win2	0.6481	n/a	No	2.926	n/a	n/a	NoResponse	0	n/a	n/a	7	53	Blank	MissedWin	True
508.227	0.3	Win2	0.6481	0.004	No	2.926	-0.004	2.0	NoResponse	0	0.207	n/a	7	53	ButtonPress	MissedWin	True
508.722	1.45	Win2	0.6481	n/a	No	2.926	n/a	5.0	NoResponse	0	0.033	507.755	7	53	Feedback	MissedWin	True
510.176	2.926	Win2	0.6481	n/a	No	2.926	n/a	n/a	NoResponse	0	0.0	n/a	7	53	ISIslide	MissedWin	True
513.119	0.25	Win2	0.6364	0.0	No	2.731	0.019	n/a	NoResponse	0	n/a	n/a	7	54	Cue	MissedWin	True
513.369	3.95	Win2	0.6364	0.0	No	2.731	0.0	n/a	NoResponse	0	n/a	n/a	7	54	Fixation	MissedWin	True
517.331	0.2	Win2	0.6364	0.0	No	2.731	0.012	2.0	NoResponse	0	0.203	516.534	7	54	Target	MissedWin	True
517.515	0.5	Win2	0.6364	n/a	No	2.731	n/a	n/a	NoResponse	0	n/a	n/a	7	54	Blank	MissedWin	True
517.534	0.3	Win2	0.6364	0.0	No	2.731	0.012	2.0	NoResponse	0	0.203	n/a	7	54	ButtonPress	MissedWin	True
518.017	1.45	Win2	0.6364	n/a	No	2.731	n/a	5.0	NoResponse	0	0.007	517.024	7	54	Feedback	MissedWin	True
519.471	2.731	Win2	0.6364	n/a	No	2.731	n/a	n/a	NoResponse	0	0.0	n/a	7	54	ISIslide	MissedWin	True
522.229	0.25	Control	0.6429	0.0	Yes	3.021	0.029	n/a	GoodResponse	0	n/a	n/a	7	55	Cue	Neutral	True
522.48	3.95	Control	0.6429	0.0	Yes	3.021	0.001	n/a	GoodResponse	0	n/a	n/a	7	55	Fixation	Neutral	True
526.425	0.21	Control	0.6429	0.004	Yes	3.021	-0.004	2.0	GoodResponse	0	0.199	525.624	7	55	Target	Neutral	True
526.624	0.3	Control	0.6429	0.004	Yes	3.021	-0.004	2.0	GoodResponse	0	0.199	n/a	7	55	ButtonPress	Neutral	True
526.642	0.49	Control	0.6429	n/a	Yes	3.021	n/a	n/a	GoodResponse	0	n/a	n/a	7	55	Blank	Neutral	True
527.127	1.45	Control	0.6429	n/a	Yes	3.021	n/a	5.0	GoodResponse	0	0.019	526.146	7	55	Feedback	Neutral	True
528.582	3.021	Control	0.6429	n/a	Yes	3.021	n/a	n/a	GoodResponse	0	0.0	n/a	7	55	ISIslide	Neutral	True
531.624	0.25	Control	0.6491	0.0	Yes	2.826	0.024	n/a	GoodResponse	0	n/a	n/a	7	56	Cue	Neutral	True
531.875	3.95	Control	0.6491	0.0	Yes	2.826	0.001	n/a	GoodResponse	0	n/a	n/a	7	56	Fixation	Neutral	True
535.82	0.22	Control	0.6491	0.004	Yes	2.826	-0.004	2.0	GoodResponse	0	0.19	535.01	7	56	Target	Neutral	True
536.01	0.3	Control	0.6491	0.004	Yes	2.826	-0.004	2.0	GoodResponse	0	0.19	n/a	7	56	ButtonPress	Neutral	True
536.054	0.48	Control	0.6491	n/a	Yes	2.826	n/a	n/a	GoodResponse	0	n/a	n/a	7	56	Blank	Neutral	True
536.522	1.45	Control	0.6491	n/a	Yes	2.826	n/a	5.0	GoodResponse	0	0.039	535.561	7	56	Feedback	Neutral	True
537.976	2.826	Control	0.6491	n/a	Yes	2.826	n/a	n/a	GoodResponse	0	0.0	n/a	7	56	ISIslide	Neutral	True
540.818	0.25	Control	0.6552	0.0	Yes	3.482	0.018	n/a	GoodResponse	0	n/a	n/a	7	57	Cue	Neutral	True
541.069	4.0	Control	0.6552	0.0	Yes	3.482	0.001	n/a	GoodResponse	0	n/a	n/a	7	57	Fixation	Neutral	True
545.064	0.23	Control	0.6552	0.004	Yes	3.482	-0.004	2.0	GoodResponse	0	0.193	544.257	7	57	Target	Neutral	True
545.257	0.3	Control	0.6552	0.004	Yes	3.482	-0.004	2.0	GoodResponse	0	0.193	n/a	7	57	ButtonPress	Neutral	True
545.298	0.47	Control	0.6552	n/a	Yes	3.482	n/a	n/a	GoodResponse	0	n/a	n/a	7	57	Blank	Neutral	True
545.766	1.45	Control	0.6552	n/a	Yes	3.482	n/a	5.0	GoodResponse	0	0.014	544.78	7	57	Feedback	Neutral	True
547.221	3.482	Control	0.6552	n/a	Yes	3.482	n/a	n/a	GoodResponse	0	0.0	n/a	7	57	ISIslide	Neutral	True
550.714	0.25	Win2	0.6609999999999999	0.001	Yes	2.736	0.014	n/a	GoodResponse	1	n/a	n/a	8	58	Cue	Win	True
550.965	4.05	Win2	0.6609999999999999	0.0	Yes	2.736	0.001	n/a	GoodResponse	1	n/a	n/a	8	58	Fixation	Win	True
555.011	0.23	Win2	0.6609999999999999	0.003	Yes	2.736	-0.003	2.0	GoodResponse	1	0.209	554.22	8	58	Target	Win	True
555.22	0.3	Win2	0.6609999999999999	0.003	Yes	2.736	-0.003	2.0	GoodResponse	1	0.209	n/a	8	58	ButtonPress	Win	True
555.245	0.47	Win2	0.6609999999999999	n/a	Yes	2.736	n/a	n/a	GoodResponse	1	n/a	n/a	8	58	Blank	Win	True
555.713	1.45	Win2	0.6609999999999999	n/a	Yes	2.736	n/a	5.0	GoodResponse	1	0.018	554.731	8	58	Feedback	Win	True
557.167	2.736	Win2	0.6609999999999999	n/a	Yes	2.736	n/a	n/a	GoodResponse	1	0.0	n/a	8	58	ISIslide	Win	True
559.925	0.25	Lose2	0.6667000000000001	0.0	Yes	2.675	0.025	n/a	GoodResponse	0	n/a	n/a	8	59	Cue	AvoidedLoss	True
560.176	4.0	Lose2	0.6667000000000001	0.0	Yes	2.675	0.001	n/a	GoodResponse	0	n/a	n/a	8	59	Fixation	AvoidedLoss	True
564.171	0.23	Lose2	0.6667000000000001	0.004	Yes	2.675	-0.004	2.0	GoodResponse	0	0.189	563.36	8	59	Target	AvoidedLoss	True
564.36	0.3	Lose2	0.6667000000000001	0.004	Yes	2.675	-0.004	2.0	GoodResponse	0	0.189	n/a	8	59	ButtonPress	AvoidedLoss	True
564.405	0.47	Lose2	0.6667000000000001	n/a	Yes	2.675	n/a	n/a	GoodResponse	0	n/a	n/a	8	59	Blank	AvoidedLoss	True
564.874	1.45	Lose2	0.6667000000000001	n/a	Yes	2.675	n/a	5.0	GoodResponse	0	0.027	563.901	8	59	Feedback	AvoidedLoss	True
566.328	2.675	Lose2	0.6667000000000001	n/a	Yes	2.675	n/a	n/a	GoodResponse	0	0.0	n/a	8	59	ISIslide	AvoidedLoss	True
569.019	0.25	Control	0.6720999999999999	0.0	Yes	2.681	0.019	n/a	GoodResponse	0	n/a	n/a	8	60	Cue	Neutral	True
569.27	4.0	Control	0.6720999999999999	0.0	Yes	2.681	0.001	n/a	GoodResponse	0	n/a	n/a	8	60	Fixation	Neutral	True
573.265	0.22	Control	0.6720999999999999	0.004	Yes	2.681	-0.004	2.0	GoodResponse	0	0.203	572.468	8	60	Target	Neutral	True
573.468	0.3	Control	0.6720999999999999	0.004	Yes	2.681	-0.004	2.0	GoodResponse	0	0.203	n/a	8	60	ButtonPress	Neutral	True
573.499	0.48	Control	0.6720999999999999	n/a	Yes	2.681	n/a	n/a	GoodResponse	0	n/a	n/a	8	60	Blank	Neutral	True
573.967	1.45	Control	0.6720999999999999	n/a	Yes	2.681	n/a	5.0	GoodResponse	0	0.008	572.975	8	60	Feedback	Neutral	True
575.422	2.681	Control	0.6720999999999999	n/a	Yes	2.681	n/a	n/a	GoodResponse	0	0.0	n/a	8	60	ISIslide	Neutral	True
578.13	0.25	Lose2	0.6774	0.0	Yes	2.97	0.03	n/a	GoodResponse	0	n/a	n/a	8	61	Cue	AvoidedLoss	True
578.381	4.0	Lose2	0.6774	0.0	Yes	2.97	0.001	n/a	GoodResponse	0	n/a	n/a	8	61	Fixation	AvoidedLoss	True
582.376	0.21	Lose2	0.6774	0.004	Yes	2.97	-0.004	2.0	GoodResponse	0	0.179	581.555	8	61	Target	AvoidedLoss	True
582.555	0.3	Lose2	0.6774	0.004	Yes	2.97	-0.004	2.0	GoodResponse	0	0.179	n/a	8	61	ButtonPress	AvoidedLoss	True
582.593	0.49	Lose2	0.6774	n/a	Yes	2.97	n/a	n/a	GoodResponse	0	n/a	n/a	8	61	Blank	AvoidedLoss	True
583.078	1.45	Lose2	0.6774	n/a	Yes	2.97	n/a	5.0	GoodResponse	0	0.019	582.097	8	61	Feedback	AvoidedLoss	True
584.532	2.97	Lose2	0.6774	n/a	Yes	2.97	n/a	n/a	GoodResponse	0	0.0	n/a	8	61	ISIslide	AvoidedLoss	True
587.525	0.25	Lose2	0.6667000000000001	0.0	No	2.875	0.025	n/a	NoResponse	-1	n/a	n/a	7	62	Cue	Loss	True
587.775	3.9	Lose2	0.6667000000000001	0.0	No	2.875	0.0	n/a	NoResponse	-1	n/a	n/a	7	62	Fixation	Loss	True
591.687	0.2	Lose2	0.6667000000000001	0.0	No	2.875	0.012	2.0	NoResponse	-1	0.201	590.888	7	62	Target	Loss	True
591.871	0.5	Lose2	0.6667000000000001	n/a	No	2.875	n/a	n/a	NoResponse	-1	n/a	n/a	7	62	Blank	Loss	True
591.888	0.3	Lose2	0.6667000000000001	0.0	No	2.875	0.012	2.0	NoResponse	-1	0.201	n/a	7	62	ButtonPress	Loss	True
592.372	1.45	Lose2	0.6667000000000001	n/a	No	2.875	n/a	5.0	NoResponse	-1	0.042	591.414	7	62	Feedback	Loss	True
593.827	2.875	Lose2	0.6667000000000001	n/a	No	2.875	n/a	n/a	NoResponse	-1	0.0	n/a	7	62	ISIslide	Loss	True
596.719	0.25	Lose2	0.6562	0.0	No	2.631	0.019	n/a	NoResponse	-1	n/a	n/a	6	63	Cue	Loss	True
596.97	4.05	Lose2	0.6562	0.0	No	2.631	0.001	2.0	NoResponse	-1	4.041	600.011	6	63	Fixation	Loss	True
601.011	0.3	Lose2	0.6562	0.0	No	2.631	0.001	2.0	NoResponse	-1	4.041	n/a	6	63	ButtonPress	Loss	True
601.015	0.19	Lose2	0.6562	0.004	No	2.631	-0.004	n/a	NoResponse	-1	n/a	n/a	6	63	Target	Loss	True
601.216	0.51	Lose2	0.6562	n/a	No	2.631	n/a	n/a	NoResponse	-1	n/a	n/a	6	63	Blank	Loss	True
601.717	1.45	Lose2	0.6562	n/a	No	2.631	n/a	5.0	NoResponse	-1	0.013	600.73	6	63	Feedback	Loss	True
603.171	2.631	Lose2	0.6562	n/a	No	2.631	n/a	n/a	NoResponse	-1	0.0	n/a	6	63	ISIslide	Loss	True
605.829	0.25	Win2	0.6615000000000001	0.001	Yes	3.121	0.029	n/a	GoodResponse	1	n/a	n/a	7	64	Cue	Win	True
606.08	4.15	Win2	0.6615000000000001	0.0	Yes	3.121	0.001	n/a	GoodResponse	1	n/a	n/a	7	64	Fixation	Win	True
610.226	0.19	Win2	0.6615000000000001	0.003	Yes	3.121	-0.003	2.0	GoodResponse	1	0.183	609.409	7	64	Target	Win	True
610.409	0.3	Win2	0.6615000000000001	0.003	Yes	3.121	-0.003	2.0	GoodResponse	1	0.183	n/a	7	64	ButtonPress	Win	True
610.427	0.51	Win2	0.6615000000000001	n/a	Yes	3.121	n/a	n/a	GoodResponse	1	n/a	n/a	7	64	Blank	Win	True
610.928	1.45	Win2	0.6615000000000001	n/a	Yes	3.121	n/a	5.0	GoodResponse	1	0.022	609.95	7	64	Feedback	Win	True
612.382	3.121	Win2	0.6615000000000001	n/a	Yes	3.121	n/a	n/a	GoodResponse	1	0.0	n/a	7	64	ISIslide	Win	True
615.525	0.25	Control	0.6515000000000001	0.0	No	2.775	0.025	n/a	NoResponse	0	n/a	n/a	7	65	Cue	Neutral	True
615.776	4.0	Control	0.6515000000000001	0.0	No	2.775	0.001	n/a	NoResponse	0	n/a	n/a	7	65	Fixation	Neutral	True
619.771	0.19	Control	0.6515000000000001	0.004	No	2.775	-0.004	2.0	NoResponse	0	0.244	619.015	7	65	Target	Neutral	True
619.972	0.51	Control	0.6515000000000001	n/a	No	2.775	n/a	n/a	NoResponse	0	n/a	n/a	7	65	Blank	Neutral	True
620.015	0.3	Control	0.6515000000000001	0.004	No	2.775	-0.004	2.0	NoResponse	0	0.244	n/a	7	65	ButtonPress	Neutral	True
620.473	1.45	Control	0.6515000000000001	n/a	No	2.775	n/a	5.0	NoResponse	0	0.038	619.511	7	65	Feedback	Neutral	True
621.928	2.775	Control	0.6515000000000001	n/a	No	2.775	n/a	n/a	NoResponse	0	0.0	n/a	7	65	ISIslide	Neutral	True
624.719	0.25	Win2	0.6418	0.0	No	2.781	0.019	n/a	NoResponse	0	n/a	n/a	7	66	Cue	MissedWin	True
624.97	3.9	Win2	0.6418	0.0	No	2.781	0.001	n/a	NoResponse	0	n/a	n/a	7	66	Fixation	MissedWin	True
628.865	0.2	Win2	0.6418	0.004	No	2.781	-0.004	2.0	NoResponse	0	0.259	628.124	7	66	Target	MissedWin	True
629.066	0.5	Win2	0.6418	n/a	No	2.781	n/a	n/a	NoResponse	0	n/a	n/a	7	66	Blank	MissedWin	True
629.124	0.3	Win2	0.6418	0.004	No	2.781	-0.004	2.0	NoResponse	0	0.259	n/a	7	66	ButtonPress	MissedWin	True
629.567	1.45	Win2	0.6418	n/a	No	2.781	n/a	5.0	NoResponse	0	0.017	628.584	7	66	Feedback	MissedWin	True
631.022	2.781	Win2	0.6418	n/a	No	2.781	n/a	n/a	NoResponse	0	0.0	n/a	7	66	ISIslide	MissedWin	True
633.813	0.25	Control	0.6470999999999999	0.0	Yes	2.737	0.013	n/a	GoodResponse	0	n/a	n/a	7	67	Cue	Neutral	True
634.064	3.95	Control	0.6470999999999999	0.0	Yes	2.737	0.001	n/a	GoodResponse	0	n/a	n/a	7	67	Fixation	Neutral	True
638.009	0.21	Control	0.6470999999999999	0.004	Yes	2.737	-0.004	2.0	GoodResponse	0	0.182	637.191	7	67	Target	Neutral	True
638.191	0.3	Control	0.6470999999999999	0.004	Yes	2.737	-0.004	2.0	GoodResponse	0	0.182	n/a	7	67	ButtonPress	Neutral	True
638.226	0.49	Control	0.6470999999999999	n/a	Yes	2.737	n/a	n/a	GoodResponse	0	n/a	n/a	7	67	Blank	Neutral	True
638.711	1.45	Control	0.6470999999999999	n/a	Yes	2.737	n/a	5.0	GoodResponse	0	0.044	637.755	7	67	Feedback	Neutral	True
640.166	2.737	Control	0.6470999999999999	n/a	Yes	2.737	n/a	n/a	GoodResponse	0	0.0	n/a	7	67	ISIslide	Neutral	True
642.924	0.25	Win2	0.6522	0.0	Yes	3.076	0.024	n/a	GoodResponse	1	n/a	n/a	8	68	Cue	Win	True
643.175	4.0	Win2	0.6522	0.0	Yes	3.076	0.001	n/a	GoodResponse	1	n/a	n/a	8	68	Fixation	Win	True
647.17	0.22	Win2	0.6522	0.004	Yes	3.076	-0.004	2.0	GoodResponse	1	0.194	646.364	8	68	Target	Win	True
647.364	0.3	Win2	0.6522	0.004	Yes	3.076	-0.004	2.0	GoodResponse	1	0.194	n/a	8	68	ButtonPress	Win	True
647.404	0.48	Win2	0.6522	n/a	Yes	3.076	n/a	n/a	GoodResponse	1	n/a	n/a	8	68	Blank	Win	True
647.872	1.45	Win2	0.6522	n/a	Yes	3.076	n/a	5.0	GoodResponse	1	0.005	646.877	8	68	Feedback	Win	True
649.326	3.076	Win2	0.6522	n/a	Yes	3.076	n/a	n/a	GoodResponse	1	0.0	n/a	8	68	ISIslide	Win	True
652.419	0.25	Win2	0.6570999999999999	0.0	Yes	3.231	0.019	n/a	GoodResponse	1	n/a	n/a	9	69	Cue	Win	True
652.67	3.95	Win2	0.6570999999999999	0.0	Yes	3.231	0.001	n/a	GoodResponse	1	n/a	n/a	9	69	Fixation	Win	True
656.615	0.23	Win2	0.6570999999999999	0.004	Yes	3.231	-0.004	2.0	GoodResponse	1	0.225	655.84	9	69	Target	Win	True
656.84	0.3	Win2	0.6570999999999999	0.004	Yes	3.231	-0.004	2.0	GoodResponse	1	0.225	n/a	9	69	ButtonPress	Win	True
656.849	0.47	Win2	0.6570999999999999	n/a	Yes	3.231	n/a	n/a	GoodResponse	1	n/a	n/a	9	69	Blank	Win	True
657.317	1.45	Win2	0.6570999999999999	n/a	Yes	3.231	n/a	5.0	GoodResponse	1	0.023	656.34	9	69	Feedback	Win	True
658.771	3.231	Win2	0.6570999999999999	n/a	Yes	3.231	n/a	n/a	GoodResponse	1	0.0	n/a	9	69	ISIslide	Win	True
662.014	0.25	Lose2	0.662	0.0	Yes	3.036	0.014	n/a	GoodResponse	0	n/a	n/a	9	70	Cue	AvoidedLoss	True
662.265	4.05	Lose2	0.662	0.0	Yes	3.036	0.001	n/a	GoodResponse	0	n/a	n/a	9	70	Fixation	AvoidedLoss	True
666.31	0.23	Lose2	0.662	0.004	Yes	3.036	-0.004	2.0	GoodResponse	0	0.191	665.501	9	70	Target	AvoidedLoss	True
666.501	0.3	Lose2	0.662	0.004	Yes	3.036	-0.004	2.0	GoodResponse	0	0.191	n/a	9	70	ButtonPress	AvoidedLoss	True
666.545	0.47	Lose2	0.662	n/a	Yes	3.036	n/a	n/a	GoodResponse	0	n/a	n/a	9	70	Blank	AvoidedLoss	True
667.013	1.45	Lose2	0.662	n/a	Yes	3.036	n/a	5.0	GoodResponse	0	0.034	666.047	9	70	Feedback	AvoidedLoss	True
668.467	3.036	Lose2	0.662	n/a	Yes	3.036	n/a	n/a	GoodResponse	0	0.0	n/a	9	70	ISIslide	AvoidedLoss	True
671.526	0.25	Win2	0.6667000000000001	0.0	Yes	2.724	0.026	n/a	GoodResponse	1	n/a	n/a	10	71	Cue	Win	True
671.777	4.05	Win2	0.6667000000000001	0.0	Yes	2.724	0.001	n/a	GoodResponse	1	n/a	n/a	10	71	Fixation	Win	True
675.822	0.23	Win2	0.6667000000000001	0.004	Yes	2.724	-0.004	2.0	GoodResponse	1	0.184	675.006	10	71	Target	Win	True
676.006	0.3	Win2	0.6667000000000001	0.004	Yes	2.724	-0.004	2.0	GoodResponse	1	0.184	n/a	10	71	ButtonPress	Win	True
676.056	0.47	Win2	0.6667000000000001	n/a	Yes	2.724	n/a	n/a	GoodResponse	1	n/a	n/a	10	71	Blank	Win	True
676.524	1.45	Win2	0.6667000000000001	n/a	Yes	2.724	n/a	5.0	GoodResponse	1	0.035	675.559	10	71	Feedback	Win	True
677.979	2.724	Win2	0.6667000000000001	n/a	Yes	2.724	n/a	n/a	GoodResponse	1	0.0	n/a	10	71	ISIslide	Win	True
680.72	0.25	Win2	0.6575	0.0	No	2.78	0.02	n/a	LatePress	0	n/a	n/a	10	72	Cue	MissedWin	True
680.971	4.1	Win2	0.6575	0.0	No	2.78	0.001	n/a	LatePress	0	n/a	n/a	10	72	Fixation	MissedWin	True
685.067	0.22	Win2	0.6575	0.003	No	2.78	-0.003	2.0	LatePress	0	0.233	684.3	10	72	Target	MissedWin	True
685.3	0.3	Win2	0.6575	0.003	No	2.78	-0.003	2.0	LatePress	0	0.233	n/a	10	72	ButtonPress	MissedWin	True
685.301	0.48	Win2	0.6575	n/a	No	2.78	n/a	n/a	LatePress	0	n/a	n/a	10	72	Blank	MissedWin	True
685.769	1.45	Win2	0.6575	n/a	No	2.78	n/a	5.0	LatePress	0	0.01	684.779	10	72	Feedback	MissedWin	True
687.223	2.78	Win2	0.6575	n/a	No	2.78	n/a	n/a	LatePress	0	0.0	n/a	10	72	ISIslide	MissedWin	True
690.015	0.25	Win2	0.6622	0.0	Yes	2.685	0.015	n/a	GoodResponse	1	n/a	n/a	11	73	Cue	Win	True
690.266	4.0	Win2	0.6622	0.0	Yes	2.685	0.001	n/a	GoodResponse	1	n/a	n/a	11	73	Fixation	Win	True
694.261	0.22	Win2	0.6622	0.004	Yes	2.685	-0.004	2.0	GoodResponse	1	0.195	693.456	11	73	Target	Win	True
694.456	0.3	Win2	0.6622	0.004	Yes	2.685	-0.004	2.0	GoodResponse	1	0.195	n/a	11	73	ButtonPress	Win	True
694.495	0.48	Win2	0.6622	n/a	Yes	2.685	n/a	n/a	GoodResponse	1	n/a	n/a	11	73	Blank	Win	True
694.963	1.45	Win2	0.6622	n/a	Yes	2.685	n/a	5.0	GoodResponse	1	0.036	693.999	11	73	Feedback	Win	True
696.417	2.685	Win2	0.6622	n/a	Yes	2.685	n/a	n/a	GoodResponse	1	0.0	n/a	11	73	ISIslide	Win	True
699.125	0.25	Lose2	0.6667000000000001	0.0	Yes	2.625	0.025	n/a	GoodResponse	0	n/a	n/a	11	74	Cue	AvoidedLoss	True
699.376	4.05	Lose2	0.6667000000000001	0.0	Yes	2.625	0.001	n/a	GoodResponse	0	n/a	n/a	11	74	Fixation	AvoidedLoss	True
703.422	0.22	Lose2	0.6667000000000001	0.003	Yes	2.625	-0.003	2.0	GoodResponse	0	0.195	702.617	11	74	Target	AvoidedLoss	True
703.617	0.3	Lose2	0.6667000000000001	0.003	Yes	2.625	-0.003	2.0	GoodResponse	0	0.195	n/a	11	74	ButtonPress	AvoidedLoss	True
703.656	0.48	Lose2	0.6667000000000001	n/a	Yes	2.625	n/a	n/a	GoodResponse	0	n/a	n/a	11	74	Blank	AvoidedLoss	True
704.124	1.45	Lose2	0.6667000000000001	n/a	Yes	2.625	n/a	5.0	GoodResponse	0	0.044	703.168	11	74	Feedback	AvoidedLoss	True
705.578	2.625	Lose2	0.6667000000000001	n/a	Yes	2.625	n/a	n/a	GoodResponse	0	0.0	n/a	11	74	ISIslide	AvoidedLoss	True
708.219	0.25	Lose2	0.6711	0.0	Yes	2.931	0.019	n/a	GoodResponse	0	n/a	n/a	11	75	Cue	AvoidedLoss	True
708.47	3.95	Lose2	0.6711	0.0	Yes	2.931	0.001	n/a	GoodResponse	0	n/a	n/a	11	75	Fixation	AvoidedLoss	True
712.415	0.21	Lose2	0.6711	0.004	Yes	2.931	-0.004	2.0	GoodResponse	0	0.187	711.602	11	75	Target	AvoidedLoss	True
712.602	0.3	Lose2	0.6711	0.004	Yes	2.931	-0.004	2.0	GoodResponse	0	0.187	n/a	11	75	ButtonPress	AvoidedLoss	True
712.632	0.49	Lose2	0.6711	n/a	Yes	2.931	n/a	n/a	GoodResponse	0	n/a	n/a	11	75	Blank	AvoidedLoss	True
713.117	1.45	Lose2	0.6711	n/a	Yes	2.931	n/a	5.0	GoodResponse	0	0.027	712.144	11	75	Feedback	AvoidedLoss	True
714.572	2.931	Lose2	0.6711	n/a	Yes	2.931	n/a	n/a	GoodResponse	0	0.0	n/a	11	75	ISIslide	AvoidedLoss	True
717.514	0.25	Control	0.6623	0.0	No	3.236	0.014	n/a	NoResponse	0	n/a	n/a	11	76	Cue	Neutral	True
717.765	4.05	Control	0.6623	0.0	No	3.236	0.001	n/a	NoResponse	0	n/a	n/a	11	76	Fixation	Neutral	True
721.81	0.2	Control	0.6623	0.004	No	3.236	-0.004	2.0	NoResponse	0	0.218	721.028	11	76	Target	Neutral	True
722.011	0.5	Control	0.6623	n/a	No	3.236	n/a	n/a	NoResponse	0	n/a	n/a	11	76	Blank	Neutral	True
722.028	0.3	Control	0.6623	0.004	No	3.236	-0.004	2.0	NoResponse	0	0.218	n/a	11	76	ButtonPress	Neutral	True
722.512	1.45	Control	0.6623	n/a	No	3.236	n/a	5.0	NoResponse	0	0.047	721.559	11	76	Feedback	Neutral	True
723.966	3.236	Control	0.6623	n/a	No	3.236	n/a	n/a	NoResponse	0	0.0	n/a	11	76	ISIslide	Neutral	True
727.226	0.25	Lose2	0.6667000000000001	0.0	Yes	2.574	0.026	n/a	GoodResponse	0	n/a	n/a	11	77	Cue	AvoidedLoss	True
727.477	3.95	Lose2	0.6667000000000001	0.0	Yes	2.574	0.001	n/a	GoodResponse	0	n/a	n/a	11	77	Fixation	AvoidedLoss	True
731.422	0.2	Lose2	0.6667000000000001	0.004	Yes	2.574	-0.004	2.0	GoodResponse	0	0.182	730.604	11	77	Target	AvoidedLoss	True
731.604	0.3	Lose2	0.6667000000000001	0.004	Yes	2.574	-0.004	2.0	GoodResponse	0	0.182	n/a	11	77	ButtonPress	AvoidedLoss	True
731.623	0.5	Lose2	0.6667000000000001	n/a	Yes	2.574	n/a	n/a	GoodResponse	0	n/a	n/a	11	77	Blank	AvoidedLoss	True
732.124	1.45	Lose2	0.6667000000000001	n/a	Yes	2.574	n/a	5.0	GoodResponse	0	0.045	731.169	11	77	Feedback	AvoidedLoss	True
733.579	2.574	Lose2	0.6667000000000001	n/a	Yes	2.574	n/a	n/a	GoodResponse	0	0.0	n/a	11	77	ISIslide	AvoidedLoss	True
