onset	duration	cue_type	current_mean_accuracy	duration_error	is_hit	isi_adjusted	onset_delay	response	response_type	reward	rt	rt_time	total_reward	trial_number	trial_phase	trial_type	one_press
11.112	0.25	Control	1.0	0.0	Yes	2.938	0.012	n/a	GoodResponse	0	n/a	n/a	0	0	Cue	Neutral	True
11.363	3.85	Control	1.0	0.0	Yes	2.938	0.001	n/a	GoodResponse	0	n/a	n/a	0	0	Fixation	Neutral	True
15.207	0.4	Control	1.0	0.005	Yes	2.938	-0.005	2.0	GoodResponse	0	0.248	14.455	0	0	Target	Neutral	True
15.455	0.3	Control	1.0	0.005	Yes	2.938	-0.005	2.0	GoodResponse	0	0.248	n/a	0	0	ButtonPress	Neutral	True
15.609	0.3	Control	1.0	n/a	Yes	2.938	n/a	n/a	GoodResponse	0	n/a	n/a	0	0	Blank	Neutral	True
15.91	1.45	Control	1.0	n/a	Yes	2.938	n/a	5.0	GoodResponse	0	0.016	14.926	0	0	Feedback	Neutral	True
17.364	2.938	Control	1.0	n/a	Yes	2.938	n/a	n/a	GoodResponse	0	0.0	n/a	0	0	ISIslide	Neutral	True
20.323	0.25	Lose2	1.0	0.0	Yes	2.777	0.023	n/a	GoodResponse	0	n/a	n/a	0	1	Cue	AvoidedLoss	True
20.574	4.0	Lose2	1.0	0.0	Yes	2.777	0.001	n/a	GoodResponse	0	n/a	n/a	0	1	Fixation	AvoidedLoss	True
24.569	0.39	Lose2	1.0	0.004	Yes	2.777	-0.004	2.0	GoodResponse	0	0.219	23.788	0	1	Target	AvoidedLoss	True
24.788	0.3	Lose2	1.0	0.004	Yes	2.777	-0.004	2.0	GoodResponse	0	0.219	n/a	0	1	ButtonPress	AvoidedLoss	True
24.97	0.31	Lose2	1.0	n/a	Yes	2.777	n/a	n/a	GoodResponse	0	n/a	n/a	0	1	Blank	AvoidedLoss	True
25.271	1.45	Lose2	1.0	n/a	Yes	2.777	n/a	5.0	GoodResponse	0	0.021	24.292	0	1	Feedback	AvoidedLoss	True
26.725	2.777	Lose2	1.0	n/a	Yes	2.777	n/a	n/a	GoodResponse	0	0.0	n/a	0	1	ISIslide	AvoidedLoss	True
29.517	0.25	Control	1.0	0.0	Yes	2.583	0.017	n/a	GoodResponse	0	n/a	n/a	0	2	Cue	Neutral	True
29.768	4.1	Control	1.0	0.0	Yes	2.583	0.001	n/a	GoodResponse	0	n/a	n/a	0	2	Fixation	Neutral	True
33.863	0.38	Control	1.0	0.004	Yes	2.583	-0.004	2.0	GoodResponse	0	0.204	33.067	0	2	Target	Neutral	True
34.067	0.3	Control	1.0	0.004	Yes	2.583	-0.004	2.0	GoodResponse	0	0.204	n/a	0	2	ButtonPress	Neutral	True
34.248	0.32	Control	1.0	n/a	Yes	2.583	n/a	n/a	GoodResponse	0	n/a	n/a	0	2	Blank	Neutral	True
34.565	1.45	Control	1.0	n/a	Yes	2.583	n/a	5.0	GoodResponse	0	0.044	33.609	0	2	Feedback	Neutral	True
36.02	2.583	Control	1.0	n/a	Yes	2.583	n/a	n/a	GoodResponse	0	0.0	n/a	0	2	ISIslide	Neutral	True
38.628	0.25	Win2	1.0	0.0	Yes	2.822	0.028	n/a	GoodResponse	1	n/a	n/a	1	3	Cue	Win	True
38.878	3.95	Win2	1.0	0.0	Yes	2.822	0.0	n/a	GoodResponse	1	n/a	n/a	1	3	Fixation	Win	True
42.84	0.37	Win2	1.0	0.0	Yes	2.822	0.012	2.0	GoodResponse	1	0.192	42.032	1	3	Target	Win	True
43.032	0.3	Win2	1.0	0.0	Yes	2.822	0.012	2.0	GoodResponse	1	0.192	n/a	1	3	ButtonPress	Win	True
43.208	0.33	Win2	1.0	n/a	Yes	2.822	n/a	n/a	GoodResponse	1	n/a	n/a	1	3	Blank	Win	True
43.525	1.45	Win2	1.0	n/a	Yes	2.822	n/a	5.0	GoodResponse	1	0.01	42.535	1	3	Feedback	Win	True
44.98	2.822	Win2	1.0	n/a	Yes	2.822	n/a	n/a	GoodResponse	1	0.0	n/a	1	3	ISIslide	Win	True
47.822	0.25	Win2	1.0	0.0	Yes	3.278	0.022	n/a	GoodResponse	1	n/a	n/a	2	4	Cue	Win	True
48.072	4.0	Win2	1.0	0.001	Yes	3.278	0.0	n/a	GoodResponse	1	n/a	n/a	2	4	Fixation	Win	True
52.068	0.36	Win2	1.0	0.004	Yes	3.278	-0.004	2.0	GoodResponse	1	0.204	51.272	2	4	Target	Win	True
52.272	0.3	Win2	1.0	0.004	Yes	3.278	-0.004	2.0	GoodResponse	1	0.204	n/a	2	4	ButtonPress	Win	True
52.435	0.34	Win2	1.0	n/a	Yes	3.278	n/a	n/a	GoodResponse	1	n/a	n/a	2	4	Blank	Win	True
52.77	1.45	Win2	1.0	n/a	Yes	3.278	n/a	5.0	GoodResponse	1	0.033	51.803	2	4	Feedback	Win	True
54.224	3.278	Win2	1.0	n/a	Yes	3.278	n/a	n/a	GoodResponse	1	0.0	n/a	2	4	ISIslide	Win	True
57.517	0.25	Win2	1.0	0.0	Yes	2.783	0.017	n/a	GoodResponse	1	n/a	n/a	3	5	Cue	Win	True
57.768	4.0	Win2	1.0	0.0	Yes	2.783	0.001	n/a	GoodResponse	1	n/a	n/a	3	5	Fixation	Win	True
61.763	0.35	Win2	1.0	0.004	Yes	2.783	-0.004	2.0	GoodResponse	1	0.203	60.966	3	5	Target	Win	True
61.966	0.3	Win2	1.0	0.004	Yes	2.783	-0.004	2.0	GoodResponse	1	0.203	n/a	3	5	ButtonPress	Win	True
62.114	0.35	Win2	1.0	n/a	Yes	2.783	n/a	n/a	GoodResponse	1	n/a	n/a	3	5	Blank	Win	True
62.465	1.45	Win2	1.0	n/a	Yes	2.783	n/a	5.0	GoodResponse	1	0.046	61.511	3	5	Feedback	Win	True
63.92	2.783	Win2	1.0	n/a	Yes	2.783	n/a	n/a	GoodResponse	1	0.0	n/a	3	5	ISIslide	Win	True
66.728	0.25	Lose2	1.0	0.0	Yes	2.722	0.028	n/a	GoodResponse	0	n/a	n/a	3	6	Cue	AvoidedLoss	True
66.979	3.95	Lose2	1.0	0.0	Yes	2.722	0.001	n/a	GoodResponse	0	n/a	n/a	3	6	Fixation	AvoidedLoss	True
70.924	0.34	Lose2	1.0	0.004	Yes	2.722	-0.004	2.0	GoodResponse	0	0.211	70.135	3	6	Target	AvoidedLoss	True
71.135	0.3	Lose2	1.0	0.004	Yes	2.722	-0.004	2.0	GoodResponse	0	0.211	n/a	3	6	ButtonPress	AvoidedLoss	True
71.275	0.36	Lose2	1.0	n/a	Yes	2.722	n/a	n/a	GoodResponse	0	n/a	n/a	3	6	Blank	AvoidedLoss	True
71.626	1.45	Lose2	1.0	n/a	Yes	2.722	n/a	5.0	GoodResponse	0	0.007	70.633	3	6	Feedback	AvoidedLoss	True
73.081	2.722	Lose2	1.0	n/a	Yes	2.722	n/a	n/a	GoodResponse	0	0.0	n/a	3	6	ISIslide	AvoidedLoss	True
75.822	0.25	Lose2	1.0	0.0	Yes	4.028	0.022	n/a	GoodResponse	0	n/a	n/a	3	7	Cue	AvoidedLoss	True
76.073	4.05	Lose2	1.0	0.0	Yes	4.028	0.001	n/a	GoodResponse	0	n/a	n/a	3	7	Fixation	AvoidedLoss	True
80.118	0.33	Lose2	1.0	0.004	Yes	4.028	-0.004	2.0	GoodResponse	0	0.21	79.328	3	7	Target	AvoidedLoss	True
80.328	0.3	Lose2	1.0	0.004	Yes	4.028	-0.004	2.0	GoodResponse	0	0.21	n/a	3	7	ButtonPress	AvoidedLoss	True
80.453	0.37	Lose2	1.0	n/a	Yes	4.028	n/a	n/a	GoodResponse	0	n/a	n/a	3	7	Blank	AvoidedLoss	True
80.82	1.45	Lose2	1.0	n/a	Yes	4.028	n/a	5.0	GoodResponse	0	0.032	79.852	3	7	Feedback	AvoidedLoss	True
82.275	4.028	Lose2	1.0	n/a	Yes	4.028	n/a	n/a	GoodResponse	0	0.0	n/a	3	7	ISIslide	AvoidedLoss	True
86.32	0.25	Lose2	1.0	0.0	Yes	3.03	0.02	n/a	GoodResponse	0	n/a	n/a	3	8	Cue	AvoidedLoss	True
86.571	3.95	Lose2	1.0	0.0	Yes	3.03	0.001	n/a	GoodResponse	0	n/a	n/a	3	8	Fixation	AvoidedLoss	True
90.516	0.32	Lose2	1.0	0.004	Yes	3.03	-0.004	2.0	GoodResponse	0	0.19	89.706	3	8	Target	AvoidedLoss	True
90.706	0.3	Lose2	1.0	0.004	Yes	3.03	-0.004	2.0	GoodResponse	0	0.19	n/a	3	8	ButtonPress	AvoidedLoss	True
90.85	0.38	Lose2	1.0	n/a	Yes	3.03	n/a	n/a	GoodResponse	0	n/a	n/a	3	8	Blank	AvoidedLoss	True
91.218	1.45	Lose2	1.0	n/a	Yes	3.03	n/a	5.0	GoodResponse	0	0.024	90.242	3	8	Feedback	AvoidedLoss	True
92.672	3.03	Lose2	1.0	n/a	Yes	3.03	n/a	n/a	GoodResponse	0	0.0	n/a	3	8	ISIslide	AvoidedLoss	True
95.715	0.25	Lose2	1.0	0.0	Yes	3.135	0.015	n/a	GoodResponse	0	n/a	n/a	3	9	Cue	AvoidedLoss	True
95.966	3.95	Lose2	1.0	0.0	Yes	3.135	0.001	n/a	GoodResponse	0	n/a	n/a	3	9	Fixation	AvoidedLoss	True
99.911	0.31	Lose2	1.0	0.004	Yes	3.135	-0.004	2.0	GoodResponse	0	0.215	99.126	3	9	Target	AvoidedLoss	True
100.126	0.3	Lose2	1.0	0.004	Yes	3.135	-0.004	2.0	GoodResponse	0	0.215	n/a	3	9	ButtonPress	AvoidedLoss	True
100.228	0.39	Lose2	1.0	n/a	Yes	3.135	n/a	n/a	GoodResponse	0	n/a	n/a	3	9	Blank	AvoidedLoss	True
100.613	1.45	Lose2	1.0	n/a	Yes	3.135	n/a	5.0	GoodResponse	0	0.043	99.656	3	9	Feedback	AvoidedLoss	True
102.067	3.135	Lose2	1.0	n/a	Yes	3.135	n/a	n/a	GoodResponse	0	0.0	n/a	3	9	ISIslide	AvoidedLoss	True
105.227	0.25	Control	1.0	0.0	Yes	3.273	0.027	n/a	GoodResponse	0	n/a	n/a	3	10	Cue	Neutral	True
105.477	4.0	Control	1.0	0.0	Yes	3.273	0.0	n/a	GoodResponse	0	n/a	n/a	3	10	Fixation	Neutral	True
109.473	0.3	Control	1.0	0.004	Yes	3.273	-0.004	2.0	GoodResponse	0	0.226	108.699	3	10	Target	Neutral	True
109.699	0.3	Control	1.0	0.004	Yes	3.273	-0.004	2.0	GoodResponse	0	0.226	n/a	3	10	ButtonPress	Neutral	True
109.774	0.4	Control	1.0	n/a	Yes	3.273	n/a	n/a	GoodResponse	0	n/a	n/a	3	10	Blank	Neutral	True
110.175	1.45	Control	1.0	n/a	Yes	3.273	n/a	5.0	GoodResponse	0	0.042	109.217	3	10	Feedback	Neutral	True
111.629	3.273	Control	1.0	n/a	Yes	3.273	n/a	n/a	GoodResponse	0	0.0	n/a	3	10	ISIslide	Neutral	True
114.922	0.25	Lose2	1.0	0.0	Yes	2.728	0.022	n/a	GoodResponse	0	n/a	n/a	3	11	Cue	AvoidedLoss	True
115.173	4.05	Lose2	1.0	0.0	Yes	2.728	0.001	n/a	GoodResponse	0	n/a	n/a	3	11	Fixation	AvoidedLoss	True
119.218	0.29	Lose2	1.0	0.004	Yes	2.728	-0.004	2.0	GoodResponse	0	0.243	118.461	3	11	Target	AvoidedLoss	True
119.461	0.3	Lose2	1.0	0.004	Yes	2.728	-0.004	2.0	GoodResponse	0	0.243	n/a	3	11	ButtonPress	AvoidedLoss	True
119.519	0.41	Lose2	1.0	n/a	Yes	2.728	n/a	n/a	GoodResponse	0	n/a	n/a	3	11	Blank	AvoidedLoss	True
119.921	1.45	Lose2	1.0	n/a	Yes	2.728	n/a	5.0	GoodResponse	0	0.007	118.928	3	11	Feedback	AvoidedLoss	True
121.375	2.728	Lose2	1.0	n/a	Yes	2.728	n/a	n/a	GoodResponse	0	0.0	n/a	3	11	ISIslide	AvoidedLoss	True
124.116	0.25	Control	1.0	0.001	Yes	2.984	0.016	n/a	GoodResponse	0	n/a	n/a	3	12	Cue	Neutral	True
124.367	3.9	Control	1.0	0.0	Yes	2.984	0.001	n/a	GoodResponse	0	n/a	n/a	3	12	Fixation	Neutral	True
128.262	0.28	Control	1.0	0.004	Yes	2.984	-0.004	2.0	GoodResponse	0	0.271	127.533	3	12	Target	Neutral	True
128.533	0.3	Control	1.0	0.004	Yes	2.984	-0.004	2.0	GoodResponse	0	0.271	n/a	3	12	ButtonPress	Neutral	True
128.546	0.42	Control	1.0	n/a	Yes	2.984	n/a	n/a	GoodResponse	0	n/a	n/a	3	12	Blank	Neutral	True
128.964	1.45	Control	1.0	n/a	Yes	2.984	n/a	5.0	GoodResponse	0	0.033	127.997	3	12	Feedback	Neutral	True
130.419	2.984	Control	1.0	n/a	Yes	2.984	n/a	n/a	GoodResponse	0	0.0	n/a	3	12	ISIslide	Neutral	True
133.428	0.25	Control	1.0	0.0	Yes	2.772	0.028	n/a	GoodResponse	0	n/a	n/a	3	13	Cue	Neutral	False
133.678	4.0	Control	1.0	0.0	Yes	2.772	0.0	2.0	GoodResponse	0	3.774	136.452	3	13	Fixation	Neutral	False
137.452	0.3	Control	1.0	0.0	Yes	2.772	0.0	2.0	GoodResponse	0	3.774	n/a	3	13	ButtonPress	Neutral	False
137.674	0.27	Control	1.0	0.004	Yes	2.772	-0.004	2.0	GoodResponse	0	0.268	136.942	3	13	Target	Neutral	False
137.942	0.3	Control	1.0	0.004	Yes	2.772	-0.004	2.0	GoodResponse	0	0.268	n/a	3	13	ButtonPress	Neutral	False
137.958	0.43	Control	1.0	n/a	Yes	2.772	n/a	n/a	GoodResponse	0	n/a	n/a	3	13	Blank	Neutral	False
138.376	1.45	Control	1.0	n/a	Yes	2.772	n/a	5.0	GoodResponse	0	0.036	137.412	3	13	Feedback	Neutral	False
139.83	2.772	Control	1.0	n/a	Yes	2.772	n/a	n/a	GoodResponse	0	0.0	n/a	3	13	ISIslide	Neutral	False
142.622	0.25	Win2	1.0	0.0	Yes	2.678	0.022	n/a	GoodResponse	1	n/a	n/a	4	14	Cue	Win	True
142.873	4.1	Win2	1.0	0.0	Yes	2.678	0.001	n/a	GoodResponse	1	n/a	n/a	4	14	Fixation	Win	True
146.968	0.26	Win2	1.0	0.004	Yes	2.678	-0.004	2.0	GoodResponse	1	0.226	146.194	4	14	Target	Win	True
147.194	0.3	Win2	1.0	0.004	Yes	2.678	-0.004	2.0	GoodResponse	1	0.226	n/a	4	14	ButtonPress	Win	True
147.236	0.44	Win2	1.0	n/a	Yes	2.678	n/a	n/a	GoodResponse	1	n/a	n/a	4	14	Blank	Win	True
147.67	1.45	Win2	1.0	n/a	Yes	2.678	n/a	5.0	GoodResponse	1	0.01	146.68	4	14	Feedback	Win	True
149.125	2.678	Win2	1.0	n/a	Yes	2.678	n/a	n/a	GoodResponse	1	0.0	n/a	4	14	ISIslide	Win	True
151.816	0.25	Control	0.9375	0.0	No	2.984	0.016	n/a	PrematurePress	0	n/a	n/a	4	15	Cue	Neutral	False
152.067	4.0	Control	0.9375	0.0	No	2.984	0.001	2.0	PrematurePress	0	3.719	154.786	4	15	Fixation	Neutral	False
155.786	0.3	Control	0.9375	0.0	No	2.984	0.001	2.0	PrematurePress	0	3.719	n/a	4	15	ButtonPress	Neutral	False
156.062	0.25	Control	0.9375	0.004	No	2.984	-0.004	2.0	PrematurePress	0	0.093	155.155	4	15	Target	Neutral	False
156.155	0.3	Control	0.9375	0.004	No	2.984	-0.004	2.0	PrematurePress	0	0.093	n/a	4	15	ButtonPress	Neutral	False
156.313	0.45	Control	0.9375	n/a	No	2.984	n/a	n/a	PrematurePress	0	n/a	n/a	4	15	Blank	Neutral	False
156.764	1.45	Control	0.9375	n/a	No	2.984	n/a	5.0	PrematurePress	0	0.038	155.802	4	15	Feedback	Neutral	False
158.218	2.984	Control	0.9375	n/a	No	2.984	n/a	n/a	PrematurePress	0	0.0	n/a	4	15	ISIslide	Neutral	False
161.227	0.25	Win2	0.9412	0.0	Yes	2.873	0.027	n/a	GoodResponse	1	n/a	n/a	5	16	Cue	Win	True
161.478	4.0	Win2	0.9412	0.0	Yes	2.873	0.001	n/a	GoodResponse	1	n/a	n/a	5	16	Fixation	Win	True
165.473	0.24	Win2	0.9412	0.004	Yes	2.873	-0.004	2.0	GoodResponse	1	0.237	164.71	5	16	Target	Win	True
165.71	0.3	Win2	0.9412	0.004	Yes	2.873	-0.004	2.0	GoodResponse	1	0.237	n/a	5	16	ButtonPress	Win	True
165.724	0.46	Win2	0.9412	n/a	Yes	2.873	n/a	n/a	GoodResponse	1	n/a	n/a	5	16	Blank	Win	True
166.176	1.45	Win2	0.9412	n/a	Yes	2.873	n/a	5.0	GoodResponse	1	0.041	165.217	5	16	Feedback	Win	True
167.63	2.873	Win2	0.9412	n/a	Yes	2.873	n/a	n/a	GoodResponse	1	0.0	n/a	5	16	ISIslide	Win	True
170.522	0.25	Lose2	0.9444	0.0	Yes	2.728	0.022	n/a	GoodResponse	0	n/a	n/a	5	17	Cue	AvoidedLoss	True
170.773	3.95	Lose2	0.9444	0.0	Yes	2.728	0.001	n/a	GoodResponse	0	n/a	n/a	5	17	Fixation	AvoidedLoss	True
174.718	0.23	Lose2	0.9444	0.004	Yes	2.728	-0.004	2.0	GoodResponse	0	0.204	173.922	5	17	Target	AvoidedLoss	True
174.922	0.3	Lose2	0.9444	0.004	Yes	2.728	-0.004	2.0	GoodResponse	0	0.204	n/a	5	17	ButtonPress	AvoidedLoss	True
174.952	0.47	Lose2	0.9444	n/a	Yes	2.728	n/a	n/a	GoodResponse	0	n/a	n/a	5	17	Blank	AvoidedLoss	True
175.42	1.45	Lose2	0.9444	n/a	Yes	2.728	n/a	5.0	GoodResponse	0	0.016	174.436	5	17	Feedback	AvoidedLoss	True
176.874	2.728	Lose2	0.9444	n/a	Yes	2.728	n/a	n/a	GoodResponse	0	0.0	n/a	5	17	ISIslide	AvoidedLoss	True
179.616	0.25	Lose2	0.8946999999999999	0.0	No	2.734	0.016	n/a	PrematurePress	-1	n/a	n/a	4	18	Cue	Loss	True
179.866	4.05	Lose2	0.8946999999999999	0.001	No	2.734	0.0	n/a	PrematurePress	-1	n/a	n/a	4	18	Fixation	Loss	True
183.912	0.22	Lose2	0.8946999999999999	0.004	No	2.734	-0.004	2.0	PrematurePress	-1	0.069	182.981	4	18	Target	Loss	True
183.981	0.3	Lose2	0.8946999999999999	0.004	No	2.734	-0.004	2.0	PrematurePress	-1	0.069	n/a	4	18	ButtonPress	Loss	True
184.146	0.48	Lose2	0.8946999999999999	n/a	No	2.734	n/a	n/a	PrematurePress	-1	n/a	n/a	4	18	Blank	Loss	True
184.614	1.45	Lose2	0.8946999999999999	n/a	No	2.734	n/a	5.0	PrematurePress	-1	0.041	183.655	4	18	Feedback	Loss	True
186.068	2.734	Lose2	0.8946999999999999	n/a	No	2.734	n/a	n/a	PrematurePress	-1	0.0	n/a	4	18	ISIslide	Loss	True
188.827	0.25	Control	0.85	0.0	No	2.923	0.027	n/a	NoResponse	0	n/a	n/a	4	19	Cue	Neutral	True
189.077	3.95	Control	0.85	0.0	No	2.923	0.0	n/a	NoResponse	0	n/a	n/a	4	19	Fixation	Neutral	True
193.039	0.21	Control	0.85	0.0	No	2.923	0.012	2.0	NoResponse	0	0.249	192.288	4	19	Target	Neutral	True
193.24	0.49	Control	0.85	n/a	No	2.923	n/a	n/a	NoResponse	0	n/a	n/a	4	19	Blank	Neutral	True
193.288	0.3	Control	0.85	0.0	No	2.923	0.012	2.0	NoResponse	0	0.249	n/a	4	19	ButtonPress	Neutral	True
193.725	1.45	Control	0.85	n/a	No	2.923	n/a	5.0	NoResponse	0	0.007	192.732	4	19	Feedback	Neutral	True
195.179	2.923	Control	0.85	n/a	No	2.923	n/a	n/a	NoResponse	0	0.0	n/a	4	19	ISIslide	Neutral	True
198.121	0.25	Control	0.8095	0.0	No	2.629	0.021	n/a	LatePress	0	n/a	n/a	4	20	Cue	Neutral	True
198.372	4.05	Control	0.8095	0.0	No	2.629	0.001	n/a	LatePress	0	n/a	n/a	4	20	Fixation	Neutral	True
202.417	0.2	Control	0.8095	0.004	No	2.629	-0.004	2.0	LatePress	0	0.201	201.618	4	20	Target	Neutral	True
202.618	0.5	Control	0.8095	n/a	No	2.629	n/a	n/a	LatePress	0	n/a	n/a	4	20	Blank	Neutral	True
202.618	0.3	Control	0.8095	0.004	No	2.629	-0.004	2.0	LatePress	0	0.201	n/a	4	20	ButtonPress	Neutral	True
203.119	1.45	Control	0.8095	n/a	No	2.629	n/a	5.0	LatePress	0	0.024	202.143	4	20	Feedback	Neutral	True
204.574	2.629	Control	0.8095	n/a	No	2.629	n/a	n/a	LatePress	0	0.0	n/a	4	20	ISIslide	Neutral	True
207.215	0.25	Control	0.7726999999999999	0.0	No	2.785	0.015	n/a	NoResponse	0	n/a	n/a	4	21	Cue	Neutral	True
207.466	4.1	Control	0.7726999999999999	0.0	No	2.785	0.001	n/a	NoResponse	0	n/a	n/a	4	21	Fixation	Neutral	True
211.561	0.19	Control	0.7726999999999999	0.004	No	2.785	-0.004	2.0	NoResponse	0	0.268	210.829	4	21	Target	Neutral	True
211.762	0.51	Control	0.7726999999999999	n/a	No	2.785	n/a	n/a	NoResponse	0	n/a	n/a	4	21	Blank	Neutral	True
211.829	0.3	Control	0.7726999999999999	0.004	No	2.785	-0.004	2.0	NoResponse	0	0.268	n/a	4	21	ButtonPress	Neutral	True
212.263	1.45	Control	0.7726999999999999	n/a	No	2.785	n/a	5.0	NoResponse	0	0.002	211.265	4	21	Feedback	Neutral	True
213.718	2.785	Control	0.7726999999999999	n/a	No	2.785	n/a	n/a	NoResponse	0	0.0	n/a	4	21	ISIslide	Neutral	True
216.526	0.25	Control	0.7391	0.0	No	2.774	0.026	n/a	NoResponse	0	n/a	n/a	4	22	Cue	Neutral	True
216.777	4.0	Control	0.7391	0.0	No	2.774	0.001	n/a	NoResponse	0	n/a	n/a	4	22	Fixation	Neutral	True
220.772	0.18	Control	0.7391	0.004	No	2.774	-0.004	2.0	NoResponse	0	0.223	219.995	4	22	Target	Neutral	True
220.956	0.52	Control	0.7391	n/a	No	2.774	n/a	n/a	NoResponse	0	n/a	n/a	4	22	Blank	Neutral	True
220.995	0.3	Control	0.7391	0.004	No	2.774	-0.004	2.0	NoResponse	0	0.223	n/a	4	22	ButtonPress	Neutral	True
221.474	1.45	Control	0.7391	n/a	No	2.774	n/a	5.0	NoResponse	0	0.01	220.484	4	22	Feedback	Neutral	True
222.929	2.774	Control	0.7391	n/a	No	2.774	n/a	n/a	NoResponse	0	0.0	n/a	4	22	ISIslide	Neutral	True
225.72	0.25	Control	0.7082999999999999	0.0	No	2.78	0.02	n/a	NoResponse	0	n/a	n/a	4	23	Cue	Neutral	True
225.971	3.9	Control	0.7082999999999999	0.0	No	2.78	0.001	n/a	NoResponse	0	n/a	n/a	4	23	Fixation	Neutral	True
229.866	0.17	Control	0.7082999999999999	0.004	No	2.78	-0.004	2.0	NoResponse	0	0.215	229.081	4	23	Target	Neutral	True
230.05	0.53	Control	0.7082999999999999	n/a	No	2.78	n/a	n/a	NoResponse	0	n/a	n/a	4	23	Blank	Neutral	True
230.081	0.3	Control	0.7082999999999999	0.004	No	2.78	-0.004	2.0	NoResponse	0	0.215	n/a	4	23	ButtonPress	Neutral	True
230.568	1.45	Control	0.7082999999999999	n/a	No	2.78	n/a	5.0	NoResponse	0	0.038	229.606	4	23	Feedback	Neutral	True
232.022	2.78	Control	0.7082999999999999	n/a	No	2.78	n/a	n/a	NoResponse	0	0.0	n/a	4	23	ISIslide	Neutral	True
234.831	0.25	Win2	0.68	0.0	No	3.119	0.031	n/a	NoResponse	0	n/a	n/a	4	24	Cue	MissedWin	True
235.082	3.95	Win2	0.68	0.0	No	3.119	0.001	n/a	NoResponse	0	n/a	n/a	4	24	Fixation	MissedWin	True
239.027	0.16	Win2	0.68	0.004	No	3.119	-0.004	2.0	NoResponse	0	0.187	238.214	4	24	Target	MissedWin	True
239.194	0.54	Win2	0.68	n/a	No	3.119	n/a	n/a	NoResponse	0	n/a	n/a	4	24	Blank	MissedWin	True
239.214	0.3	Win2	0.68	0.004	No	3.119	-0.004	2.0	NoResponse	0	0.187	n/a	4	24	ButtonPress	MissedWin	True
239.729	1.45	Win2	0.68	n/a	No	3.119	n/a	5.0	NoResponse	0	0.048	238.777	4	24	Feedback	MissedWin	True
241.183	3.119	Win2	0.68	n/a	No	3.119	n/a	n/a	NoResponse	0	0.0	n/a	4	24	ISIslide	MissedWin	True
244.326	0.25	Win2	0.6537999999999999	0.0	No	3.074	0.026	n/a	NoResponse	0	n/a	n/a	4	25	Cue	MissedWin	True
244.577	4.0	Win2	0.6537999999999999	0.0	No	3.074	0.001	n/a	NoResponse	0	n/a	n/a	4	25	Fixation	MissedWin	True
248.572	0.15	Win2	0.6537999999999999	0.004	No	3.074	-0.004	2.0	NoResponse	0	0.196	247.768	4	25	Target	MissedWin	True
248.722	0.55	Win2	0.6537999999999999	n/a	No	3.074	n/a	n/a	NoResponse	0	n/a	n/a	4	25	Blank	MissedWin	True
248.768	0.3	Win2	0.6537999999999999	0.004	No	3.074	-0.004	2.0	NoResponse	0	0.196	n/a	4	25	ButtonPress	MissedWin	True
249.274	1.45	Win2	0.6537999999999999	n/a	No	3.074	n/a	5.0	NoResponse	0	0.015	248.289	4	25	Feedback	MissedWin	True
250.728	3.074	Win2	0.6537999999999999	n/a	No	3.074	n/a	n/a	NoResponse	0	0.0	n/a	4	25	ISIslide	MissedWin	True
253.821	0.25	Win2	0.6296	0.0	No	2.929	0.021	n/a	NoResponse	0	n/a	n/a	4	26	Cue	MissedWin	True
254.072	3.95	Win2	0.6296	0.0	No	2.929	0.001	n/a	NoResponse	0	n/a	n/a	4	26	Fixation	MissedWin	True
258.017	0.16	Win2	0.6296	0.004	No	2.929	-0.004	2.0	NoResponse	0	0.185	257.202	4	26	Target	MissedWin	True
258.184	0.54	Win2	0.6296	n/a	No	2.929	n/a	n/a	NoResponse	0	n/a	n/a	4	26	Blank	MissedWin	True
258.202	0.3	Win2	0.6296	0.004	No	2.929	-0.004	2.0	NoResponse	0	0.185	n/a	4	26	ButtonPress	MissedWin	True
258.719	1.45	Win2	0.6296	n/a	No	2.929	n/a	5.0	NoResponse	0	0.033	257.752	4	26	Feedback	MissedWin	True
260.173	2.929	Win2	0.6296	n/a	No	2.929	n/a	n/a	NoResponse	0	0.0	n/a	4	26	ISIslide	MissedWin	True
263.115	0.25	Lose2	0.6071	0.0	No	2.835	0.015	n/a	LatePress	-1	n/a	n/a	3	27	Cue	Loss	True
263.366	4.05	Lose2	0.6071	0.0	No	2.835	0.001	n/a	LatePress	-1	n/a	n/a	3	27	Fixation	Loss	True
267.412	0.17	Lose2	0.6071	0.003	No	2.835	-0.003	2.0	LatePress	-1	0.176	266.588	3	27	Target	Loss	True
267.588	0.3	Lose2	0.6071	0.003	No	2.835	-0.003	2.0	LatePress	-1	0.176	n/a	3	27	ButtonPress	Loss	True
267.595	0.53	Lose2	0.6071	n/a	No	2.835	n/a	n/a	LatePress	-1	n/a	n/a	3	27	Blank	Loss	True
268.114	1.45	Lose2	0.6071	n/a	No	2.835	n/a	5.0	LatePress	-1	0.006	267.12	3	27	Feedback	Loss	True
269.568	2.835	Lose2	0.6071	n/a	No	2.835	n/a	n/a	LatePress	-1	0.0	n/a	3	27	ISIslide	Loss	True
272.427	0.25	Control	0.5861999999999999	0.0	No	2.823	0.027	n/a	NoResponse	0	n/a	n/a	3	28	Cue	Neutral	True
272.677	4.05	Control	0.5861999999999999	0.0	No	2.823	0.0	n/a	NoResponse	0	n/a	n/a	3	28	Fixation	Neutral	True
276.723	0.18	Control	0.5861999999999999	0.004	No	2.823	-0.004	2.0	NoResponse	0	0.218	275.941	3	28	Target	Neutral	True
276.907	0.52	Control	0.5861999999999999	n/a	No	2.823	n/a	n/a	NoResponse	0	n/a	n/a	3	28	Blank	Neutral	True
276.941	0.3	Control	0.5861999999999999	0.004	No	2.823	-0.004	2.0	NoResponse	0	0.218	n/a	3	28	ButtonPress	Neutral	True
277.425	1.45	Control	0.5861999999999999	n/a	No	2.823	n/a	5.0	NoResponse	0	0.01	276.435	3	28	Feedback	Neutral	True
278.879	2.823	Control	0.5861999999999999	n/a	No	2.823	n/a	n/a	NoResponse	0	0.0	n/a	3	28	ISIslide	Neutral	True
281.721	0.25	Lose2	0.5667	0.0	No	2.829	0.021	n/a	NoResponse	-1	n/a	n/a	2	29	Cue	Loss	True
281.972	3.95	Lose2	0.5667	0.0	No	2.829	0.001	n/a	NoResponse	-1	n/a	n/a	2	29	Fixation	Loss	True
285.917	0.19	Lose2	0.5667	0.004	No	2.829	-0.004	2.0	NoResponse	-1	0.201	285.118	2	29	Target	Loss	True
286.117	0.51	Lose2	0.5667	n/a	No	2.829	n/a	n/a	NoResponse	-1	n/a	n/a	2	29	Blank	Loss	True
286.118	0.3	Lose2	0.5667	0.004	No	2.829	-0.004	2.0	NoResponse	-1	0.201	n/a	2	29	ButtonPress	Loss	True
286.619	1.45	Lose2	0.5667	n/a	No	2.829	n/a	5.0	NoResponse	-1	0.035	285.654	2	29	Feedback	Loss	True
288.073	2.829	Lose2	0.5667	n/a	No	2.829	n/a	n/a	NoResponse	-1	0.0	n/a	2	29	ISIslide	Loss	True
290.915	0.25	Win2	0.5484	0.0	No	2.785	0.015	n/a	NoResponse	0	n/a	n/a	2	30	Cue	MissedWin	True
291.166	3.9	Win2	0.5484	0.0	No	2.785	0.001	2.0	NoResponse	0	3.412	293.578	2	30	Fixation	MissedWin	True
294.578	0.3	Win2	0.5484	0.0	No	2.785	0.001	2.0	NoResponse	0	3.412	n/a	2	30	ButtonPress	MissedWin	True
295.061	0.2	Win2	0.5484	0.004	No	2.785	-0.004	n/a	NoResponse	0	n/a	n/a	2	30	Target	MissedWin	True
295.261	0.5	Win2	0.5484	n/a	No	2.785	n/a	n/a	NoResponse	0	n/a	n/a	2	30	Blank	MissedWin	True
295.763	1.45	Win2	0.5484	n/a	No	2.785	n/a	5.0	NoResponse	0	0.013	294.776	2	30	Feedback	MissedWin	True
297.217	2.785	Win2	0.5484	n/a	No	2.785	n/a	n/a	NoResponse	0	0.0	n/a	2	30	ISIslide	MissedWin	True
300.026	0.25	Lose2	0.5625	0.0	Yes	2.824	0.026	n/a	GoodResponse	0	n/a	n/a	2	31	Cue	AvoidedLoss	True
300.276	4.05	Lose2	0.5625	0.001	Yes	2.824	0.0	n/a	GoodResponse	0	n/a	n/a	2	31	Fixation	AvoidedLoss	True
304.322	0.21	Lose2	0.5625	0.004	Yes	2.824	-0.004	2.0	GoodResponse	0	0.204	303.526	2	31	Target	AvoidedLoss	True
304.526	0.3	Lose2	0.5625	0.004	Yes	2.824	-0.004	2.0	GoodResponse	0	0.204	n/a	2	31	ButtonPress	AvoidedLoss	True
304.539	0.49	Lose2	0.5625	n/a	Yes	2.824	n/a	n/a	GoodResponse	0	n/a	n/a	2	31	Blank	AvoidedLoss	True
305.024	1.45	Lose2	0.5625	n/a	Yes	2.824	n/a	5.0	GoodResponse	0	0.02	304.044	2	31	Feedback	AvoidedLoss	True
306.478	2.824	Lose2	0.5625	n/a	Yes	2.824	n/a	n/a	GoodResponse	0	0.0	n/a	2	31	ISIslide	AvoidedLoss	True
309.32	0.25	Lose2	0.5455	0.0	No	2.63	0.02	n/a	NoResponse	-1	n/a	n/a	1	32	Cue	Loss	True
309.571	4.15	Lose2	0.5455	0.0	No	2.63	0.001	n/a	NoResponse	-1	n/a	n/a	1	32	Fixation	Loss	True
313.717	0.22	Lose2	0.5455	0.003	No	2.63	-0.003	2.0	NoResponse	-1	0.242	312.959	1	32	Target	Loss	True
313.951	0.48	Lose2	0.5455	n/a	No	2.63	n/a	n/a	NoResponse	-1	n/a	n/a	1	32	Blank	Loss	True
313.959	0.3	Lose2	0.5455	0.003	No	2.63	-0.003	2.0	NoResponse	-1	0.242	n/a	1	32	ButtonPress	Loss	True
314.419	1.45	Lose2	0.5455	n/a	No	2.63	n/a	5.0	NoResponse	-1	0.04	313.459	1	32	Feedback	Loss	True
315.873	2.63	Lose2	0.5455	n/a	No	2.63	n/a	n/a	NoResponse	-1	0.0	n/a	1	32	ISIslide	Loss	True
318.531	0.25	Win2	0.5588000000000001	0.0	Yes	2.669	0.031	n/a	GoodResponse	1	n/a	n/a	2	33	Cue	Win	True
318.782	4.0	Win2	0.5588000000000001	0.0	Yes	2.669	0.001	n/a	GoodResponse	1	n/a	n/a	2	33	Fixation	Win	True
322.777	0.23	Win2	0.5588000000000001	0.004	Yes	2.669	-0.004	2.0	GoodResponse	1	0.211	321.988	2	33	Target	Win	True
322.988	0.3	Win2	0.5588000000000001	0.004	Yes	2.669	-0.004	2.0	GoodResponse	1	0.211	n/a	2	33	ButtonPress	Win	True
323.011	0.47	Win2	0.5588000000000001	n/a	Yes	2.669	n/a	n/a	GoodResponse	1	n/a	n/a	2	33	Blank	Win	True
323.479	1.45	Win2	0.5588000000000001	n/a	Yes	2.669	n/a	5.0	GoodResponse	1	0.008	322.487	2	33	Feedback	Win	True
324.934	2.669	Win2	0.5588000000000001	n/a	Yes	2.669	n/a	n/a	GoodResponse	1	0.0	n/a	2	33	ISIslide	Win	True
327.625	0.25	Lose2	0.5714	0.0	Yes	2.625	0.025	n/a	GoodResponse	0	n/a	n/a	2	34	Cue	AvoidedLoss	True
327.876	4.05	Lose2	0.5714	0.0	Yes	2.625	0.001	n/a	GoodResponse	0	n/a	n/a	2	34	Fixation	AvoidedLoss	True
331.921	0.24	Lose2	0.5714	0.004	Yes	2.625	-0.004	2.0	GoodResponse	0	0.221	331.142	2	34	Target	AvoidedLoss	True
332.142	0.3	Lose2	0.5714	0.004	Yes	2.625	-0.004	2.0	GoodResponse	0	0.221	n/a	2	34	ButtonPress	AvoidedLoss	True
332.172	0.46	Lose2	0.5714	n/a	Yes	2.625	n/a	n/a	GoodResponse	0	n/a	n/a	2	34	Blank	AvoidedLoss	True
332.623	1.45	Lose2	0.5714	n/a	Yes	2.625	n/a	5.0	GoodResponse	0	0.031	331.654	2	34	Feedback	AvoidedLoss	True
334.078	2.625	Lose2	0.5714	n/a	Yes	2.625	n/a	n/a	GoodResponse	0	0.0	n/a	2	34	ISIslide	AvoidedLoss	True
336.719	0.25	Lose2	0.5832999999999999	0.0	Yes	2.681	0.019	n/a	GoodResponse	0	n/a	n/a	2	35	Cue	AvoidedLoss	True
336.97	4.0	Lose2	0.5832999999999999	0.0	Yes	2.681	0.001	n/a	GoodResponse	0	n/a	n/a	2	35	Fixation	AvoidedLoss	True
340.965	0.25	Lose2	0.5832999999999999	0.004	Yes	2.681	-0.004	2.0	GoodResponse	0	0.209	340.174	2	35	Target	AvoidedLoss	True
341.174	0.3	Lose2	0.5832999999999999	0.004	Yes	2.681	-0.004	2.0	GoodResponse	0	0.209	n/a	2	35	ButtonPress	AvoidedLoss	True
341.216	0.45	Lose2	0.5832999999999999	n/a	Yes	2.681	n/a	n/a	GoodResponse	0	n/a	n/a	2	35	Blank	AvoidedLoss	True
341.667	1.45	Lose2	0.5832999999999999	n/a	Yes	2.681	n/a	5.0	GoodResponse	0	0.011	340.678	2	35	Feedback	AvoidedLoss	True
343.121	2.681	Lose2	0.5832999999999999	n/a	Yes	2.681	n/a	n/a	GoodResponse	0	0.0	n/a	2	35	ISIslide	AvoidedLoss	True
345.829	0.25	Control	0.5946	0.0	Yes	2.671	0.029	n/a	GoodResponse	0	n/a	n/a	2	36	Cue	Neutral	True
346.08	4.0	Control	0.5946	0.0	Yes	2.671	0.001	n/a	GoodResponse	0	n/a	n/a	2	36	Fixation	Neutral	True
350.075	0.26	Control	0.5946	0.004	Yes	2.671	-0.004	2.0	GoodResponse	0	0.209	349.284	2	36	Target	Neutral	True
350.284	0.3	Control	0.5946	0.004	Yes	2.671	-0.004	2.0	GoodResponse	0	0.209	n/a	2	36	ButtonPress	Neutral	True
350.343	0.44	Control	0.5946	n/a	Yes	2.671	n/a	n/a	GoodResponse	0	n/a	n/a	2	36	Blank	Neutral	True
350.777	1.45	Control	0.5946	n/a	Yes	2.671	n/a	5.0	GoodResponse	0	0.022	349.799	2	36	Feedback	Neutral	True
352.232	2.671	Control	0.5946	n/a	Yes	2.671	n/a	n/a	GoodResponse	0	0.0	n/a	2	36	ISIslide	Neutral	True
354.923	0.25	Win2	0.6053000000000001	0.0	Yes	2.877	0.023	n/a	GoodResponse	1	n/a	n/a	3	37	Cue	Win	True
355.174	4.0	Win2	0.6053000000000001	0.0	Yes	2.877	0.001	n/a	GoodResponse	1	n/a	n/a	3	37	Fixation	Win	True
359.169	0.27	Win2	0.6053000000000001	0.004	Yes	2.877	-0.004	2.0	GoodResponse	1	0.231	358.4	3	37	Target	Win	True
359.4	0.3	Win2	0.6053000000000001	0.004	Yes	2.877	-0.004	2.0	GoodResponse	1	0.231	n/a	3	37	ButtonPress	Win	True
359.453	0.43	Win2	0.6053000000000001	n/a	Yes	2.877	n/a	n/a	GoodResponse	1	n/a	n/a	3	37	Blank	Win	True
359.871	1.45	Win2	0.6053000000000001	n/a	Yes	2.877	n/a	5.0	GoodResponse	1	0.002	358.873	3	37	Feedback	Win	True
361.326	2.877	Win2	0.6053000000000001	n/a	Yes	2.877	n/a	n/a	GoodResponse	1	0.0	n/a	3	37	ISIslide	Win	True
364.218	0.25	Lose2	0.6154	0.0	Yes	2.832	0.018	n/a	GoodResponse	0	n/a	n/a	3	38	Cue	AvoidedLoss	True
364.468	3.95	Lose2	0.6154	0.0	Yes	2.832	0.0	n/a	GoodResponse	0	n/a	n/a	3	38	Fixation	AvoidedLoss	True
368.414	0.28	Lose2	0.6154	0.004	Yes	2.832	-0.004	2.0	GoodResponse	0	0.24	367.654	3	38	Target	AvoidedLoss	True
368.654	0.3	Lose2	0.6154	0.004	Yes	2.832	-0.004	2.0	GoodResponse	0	0.24	n/a	3	38	ButtonPress	AvoidedLoss	True
368.698	0.42	Lose2	0.6154	n/a	Yes	2.832	n/a	n/a	GoodResponse	0	n/a	n/a	3	38	Blank	AvoidedLoss	True
369.116	1.45	Lose2	0.6154	n/a	Yes	2.832	n/a	5.0	GoodResponse	0	0.025	368.141	3	38	Feedback	AvoidedLoss	True
370.57	2.832	Lose2	0.6154	n/a	Yes	2.832	n/a	n/a	GoodResponse	0	0.0	n/a	3	38	ISIslide	AvoidedLoss	True
373.429	0.25	Win2	0.625	0.0	Yes	2.971	0.029	n/a	GoodResponse	1	n/a	n/a	4	39	Cue	Win	True
373.679	4.1	Win2	0.625	0.0	Yes	2.971	0.0	n/a	GoodResponse	1	n/a	n/a	4	39	Fixation	Win	True
377.775	0.29	Win2	0.625	0.004	Yes	2.971	-0.004	2.0	GoodResponse	1	0.207	376.982	4	39	Target	Win	True
377.982	0.3	Win2	0.625	0.004	Yes	2.971	-0.004	2.0	GoodResponse	1	0.207	n/a	4	39	ButtonPress	Win	True
378.076	0.41	Win2	0.625	n/a	Yes	2.971	n/a	n/a	GoodResponse	1	n/a	n/a	4	39	Blank	Win	True
378.477	1.45	Win2	0.625	n/a	Yes	2.971	n/a	5.0	GoodResponse	1	0.03	377.507	4	39	Feedback	Win	True
379.931	2.971	Win2	0.625	n/a	Yes	2.971	n/a	n/a	GoodResponse	1	0.0	n/a	4	39	ISIslide	Win	True
382.924	0.25	Win2	0.6341	0.0	Yes	2.726	0.024	n/a	GoodResponse	1	n/a	n/a	5	40	Cue	Win	True
383.174	3.95	Win2	0.6341	0.0	Yes	2.726	0.0	n/a	GoodResponse	1	n/a	n/a	5	40	Fixation	Win	True
387.136	0.3	Win2	0.6341	0.0	Yes	2.726	0.012	2.0	GoodResponse	1	0.195	386.331	5	40	Target	Win	True
387.331	0.3	Win2	0.6341	0.0	Yes	2.726	0.012	2.0	GoodResponse	1	0.195	n/a	5	40	ButtonPress	Win	True
387.42	0.4	Win2	0.6341	n/a	Yes	2.726	n/a	n/a	GoodResponse	1	n/a	n/a	5	40	Blank	Win	True
387.822	1.45	Win2	0.6341	n/a	Yes	2.726	n/a	5.0	GoodResponse	1	0.001	386.823	5	40	Feedback	Win	True
389.276	2.726	Win2	0.6341	n/a	Yes	2.726	n/a	n/a	GoodResponse	1	0.0	n/a	5	40	ISIslide	Win	True
392.017	0.25	Win2	0.6429	0.001	Yes	2.783	0.017	n/a	GoodResponse	1	n/a	n/a	6	41	Cue	Win	True
392.268	3.9	Win2	0.6429	0.0	Yes	2.783	0.001	n/a	GoodResponse	1	n/a	n/a	6	41	Fixation	Win	True
396.163	0.31	Win2	0.6429	0.004	Yes	2.783	-0.004	2.0	GoodResponse	1	0.213	395.376	6	41	Target	Win	True
396.376	0.3	Win2	0.6429	0.004	Yes	2.783	-0.004	2.0	GoodResponse	1	0.213	n/a	6	41	ButtonPress	Win	True
396.481	0.39	Win2	0.6429	n/a	Yes	2.783	n/a	n/a	GoodResponse	1	n/a	n/a	6	41	Blank	Win	True
396.865	1.45	Win2	0.6429	n/a	Yes	2.783	n/a	5.0	GoodResponse	1	0.032	395.897	6	41	Feedback	Win	True
398.32	2.783	Win2	0.6429	n/a	Yes	2.783	n/a	n/a	GoodResponse	1	0.0	n/a	6	41	ISIslide	Win	True
401.128	0.25	Control	0.6512	0.0	Yes	2.922	0.028	n/a	GoodResponse	0	n/a	n/a	6	42	Cue	Neutral	True
401.379	3.85	Control	0.6512	0.0	Yes	2.922	0.001	n/a	GoodResponse	0	n/a	n/a	6	42	Fixation	Neutral	True
405.224	0.32	Control	0.6512	0.004	Yes	2.922	-0.004	2.0	GoodResponse	0	0.19	404.414	6	42	Target	Neutral	True
405.414	0.3	Control	0.6512	0.004	Yes	2.922	-0.004	2.0	GoodResponse	0	0.19	n/a	6	42	ButtonPress	Neutral	True
405.558	0.38	Control	0.6512	n/a	Yes	2.922	n/a	n/a	GoodResponse	0	n/a	n/a	6	42	Blank	Neutral	True
405.926	1.45	Control	0.6512	n/a	Yes	2.922	n/a	5.0	GoodResponse	0	0.044	404.97	6	42	Feedback	Neutral	True
407.38	2.922	Control	0.6512	n/a	Yes	2.922	n/a	n/a	GoodResponse	0	0.0	n/a	6	42	ISIslide	Neutral	True
410.322	0.25	Win2	0.6591	0.0	Yes	3.178	0.022	n/a	GoodResponse	1	n/a	n/a	7	43	Cue	Win	True
410.573	4.0	Win2	0.6591	0.0	Yes	3.178	0.001	n/a	GoodResponse	1	n/a	n/a	7	43	Fixation	Win	True
414.568	0.33	Win2	0.6591	0.004	Yes	3.178	-0.004	2.0	GoodResponse	1	0.218	413.786	7	43	Target	Win	True
414.786	0.3	Win2	0.6591	0.004	Yes	3.178	-0.004	2.0	GoodResponse	1	0.218	n/a	7	43	ButtonPress	Win	True
414.903	0.37	Win2	0.6591	n/a	Yes	3.178	n/a	n/a	GoodResponse	1	n/a	n/a	7	43	Blank	Win	True
415.27	1.45	Win2	0.6591	n/a	Yes	3.178	n/a	5.0	GoodResponse	1	0.017	414.287	7	43	Feedback	Win	True
416.725	3.178	Win2	0.6591	n/a	Yes	3.178	n/a	n/a	GoodResponse	1	0.0	n/a	7	43	ISIslide	Win	True
419.918	0.25	Win2	0.6667000000000001	0.0	Yes	2.982	0.018	n/a	GoodResponse	1	n/a	n/a	8	44	Cue	Win	True
420.168	4.0	Win2	0.6667000000000001	0.0	Yes	2.982	0.0	n/a	GoodResponse	1	n/a	n/a	8	44	Fixation	Win	True
424.164	0.33	Win2	0.6667000000000001	0.004	Yes	2.982	-0.004	2.0	GoodResponse	1	0.213	423.377	8	44	Target	Win	True
424.377	0.3	Win2	0.6667000000000001	0.004	Yes	2.982	-0.004	2.0	GoodResponse	1	0.213	n/a	8	44	ButtonPress	Win	True
424.498	0.37	Win2	0.6667000000000001	n/a	Yes	2.982	n/a	n/a	GoodResponse	1	n/a	n/a	8	44	Blank	Win	True
424.866	1.45	Win2	0.6667000000000001	n/a	Yes	2.982	n/a	5.0	GoodResponse	1	0.031	423.897	8	44	Feedback	Win	True
426.32	2.982	Win2	0.6667000000000001	n/a	Yes	2.982	n/a	n/a	GoodResponse	1	0.0	n/a	8	44	ISIslide	Win	True
429.329	0.25	Control	0.6739	0.0	Yes	2.871	0.029	n/a	GoodResponse	0	n/a	n/a	8	45	Cue	Neutral	True
429.58	4.1	Control	0.6739	0.0	Yes	2.871	0.001	n/a	GoodResponse	0	n/a	n/a	8	45	Fixation	Neutral	True
433.675	0.32	Control	0.6739	0.004	Yes	2.871	-0.004	2.0	GoodResponse	0	0.206	432.881	8	45	Target	Neutral	True
433.881	0.3	Control	0.6739	0.004	Yes	2.871	-0.004	2.0	GoodResponse	0	0.206	n/a	8	45	ButtonPress	Neutral	True
434.01	0.38	Control	0.6739	n/a	Yes	2.871	n/a	n/a	GoodResponse	0	n/a	n/a	8	45	Blank	Neutral	True
434.377	1.45	Control	0.6739	n/a	Yes	2.871	n/a	5.0	GoodResponse	0	0.031	433.408	8	45	Feedback	Neutral	True
435.832	2.871	Control	0.6739	n/a	Yes	2.871	n/a	n/a	GoodResponse	0	0.0	n/a	8	45	ISIslide	Neutral	True
438.724	0.25	Lose2	0.6809000000000001	0.0	Yes	3.376	0.024	n/a	GoodResponse	0	n/a	n/a	8	46	Cue	AvoidedLoss	True
438.975	4.0	Lose2	0.6809000000000001	0.0	Yes	3.376	0.001	n/a	GoodResponse	0	n/a	n/a	8	46	Fixation	AvoidedLoss	True
442.97	0.31	Lose2	0.6809000000000001	0.004	Yes	3.376	-0.004	2.0	GoodResponse	0	0.217	442.187	8	46	Target	AvoidedLoss	True
443.187	0.3	Lose2	0.6809000000000001	0.004	Yes	3.376	-0.004	2.0	GoodResponse	0	0.217	n/a	8	46	ButtonPress	AvoidedLoss	True
443.287	0.39	Lose2	0.6809000000000001	n/a	Yes	3.376	n/a	n/a	GoodResponse	0	n/a	n/a	8	46	Blank	AvoidedLoss	True
443.672	1.45	Lose2	0.6809000000000001	n/a	Yes	3.376	n/a	5.0	GoodResponse	0	0.006	442.678	8	46	Feedback	AvoidedLoss	True
445.126	3.376	Lose2	0.6809000000000001	n/a	Yes	3.376	n/a	n/a	GoodResponse	0	0.0	n/a	8	46	ISIslide	AvoidedLoss	True
448.52	0.25	Lose2	0.6875	0.0	Yes	2.68	0.02	n/a	GoodResponse	0	n/a	n/a	8	47	Cue	AvoidedLoss	True
448.77	4.0	Lose2	0.6875	0.001	Yes	2.68	0.0	n/a	GoodResponse	0	n/a	n/a	8	47	Fixation	AvoidedLoss	True
452.766	0.3	Lose2	0.6875	0.004	Yes	2.68	-0.004	2.0	GoodResponse	0	0.207	451.973	8	47	Target	AvoidedLoss	True
452.973	0.3	Lose2	0.6875	0.004	Yes	2.68	-0.004	2.0	GoodResponse	0	0.207	n/a	8	47	ButtonPress	AvoidedLoss	True
453.067	0.4	Lose2	0.6875	n/a	Yes	2.68	n/a	n/a	GoodResponse	0	n/a	n/a	8	47	Blank	AvoidedLoss	True
453.468	1.45	Lose2	0.6875	n/a	Yes	2.68	n/a	5.0	GoodResponse	0	0.014	452.482	8	47	Feedback	AvoidedLoss	True
454.922	2.68	Lose2	0.6875	n/a	Yes	2.68	n/a	n/a	GoodResponse	0	0.0	n/a	8	47	ISIslide	AvoidedLoss	True
457.614	0.25	Lose2	0.6939	0.0	Yes	3.036	0.014	n/a	GoodResponse	0	n/a	n/a	8	48	Cue	AvoidedLoss	True
457.864	3.95	Lose2	0.6939	0.0	Yes	3.036	0.0	n/a	GoodResponse	0	n/a	n/a	8	48	Fixation	AvoidedLoss	True
461.826	0.29	Lose2	0.6939	0.0	Yes	3.036	0.012	2.0	GoodResponse	0	0.272	461.098	8	48	Target	AvoidedLoss	True
462.098	0.3	Lose2	0.6939	0.0	Yes	3.036	0.012	2.0	GoodResponse	0	0.272	n/a	8	48	ButtonPress	AvoidedLoss	True
462.11	0.41	Lose2	0.6939	n/a	Yes	3.036	n/a	n/a	GoodResponse	0	n/a	n/a	8	48	Blank	AvoidedLoss	True
462.512	1.45	Lose2	0.6939	n/a	Yes	3.036	n/a	5.0	GoodResponse	0	0.043	461.555	8	48	Feedback	AvoidedLoss	True
463.966	3.036	Lose2	0.6939	n/a	Yes	3.036	n/a	n/a	GoodResponse	0	0.0	n/a	8	48	ISIslide	AvoidedLoss	True
467.025	0.25	Control	0.7	0.0	Yes	2.875	0.025	n/a	GoodResponse	0	n/a	n/a	8	49	Cue	Neutral	True
467.276	4.0	Control	0.7	0.0	Yes	2.875	0.001	n/a	GoodResponse	0	n/a	n/a	8	49	Fixation	Neutral	True
471.271	0.28	Control	0.7	0.004	Yes	2.875	-0.004	2.0	GoodResponse	0	0.208	470.479	8	49	Target	Neutral	True
471.479	0.3	Control	0.7	0.004	Yes	2.875	-0.004	2.0	GoodResponse	0	0.208	n/a	8	49	ButtonPress	Neutral	True
471.555	0.42	Control	0.7	n/a	Yes	2.875	n/a	n/a	GoodResponse	0	n/a	n/a	8	49	Blank	Neutral	True
471.973	1.45	Control	0.7	n/a	Yes	2.875	n/a	5.0	GoodResponse	0	0.045	471.018	8	49	Feedback	Neutral	True
473.428	2.875	Control	0.7	n/a	Yes	2.875	n/a	n/a	GoodResponse	0	0.0	n/a	8	49	ISIslide	Neutral	True
476.32	0.25	Control	0.7059000000000001	0.0	Yes	2.78	0.02	n/a	GoodResponse	0	n/a	n/a	8	50	Cue	Neutral	True
476.57	4.0	Control	0.7059000000000001	0.0	Yes	2.78	0.0	n/a	GoodResponse	0	n/a	n/a	8	50	Fixation	Neutral	True
480.566	0.27	Control	0.7059000000000001	0.004	Yes	2.78	-0.004	2.0	GoodResponse	0	0.233	479.799	8	50	Target	Neutral	True
480.799	0.3	Control	0.7059000000000001	0.004	Yes	2.78	-0.004	2.0	GoodResponse	0	0.233	n/a	8	50	ButtonPress	Neutral	True
480.85	0.43	Control	0.7059000000000001	n/a	Yes	2.78	n/a	n/a	GoodResponse	0	n/a	n/a	8	50	Blank	Neutral	True
481.268	1.45	Control	0.7059000000000001	n/a	Yes	2.78	n/a	5.0	GoodResponse	0	0.018	480.286	8	50	Feedback	Neutral	True
482.722	2.78	Control	0.7059000000000001	n/a	Yes	2.78	n/a	n/a	GoodResponse	0	0.0	n/a	8	50	ISIslide	Neutral	True
485.514	0.25	Control	0.7115	0.0	Yes	2.736	0.014	n/a	GoodResponse	0	n/a	n/a	8	51	Cue	Neutral	True
485.764	3.95	Control	0.7115	0.0	Yes	2.736	0.0	n/a	GoodResponse	0	n/a	n/a	8	51	Fixation	Neutral	True
489.71	0.26	Control	0.7115	0.004	Yes	2.736	-0.004	2.0	GoodResponse	0	0.207	488.917	8	51	Target	Neutral	True
489.917	0.3	Control	0.7115	0.004	Yes	2.736	-0.004	2.0	GoodResponse	0	0.207	n/a	8	51	ButtonPress	Neutral	True
489.977	0.44	Control	0.7115	n/a	Yes	2.736	n/a	n/a	GoodResponse	0	n/a	n/a	8	51	Blank	Neutral	True
490.412	1.45	Control	0.7115	n/a	Yes	2.736	n/a	5.0	GoodResponse	0	0.045	489.457	8	51	Feedback	Neutral	True
491.866	2.736	Control	0.7115	n/a	Yes	2.736	n/a	n/a	GoodResponse	0	0.0	n/a	8	51	ISIslide	Neutral	True
494.624	0.25	Control	0.6981	0.0	No	2.626	0.024	n/a	LatePress	0	n/a	n/a	8	52	Cue	Neutral	True
494.875	4.05	Control	0.6981	0.0	No	2.626	0.001	n/a	LatePress	0	n/a	n/a	8	52	Fixation	Neutral	True
498.92	0.25	Control	0.6981	0.004	No	2.626	-0.004	2.0	LatePress	0	0.25	498.17	8	52	Target	Neutral	True
499.17	0.3	Control	0.6981	0.004	No	2.626	-0.004	2.0	LatePress	0	0.25	n/a	8	52	ButtonPress	Neutral	True
499.171	0.45	Control	0.6981	n/a	No	2.626	n/a	n/a	LatePress	0	n/a	n/a	8	52	Blank	Neutral	True
499.623	1.45	Control	0.6981	n/a	No	2.626	n/a	5.0	LatePress	0	0.005	498.628	8	52	Feedback	Neutral	True
501.077	2.626	Control	0.6981	n/a	No	2.626	n/a	n/a	LatePress	0	0.0	n/a	8	52	ISIslide	Neutral	True
503.718	0.25	Win2	0.7037	0.0	Yes	2.932	0.018	n/a	GoodResponse	1	n/a	n/a	9	53	Cue	Win	True
503.969	4.05	Win2	0.7037	0.0	Yes	2.932	0.001	n/a	GoodResponse	1	n/a	n/a	9	53	Fixation	Win	True
508.014	0.24	Win2	0.7037	0.004	Yes	2.932	-0.004	2.0	GoodResponse	1	0.211	507.225	9	53	Target	Win	True
508.225	0.3	Win2	0.7037	0.004	Yes	2.932	-0.004	2.0	GoodResponse	1	0.211	n/a	9	53	ButtonPress	Win	True
508.265	0.46	Win2	0.7037	n/a	Yes	2.932	n/a	n/a	GoodResponse	1	n/a	n/a	9	53	Blank	Win	True
508.716	1.45	Win2	0.7037	n/a	Yes	2.932	n/a	5.0	GoodResponse	1	0.033	507.749	9	53	Feedback	Win	True
510.171	2.932	Win2	0.7037	n/a	Yes	2.932	n/a	n/a	GoodResponse	1	0.0	n/a	9	53	ISIslide	Win	True
513.13	0.25	Win2	0.7091	0.0	Yes	2.72	0.03	n/a	GoodResponse	1	n/a	n/a	10	54	Cue	Win	True
513.38	3.95	Win2	0.7091	0.0	Yes	2.72	0.0	n/a	GoodResponse	1	n/a	n/a	10	54	Fixation	Win	True
517.342	0.23	Win2	0.7091	0.0	Yes	2.72	0.012	2.0	GoodResponse	1	0.2	516.542	10	54	Target	Win	True
517.542	0.3	Win2	0.7091	0.0	Yes	2.72	0.012	2.0	GoodResponse	1	0.2	n/a	10	54	ButtonPress	Win	True
517.559	0.47	Win2	0.7091	n/a	Yes	2.72	n/a	n/a	GoodResponse	1	n/a	n/a	10	54	Blank	Win	True
518.028	1.45	Win2	0.7091	n/a	Yes	2.72	n/a	5.0	GoodResponse	1	0.038	517.066	10	54	Feedback	Win	True
519.482	2.72	Win2	0.7091	n/a	Yes	2.72	n/a	n/a	GoodResponse	1	0.0	n/a	10	54	ISIslide	Win	True
522.223	0.25	Control	0.7143	0.0	Yes	3.027	0.023	n/a	GoodResponse	0	n/a	n/a	10	55	Cue	Neutral	True
522.474	3.95	Control	0.7143	0.0	Yes	3.027	0.001	n/a	GoodResponse	0	n/a	n/a	10	55	Fixation	Neutral	True
526.419	0.22	Control	0.7143	0.004	Yes	3.027	-0.004	2.0	GoodResponse	0	0.203	525.622	10	55	Target	Neutral	True
526.622	0.3	Control	0.7143	0.004	Yes	3.027	-0.004	2.0	GoodResponse	0	0.203	n/a	10	55	ButtonPress	Neutral	True
526.653	0.48	Control	0.7143	n/a	Yes	3.027	n/a	n/a	GoodResponse	0	n/a	n/a	10	55	Blank	Neutral	True
527.121	1.45	Control	0.7143	n/a	Yes	3.027	n/a	5.0	GoodResponse	0	0.018	526.139	10	55	Feedback	Neutral	True
528.576	3.027	Control	0.7143	n/a	Yes	3.027	n/a	n/a	GoodResponse	0	0.0	n/a	10	55	ISIslide	Neutral	True
531.618	0.25	Control	0.7018000000000001	0.0	No	2.832	0.018	n/a	LatePress	0	n/a	n/a	10	56	Cue	Neutral	True
531.869	3.95	Control	0.7018000000000001	0.0	No	2.832	0.001	n/a	LatePress	0	n/a	n/a	10	56	Fixation	Neutral	True
535.814	0.21	Control	0.7018000000000001	0.004	No	2.832	-0.004	2.0	LatePress	0	0.21	535.024	10	56	Target	Neutral	True
536.024	0.3	Control	0.7018000000000001	0.004	No	2.832	-0.004	2.0	LatePress	0	0.21	n/a	10	56	ButtonPress	Neutral	True
536.031	0.49	Control	0.7018000000000001	n/a	No	2.832	n/a	n/a	LatePress	0	n/a	n/a	10	56	Blank	Neutral	True
536.516	1.45	Control	0.7018000000000001	n/a	No	2.832	n/a	5.0	LatePress	0	0.038	535.554	10	56	Feedback	Neutral	True
537.971	2.832	Control	0.7018000000000001	n/a	No	2.832	n/a	n/a	LatePress	0	0.0	n/a	10	56	ISIslide	Neutral	True
540.829	0.25	Control	0.6897	0.0	No	3.471	0.029	n/a	NoResponse	0	n/a	n/a	10	57	Cue	Neutral	True
541.08	4.0	Control	0.6897	0.0	No	3.471	0.001	n/a	NoResponse	0	n/a	n/a	10	57	Fixation	Neutral	True
545.075	0.2	Control	0.6897	0.004	No	3.471	-0.004	2.0	NoResponse	0	0.346	544.421	10	57	Target	Neutral	True
545.276	0.5	Control	0.6897	n/a	No	3.471	n/a	n/a	NoResponse	0	n/a	n/a	10	57	Blank	Neutral	True
545.421	0.3	Control	0.6897	0.004	No	3.471	-0.004	2.0	NoResponse	0	0.346	n/a	10	57	ButtonPress	Neutral	True
545.777	1.45	Control	0.6897	n/a	No	3.471	n/a	5.0	NoResponse	0	0.045	544.822	10	57	Feedback	Neutral	True
547.232	3.471	Control	0.6897	n/a	No	3.471	n/a	n/a	NoResponse	0	0.0	n/a	10	57	ISIslide	Neutral	True
550.725	0.25	Win2	0.6779999999999999	0.0	No	2.725	0.025	n/a	NoResponse	0	n/a	n/a	10	58	Cue	MissedWin	True
550.976	4.05	Win2	0.6779999999999999	0.0	No	2.725	0.001	n/a	NoResponse	0	n/a	n/a	10	58	Fixation	MissedWin	True
555.021	0.19	Win2	0.6779999999999999	0.004	No	2.725	-0.004	2.0	NoResponse	0	0.215	554.236	10	58	Target	MissedWin	True
555.222	0.51	Win2	0.6779999999999999	n/a	No	2.725	n/a	n/a	NoResponse	0	n/a	n/a	10	58	Blank	MissedWin	True
555.236	0.3	Win2	0.6779999999999999	0.004	No	2.725	-0.004	2.0	NoResponse	0	0.215	n/a	10	58	ButtonPress	MissedWin	True
555.724	1.45	Win2	0.6779999999999999	n/a	No	2.725	n/a	5.0	NoResponse	0	0.001	554.725	10	58	Feedback	MissedWin	True
557.178	2.725	Win2	0.6779999999999999	n/a	No	2.725	n/a	n/a	NoResponse	0	0.0	n/a	10	58	ISIslide	MissedWin	True
559.919	0.25	Lose2	0.6667000000000001	0.001	No	2.681	0.019	n/a	LatePress	-1	n/a	n/a	9	59	Cue	Loss	True
560.17	4.0	Lose2	0.6667000000000001	0.0	No	2.681	0.001	n/a	LatePress	-1	n/a	n/a	9	59	Fixation	Loss	True
564.165	0.18	Lose2	0.6667000000000001	0.004	No	2.681	-0.004	2.0	LatePress	-1	0.18	563.345	9	59	Target	Loss	True
564.345	0.3	Lose2	0.6667000000000001	0.004	No	2.681	-0.004	2.0	LatePress	-1	0.18	n/a	9	59	ButtonPress	Loss	True
564.349	0.52	Lose2	0.6667000000000001	n/a	No	2.681	n/a	n/a	LatePress	-1	n/a	n/a	9	59	Blank	Loss	True
564.868	1.45	Lose2	0.6667000000000001	n/a	No	2.681	n/a	5.0	LatePress	-1	0.026	563.894	9	59	Feedback	Loss	True
566.322	2.681	Lose2	0.6667000000000001	n/a	No	2.681	n/a	n/a	LatePress	-1	0.0	n/a	9	59	ISIslide	Loss	True
569.013	0.25	Control	0.6557	0.0	No	2.687	0.013	n/a	NoResponse	0	n/a	n/a	9	60	Cue	Neutral	True
569.264	4.0	Control	0.6557	0.0	No	2.687	0.001	n/a	NoResponse	0	n/a	n/a	9	60	Fixation	Neutral	True
573.259	0.17	Control	0.6557	0.004	No	2.687	-0.004	2.0	NoResponse	0	0.222	572.481	9	60	Target	Neutral	True
573.443	0.53	Control	0.6557	n/a	No	2.687	n/a	n/a	NoResponse	0	n/a	n/a	9	60	Blank	Neutral	True
573.481	0.3	Control	0.6557	0.004	No	2.687	-0.004	2.0	NoResponse	0	0.222	n/a	9	60	ButtonPress	Neutral	True
573.961	1.45	Control	0.6557	n/a	No	2.687	n/a	5.0	NoResponse	0	0.007	572.968	9	60	Feedback	Neutral	True
575.416	2.687	Control	0.6557	n/a	No	2.687	n/a	n/a	NoResponse	0	0.0	n/a	9	60	ISIslide	Neutral	True
578.124	0.25	Lose2	0.6452	0.0	No	2.976	0.024	n/a	PrematurePress	-1	n/a	n/a	8	61	Cue	Loss	False
578.375	4.0	Lose2	0.6452	0.0	No	2.976	0.001	2.0	PrematurePress	-1	3.636	581.011	8	61	Fixation	Loss	False
582.011	0.3	Lose2	0.6452	0.0	No	2.976	0.001	2.0	PrematurePress	-1	3.636	n/a	8	61	ButtonPress	Loss	False
582.37	0.17	Lose2	0.6452	0.004	No	2.976	-0.004	2.0	PrematurePress	-1	0.084	581.454	8	61	Target	Loss	False
582.454	0.3	Lose2	0.6452	0.004	No	2.976	-0.004	2.0	PrematurePress	-1	0.084	n/a	8	61	ButtonPress	Loss	False
582.554	0.53	Lose2	0.6452	n/a	No	2.976	n/a	n/a	PrematurePress	-1	n/a	n/a	8	61	Blank	Loss	False
583.072	1.45	Lose2	0.6452	n/a	No	2.976	n/a	5.0	PrematurePress	-1	0.018	582.09	8	61	Feedback	Loss	False
584.526	2.976	Lose2	0.6452	n/a	No	2.976	n/a	n/a	PrematurePress	-1	0.0	n/a	8	61	ISIslide	Loss	False
587.519	0.25	Lose2	0.6349	0.0	No	2.881	0.019	n/a	NoResponse	-1	n/a	n/a	7	62	Cue	Loss	True
587.769	3.9	Lose2	0.6349	0.0	No	2.881	0.0	n/a	NoResponse	-1	n/a	n/a	7	62	Fixation	Loss	True
591.681	0.18	Lose2	0.6349	0.0	No	2.881	0.012	2.0	NoResponse	-1	0.213	590.894	7	62	Target	Loss	True
591.848	0.52	Lose2	0.6349	n/a	No	2.881	n/a	n/a	NoResponse	-1	n/a	n/a	7	62	Blank	Loss	True
591.894	0.3	Lose2	0.6349	0.0	No	2.881	0.012	2.0	NoResponse	-1	0.213	n/a	7	62	ButtonPress	Loss	True
592.366	1.45	Lose2	0.6349	n/a	No	2.881	n/a	5.0	NoResponse	-1	0.041	591.407	7	62	Feedback	Loss	True
593.821	2.881	Lose2	0.6349	n/a	No	2.881	n/a	n/a	NoResponse	-1	0.0	n/a	7	62	ISIslide	Loss	True
596.73	0.25	Lose2	0.625	0.0	No	2.62	0.03	n/a	NoResponse	-1	n/a	n/a	6	63	Cue	Loss	True
596.98	4.05	Lose2	0.625	0.0	No	2.62	0.0	n/a	NoResponse	-1	n/a	n/a	6	63	Fixation	Loss	True
601.026	0.19	Lose2	0.625	0.004	No	2.62	-0.004	2.0	NoResponse	-1	0.205	600.231	6	63	Target	Loss	True
601.226	0.51	Lose2	0.625	n/a	No	2.62	n/a	n/a	NoResponse	-1	n/a	n/a	6	63	Blank	Loss	True
601.231	0.3	Lose2	0.625	0.004	No	2.62	-0.004	2.0	NoResponse	-1	0.205	n/a	6	63	ButtonPress	Loss	True
601.728	1.45	Lose2	0.625	n/a	No	2.62	n/a	5.0	NoResponse	-1	0.044	600.772	6	63	Feedback	Loss	True
603.182	2.62	Lose2	0.625	n/a	No	2.62	n/a	n/a	NoResponse	-1	0.0	n/a	6	63	ISIslide	Loss	True
605.823	0.25	Win2	0.6154	0.0	No	3.127	0.023	n/a	LatePress	0	n/a	n/a	6	64	Cue	MissedWin	True
606.074	4.15	Win2	0.6154	0.0	No	3.127	0.001	n/a	LatePress	0	n/a	n/a	6	64	Fixation	MissedWin	True
610.22	0.2	Win2	0.6154	0.003	No	3.127	-0.003	2.0	LatePress	0	0.2	609.42	6	64	Target	MissedWin	True
610.42	0.5	Win2	0.6154	n/a	No	3.127	n/a	n/a	LatePress	0	n/a	n/a	6	64	Blank	MissedWin	True
610.42	0.3	Win2	0.6154	0.003	No	3.127	-0.003	2.0	LatePress	0	0.2	n/a	6	64	ButtonPress	MissedWin	True
610.922	1.45	Win2	0.6154	n/a	No	3.127	n/a	5.0	LatePress	0	0.021	609.943	6	64	Feedback	MissedWin	True
612.376	3.127	Win2	0.6154	n/a	No	3.127	n/a	n/a	LatePress	0	0.0	n/a	6	64	ISIslide	MissedWin	True
615.519	0.25	Control	0.6061	0.0	No	2.781	0.019	n/a	NoResponse	0	n/a	n/a	6	65	Cue	Neutral	True
615.77	4.0	Control	0.6061	0.0	No	2.781	0.001	n/a	NoResponse	0	n/a	n/a	6	65	Fixation	Neutral	True
619.765	0.21	Control	0.6061	0.004	No	2.781	-0.004	2.0	NoResponse	0	0.229	618.994	6	65	Target	Neutral	True
619.982	0.49	Control	0.6061	n/a	No	2.781	n/a	n/a	NoResponse	0	n/a	n/a	6	65	Blank	Neutral	True
619.994	0.3	Control	0.6061	0.004	No	2.781	-0.004	2.0	NoResponse	0	0.229	n/a	6	65	ButtonPress	Neutral	True
620.467	1.45	Control	0.6061	n/a	No	2.781	n/a	5.0	NoResponse	0	0.037	619.504	6	65	Feedback	Neutral	True
621.922	2.781	Control	0.6061	n/a	No	2.781	n/a	n/a	NoResponse	0	0.0	n/a	6	65	ISIslide	Neutral	True
624.73	0.25	Win2	0.6119	0.0	Yes	2.77	0.03	n/a	GoodResponse	1	n/a	n/a	7	66	Cue	Win	True
624.981	3.9	Win2	0.6119	0.0	Yes	2.77	0.001	n/a	GoodResponse	1	n/a	n/a	7	66	Fixation	Win	True
628.876	0.22	Win2	0.6119	0.004	Yes	2.77	-0.004	2.0	GoodResponse	1	0.196	628.072	7	66	Target	Win	True
629.072	0.3	Win2	0.6119	0.004	Yes	2.77	-0.004	2.0	GoodResponse	1	0.196	n/a	7	66	ButtonPress	Win	True
629.11	0.48	Win2	0.6119	n/a	Yes	2.77	n/a	n/a	GoodResponse	1	n/a	n/a	7	66	Blank	Win	True
629.578	1.45	Win2	0.6119	n/a	Yes	2.77	n/a	5.0	GoodResponse	1	0.048	628.626	7	66	Feedback	Win	True
631.032	2.77	Win2	0.6119	n/a	Yes	2.77	n/a	n/a	GoodResponse	1	0.0	n/a	7	66	ISIslide	Win	True
633.824	0.25	Control	0.6029	0.0	No	2.726	0.024	n/a	NoResponse	0	n/a	n/a	7	67	Cue	Neutral	True
634.075	3.95	Control	0.6029	0.0	No	2.726	0.001	n/a	NoResponse	0	n/a	n/a	7	67	Fixation	Neutral	True
638.02	0.23	Control	0.6029	0.004	No	2.726	-0.004	2.0	NoResponse	0	0.252	637.272	7	67	Target	Neutral	True
638.254	0.47	Control	0.6029	n/a	No	2.726	n/a	n/a	NoResponse	0	n/a	n/a	7	67	Blank	Neutral	True
638.272	0.3	Control	0.6029	0.004	No	2.726	-0.004	2.0	NoResponse	0	0.252	n/a	7	67	ButtonPress	Neutral	True
638.722	1.45	Control	0.6029	n/a	No	2.726	n/a	5.0	NoResponse	0	0.026	637.748	7	67	Feedback	Neutral	True
640.176	2.726	Control	0.6029	n/a	No	2.726	n/a	n/a	NoResponse	0	0.0	n/a	7	67	ISIslide	Neutral	True
642.918	0.25	Win2	0.6087	0.0	Yes	3.082	0.018	n/a	GoodResponse	1	n/a	n/a	8	68	Cue	Win	True
643.168	4.0	Win2	0.6087	0.0	Yes	3.082	0.0	n/a	GoodResponse	1	n/a	n/a	8	68	Fixation	Win	True
647.164	0.24	Win2	0.6087	0.004	Yes	3.082	-0.004	2.0	GoodResponse	1	0.207	646.371	8	68	Target	Win	True
647.371	0.3	Win2	0.6087	0.004	Yes	3.082	-0.004	2.0	GoodResponse	1	0.207	n/a	8	68	ButtonPress	Win	True
647.414	0.46	Win2	0.6087	n/a	Yes	3.082	n/a	n/a	GoodResponse	1	n/a	n/a	8	68	Blank	Win	True
647.866	1.45	Win2	0.6087	n/a	Yes	3.082	n/a	5.0	GoodResponse	1	0.004	646.87	8	68	Feedback	Win	True
649.32	3.082	Win2	0.6087	n/a	Yes	3.082	n/a	n/a	GoodResponse	1	0.0	n/a	8	68	ISIslide	Win	True
652.429	0.25	Win2	0.6143	0.001	Yes	3.221	0.029	n/a	GoodResponse	1	n/a	n/a	9	69	Cue	Win	True
652.68	3.95	Win2	0.6143	0.0	Yes	3.221	0.001	n/a	GoodResponse	1	n/a	n/a	9	69	Fixation	Win	True
656.625	0.25	Win2	0.6143	0.004	Yes	3.221	-0.004	2.0	GoodResponse	1	0.203	655.828	9	69	Target	Win	True
656.828	0.3	Win2	0.6143	0.004	Yes	3.221	-0.004	2.0	GoodResponse	1	0.203	n/a	9	69	ButtonPress	Win	True
656.876	0.45	Win2	0.6143	n/a	Yes	3.221	n/a	n/a	GoodResponse	1	n/a	n/a	9	69	Blank	Win	True
657.327	1.45	Win2	0.6143	n/a	Yes	3.221	n/a	5.0	GoodResponse	1	0.005	656.332	9	69	Feedback	Win	True
658.782	3.221	Win2	0.6143	n/a	Yes	3.221	n/a	n/a	GoodResponse	1	0.0	n/a	9	69	ISIslide	Win	True
662.025	0.25	Lose2	0.6197	0.0	Yes	3.025	0.025	n/a	GoodResponse	0	n/a	n/a	9	70	Cue	AvoidedLoss	True
662.275	4.05	Lose2	0.6197	0.001	Yes	3.025	0.0	n/a	GoodResponse	0	n/a	n/a	9	70	Fixation	AvoidedLoss	True
666.321	0.26	Lose2	0.6197	0.004	Yes	3.025	-0.004	2.0	GoodResponse	0	0.238	665.559	9	70	Target	AvoidedLoss	True
666.559	0.3	Lose2	0.6197	0.004	Yes	3.025	-0.004	2.0	GoodResponse	0	0.238	n/a	9	70	ButtonPress	AvoidedLoss	True
666.588	0.44	Lose2	0.6197	n/a	Yes	3.025	n/a	n/a	GoodResponse	0	n/a	n/a	9	70	Blank	AvoidedLoss	True
667.023	1.45	Lose2	0.6197	n/a	Yes	3.025	n/a	5.0	GoodResponse	0	0.017	666.04	9	70	Feedback	AvoidedLoss	True
668.477	3.025	Lose2	0.6197	n/a	Yes	3.025	n/a	n/a	GoodResponse	0	0.0	n/a	9	70	ISIslide	AvoidedLoss	True
671.52	0.25	Win2	0.6111	0.0	No	2.73	0.02	n/a	LatePress	0	n/a	n/a	9	71	Cue	MissedWin	True
671.771	4.05	Win2	0.6111	0.0	No	2.73	0.001	n/a	LatePress	0	n/a	n/a	9	71	Fixation	MissedWin	True
675.816	0.27	Win2	0.6111	0.004	No	2.73	-0.004	2.0	LatePress	0	0.277	675.093	9	71	Target	MissedWin	True
676.093	0.3	Win2	0.6111	0.004	No	2.73	-0.004	2.0	LatePress	0	0.277	n/a	9	71	ButtonPress	MissedWin	True
676.1	0.43	Win2	0.6111	n/a	No	2.73	n/a	n/a	LatePress	0	n/a	n/a	9	71	Blank	MissedWin	True
676.518	1.45	Win2	0.6111	n/a	No	2.73	n/a	5.0	LatePress	0	0.034	675.552	9	71	Feedback	MissedWin	True
677.972	2.73	Win2	0.6111	n/a	No	2.73	n/a	n/a	LatePress	0	0.0	n/a	9	71	ISIslide	MissedWin	True
680.731	0.25	Win2	0.6164000000000001	0.0	Yes	2.769	0.031	n/a	GoodResponse	1	n/a	n/a	10	72	Cue	Win	True
680.981	4.1	Win2	0.6164000000000001	0.001	Yes	2.769	0.0	n/a	GoodResponse	1	n/a	n/a	10	72	Fixation	Win	True
685.077	0.28	Win2	0.6164000000000001	0.004	Yes	2.769	-0.004	2.0	GoodResponse	1	0.203	684.28	10	72	Target	Win	True
685.28	0.3	Win2	0.6164000000000001	0.004	Yes	2.769	-0.004	2.0	GoodResponse	1	0.203	n/a	10	72	ButtonPress	Win	True
685.361	0.42	Win2	0.6164000000000001	n/a	Yes	2.769	n/a	n/a	GoodResponse	1	n/a	n/a	10	72	Blank	Win	True
685.779	1.45	Win2	0.6164000000000001	n/a	Yes	2.769	n/a	5.0	GoodResponse	1	0.042	684.821	10	72	Feedback	Win	True
687.233	2.769	Win2	0.6164000000000001	n/a	Yes	2.769	n/a	n/a	GoodResponse	1	0.0	n/a	10	72	ISIslide	Win	True
690.025	0.25	Win2	0.6215999999999999	0.0	Yes	2.675	0.025	n/a	GoodResponse	1	n/a	n/a	11	73	Cue	Win	True
690.276	4.0	Win2	0.6215999999999999	0.0	Yes	2.675	0.001	n/a	GoodResponse	1	n/a	n/a	11	73	Fixation	Win	True
694.271	0.29	Win2	0.6215999999999999	0.004	Yes	2.675	-0.004	2.0	GoodResponse	1	0.202	693.473	11	73	Target	Win	True
694.473	0.3	Win2	0.6215999999999999	0.004	Yes	2.675	-0.004	2.0	GoodResponse	1	0.202	n/a	11	73	ButtonPress	Win	True
694.572	0.41	Win2	0.6215999999999999	n/a	Yes	2.675	n/a	n/a	GoodResponse	1	n/a	n/a	11	73	Blank	Win	True
694.973	1.45	Win2	0.6215999999999999	n/a	Yes	2.675	n/a	5.0	GoodResponse	1	0.017	693.99	11	73	Feedback	Win	True
696.428	2.675	Win2	0.6215999999999999	n/a	Yes	2.675	n/a	n/a	GoodResponse	1	0.0	n/a	11	73	ISIslide	Win	True
699.119	0.25	Lose2	0.6267	0.0	Yes	2.631	0.019	n/a	GoodResponse	0	n/a	n/a	11	74	Cue	AvoidedLoss	True
699.37	4.05	Lose2	0.6267	0.0	Yes	2.631	0.001	n/a	GoodResponse	0	n/a	n/a	11	74	Fixation	AvoidedLoss	True
703.415	0.3	Lose2	0.6267	0.004	Yes	2.631	-0.004	2.0	GoodResponse	0	0.183	702.598	11	74	Target	AvoidedLoss	True
703.598	0.3	Lose2	0.6267	0.004	Yes	2.631	-0.004	2.0	GoodResponse	0	0.183	n/a	11	74	ButtonPress	AvoidedLoss	True
703.716	0.4	Lose2	0.6267	n/a	Yes	2.631	n/a	n/a	GoodResponse	0	n/a	n/a	11	74	Blank	AvoidedLoss	True
704.117	1.45	Lose2	0.6267	n/a	Yes	2.631	n/a	5.0	GoodResponse	0	0.044	703.161	11	74	Feedback	AvoidedLoss	True
705.572	2.631	Lose2	0.6267	n/a	Yes	2.631	n/a	n/a	GoodResponse	0	0.0	n/a	11	74	ISIslide	AvoidedLoss	True
708.23	0.25	Lose2	0.6315999999999999	0.0	Yes	2.92	0.03	n/a	GoodResponse	0	n/a	n/a	11	75	Cue	AvoidedLoss	True
708.48	3.95	Lose2	0.6315999999999999	0.0	Yes	2.92	0.0	n/a	GoodResponse	0	n/a	n/a	11	75	Fixation	AvoidedLoss	True
712.425	0.31	Lose2	0.6315999999999999	0.005	Yes	2.92	-0.005	2.0	GoodResponse	0	0.194	711.619	11	75	Target	AvoidedLoss	True
712.619	0.3	Lose2	0.6315999999999999	0.005	Yes	2.92	-0.005	2.0	GoodResponse	0	0.194	n/a	11	75	ButtonPress	AvoidedLoss	True
712.743	0.39	Lose2	0.6315999999999999	n/a	Yes	2.92	n/a	n/a	GoodResponse	0	n/a	n/a	11	75	Blank	AvoidedLoss	True
713.128	1.45	Lose2	0.6315999999999999	n/a	Yes	2.92	n/a	5.0	GoodResponse	0	0.009	712.137	11	75	Feedback	AvoidedLoss	True
714.582	2.92	Lose2	0.6315999999999999	n/a	Yes	2.92	n/a	n/a	GoodResponse	0	0.0	n/a	11	75	ISIslide	AvoidedLoss	True
717.524	0.25	Control	0.6364	0.0	Yes	3.226	0.024	n/a	GoodResponse	0	n/a	n/a	11	76	Cue	Neutral	True
717.775	4.05	Control	0.6364	0.0	Yes	3.226	0.001	n/a	GoodResponse	0	n/a	n/a	11	76	Fixation	Neutral	True
721.82	0.32	Control	0.6364	0.004	Yes	3.226	-0.004	2.0	GoodResponse	0	0.227	721.047	11	76	Target	Neutral	True
722.047	0.3	Control	0.6364	0.004	Yes	3.226	-0.004	2.0	GoodResponse	0	0.227	n/a	11	76	ButtonPress	Neutral	True
722.155	0.38	Control	0.6364	n/a	Yes	3.226	n/a	n/a	GoodResponse	0	n/a	n/a	11	76	Blank	Neutral	True
722.522	1.45	Control	0.6364	n/a	Yes	3.226	n/a	5.0	GoodResponse	0	0.03	721.552	11	76	Feedback	Neutral	True
723.977	3.226	Control	0.6364	n/a	Yes	3.226	n/a	n/a	GoodResponse	0	0.0	n/a	11	76	ISIslide	Neutral	True
727.22	0.25	Lose2	0.6409999999999999	0.0	Yes	2.58	0.02	n/a	GoodResponse	0	n/a	n/a	11	77	Cue	AvoidedLoss	True
727.47	3.95	Lose2	0.6409999999999999	0.001	Yes	2.58	0.0	n/a	GoodResponse	0	n/a	n/a	11	77	Fixation	AvoidedLoss	True
731.416	0.33	Lose2	0.6409999999999999	0.004	Yes	2.58	-0.004	2.0	GoodResponse	0	0.204	730.62	11	77	Target	AvoidedLoss	True
731.62	0.3	Lose2	0.6409999999999999	0.004	Yes	2.58	-0.004	2.0	GoodResponse	0	0.204	n/a	11	77	ButtonPress	AvoidedLoss	True
731.75	0.37	Lose2	0.6409999999999999	n/a	Yes	2.58	n/a	n/a	GoodResponse	0	n/a	n/a	11	77	Blank	AvoidedLoss	True
732.118	1.45	Lose2	0.6409999999999999	n/a	Yes	2.58	n/a	5.0	GoodResponse	0	0.044	731.162	11	77	Feedback	AvoidedLoss	True
733.572	2.58	Lose2	0.6409999999999999	n/a	Yes	2.58	n/a	n/a	GoodResponse	0	0.0	n/a	11	77	ISIslide	AvoidedLoss	True
