onset	duration	cue_type	current_mean_accuracy	duration_error	is_hit	isi_adjusted	onset_delay	response	response_type	reward	rt	rt_time	total_reward	trial_number	trial_phase	trial_type	one_press
11.105	0.25	Control	1.0	0.0	Yes	2.945	0.005	n/a	GoodResponse	0	n/a	n/a	0	0	Cue	Neutral	False
11.356	3.85	Control	1.0	0.0	Yes	2.945	0.001	2.0	GoodResponse	0	0.501	10.857	0	0	Fixation	Neutral	False
11.857	0.3	Control	1.0	0.0	Yes	2.945	0.001	2.0	GoodResponse	0	0.501	n/a	0	0	ButtonPress	Neutral	False
15.217	0.4	Control	1.0	0.0	Yes	2.945	0.012	2.0	GoodResponse	0	0.237	14.454	0	0	Target	Neutral	False
15.454	0.3	Control	1.0	0.0	Yes	2.945	0.012	2.0	GoodResponse	0	0.237	n/a	0	0	ButtonPress	Neutral	False
15.602	0.3	Control	1.0	n/a	Yes	2.945	n/a	n/a	GoodResponse	0	n/a	n/a	0	0	Blank	Neutral	False
15.903	1.45	Control	1.0	n/a	Yes	2.945	n/a	5.0	GoodResponse	0	0.023	14.926	0	0	Feedback	Neutral	False
17.357	2.945	Control	1.0	n/a	Yes	2.945	n/a	n/a	GoodResponse	0	0.0	n/a	0	0	ISIslide	Neutral	False
20.316	0.25	Lose2	1.0	0.0	Yes	2.784	0.016	n/a	GoodResponse	0	n/a	n/a	0	1	Cue	AvoidedLoss	True
20.567	4.0	Lose2	1.0	0.0	Yes	2.784	0.001	n/a	GoodResponse	0	n/a	n/a	0	1	Fixation	AvoidedLoss	True
24.562	0.39	Lose2	1.0	0.004	Yes	2.784	-0.004	2.0	GoodResponse	0	0.242	23.804	0	1	Target	AvoidedLoss	True
24.804	0.3	Lose2	1.0	0.004	Yes	2.784	-0.004	2.0	GoodResponse	0	0.242	n/a	0	1	ButtonPress	AvoidedLoss	True
24.963	0.31	Lose2	1.0	n/a	Yes	2.784	n/a	n/a	GoodResponse	0	n/a	n/a	0	1	Blank	AvoidedLoss	True
25.264	1.45	Lose2	1.0	n/a	Yes	2.784	n/a	5.0	GoodResponse	0	0.028	24.292	0	1	Feedback	AvoidedLoss	True
26.718	2.784	Lose2	1.0	n/a	Yes	2.784	n/a	n/a	GoodResponse	0	0.0	n/a	0	1	ISIslide	AvoidedLoss	True
29.527	0.25	Control	1.0	0.0	Yes	2.573	0.027	n/a	GoodResponse	0	n/a	n/a	0	2	Cue	Neutral	True
29.777	4.1	Control	1.0	0.0	Yes	2.573	0.0	n/a	GoodResponse	0	n/a	n/a	0	2	Fixation	Neutral	True
33.873	0.38	Control	1.0	0.004	Yes	2.573	-0.004	2.0	GoodResponse	0	0.245	33.118	0	2	Target	Neutral	True
34.118	0.3	Control	1.0	0.004	Yes	2.573	-0.004	2.0	GoodResponse	0	0.245	n/a	0	2	ButtonPress	Neutral	True
34.258	0.32	Control	1.0	n/a	Yes	2.573	n/a	n/a	GoodResponse	0	n/a	n/a	0	2	Blank	Neutral	True
34.575	1.45	Control	1.0	n/a	Yes	2.573	n/a	5.0	GoodResponse	0	0.034	33.609	0	2	Feedback	Neutral	True
36.029	2.573	Control	1.0	n/a	Yes	2.573	n/a	n/a	GoodResponse	0	0.0	n/a	0	2	ISIslide	Neutral	True
38.621	0.25	Win2	1.0	0.0	Yes	2.829	0.021	n/a	GoodResponse	1	n/a	n/a	1	3	Cue	Win	True
38.871	3.95	Win2	1.0	0.0	Yes	2.829	0.0	n/a	GoodResponse	1	n/a	n/a	1	3	Fixation	Win	True
42.816	0.37	Win2	1.0	0.005	Yes	2.829	-0.005	2.0	GoodResponse	1	0.209	42.025	1	3	Target	Win	True
43.025	0.3	Win2	1.0	0.005	Yes	2.829	-0.005	2.0	GoodResponse	1	0.209	n/a	1	3	ButtonPress	Win	True
43.201	0.33	Win2	1.0	n/a	Yes	2.829	n/a	n/a	GoodResponse	1	n/a	n/a	1	3	Blank	Win	True
43.519	1.45	Win2	1.0	n/a	Yes	2.829	n/a	5.0	GoodResponse	1	0.017	42.536	1	3	Feedback	Win	True
44.973	2.829	Win2	1.0	n/a	Yes	2.829	n/a	n/a	GoodResponse	1	0.0	n/a	1	3	ISIslide	Win	True
47.815	0.25	Win2	1.0	0.0	Yes	3.285	0.015	n/a	GoodResponse	1	n/a	n/a	2	4	Cue	Win	True
48.065	4.0	Win2	1.0	0.001	Yes	3.285	0.0	n/a	GoodResponse	1	n/a	n/a	2	4	Fixation	Win	True
52.061	0.36	Win2	1.0	0.004	Yes	3.285	-0.004	2.0	GoodResponse	1	0.272	51.333	2	4	Target	Win	True
52.333	0.3	Win2	1.0	0.004	Yes	3.285	-0.004	2.0	GoodResponse	1	0.272	n/a	2	4	ButtonPress	Win	True
52.429	0.34	Win2	1.0	n/a	Yes	3.285	n/a	n/a	GoodResponse	1	n/a	n/a	2	4	Blank	Win	True
52.763	1.45	Win2	1.0	n/a	Yes	3.285	n/a	5.0	GoodResponse	1	0.042	51.805	2	4	Feedback	Win	True
54.217	3.285	Win2	1.0	n/a	Yes	3.285	n/a	n/a	GoodResponse	1	0.0	n/a	2	4	ISIslide	Win	True
57.527	0.25	Win2	1.0	0.0	Yes	2.773	0.027	n/a	GoodResponse	1	n/a	n/a	3	5	Cue	Win	True
57.778	4.0	Win2	1.0	0.0	Yes	2.773	0.001	n/a	GoodResponse	1	n/a	n/a	3	5	Fixation	Win	True
61.773	0.35	Win2	1.0	0.004	Yes	2.773	-0.004	2.0	GoodResponse	1	0.252	61.025	3	5	Target	Win	True
62.025	0.3	Win2	1.0	0.004	Yes	2.773	-0.004	2.0	GoodResponse	1	0.252	n/a	3	5	ButtonPress	Win	True
62.124	0.35	Win2	1.0	n/a	Yes	2.773	n/a	n/a	GoodResponse	1	n/a	n/a	3	5	Blank	Win	True
62.475	1.45	Win2	1.0	n/a	Yes	2.773	n/a	5.0	GoodResponse	1	0.036	61.511	3	5	Feedback	Win	True
63.93	2.773	Win2	1.0	n/a	Yes	2.773	n/a	n/a	GoodResponse	1	0.0	n/a	3	5	ISIslide	Win	True
66.721	0.25	Lose2	1.0	0.0	Yes	2.729	0.021	n/a	GoodResponse	0	n/a	n/a	3	6	Cue	AvoidedLoss	True
66.972	3.95	Lose2	1.0	0.0	Yes	2.729	0.001	n/a	GoodResponse	0	n/a	n/a	3	6	Fixation	AvoidedLoss	True
70.917	0.34	Lose2	1.0	0.004	Yes	2.729	-0.004	2.0	GoodResponse	0	0.238	70.155	3	6	Target	AvoidedLoss	True
71.155	0.3	Lose2	1.0	0.004	Yes	2.729	-0.004	2.0	GoodResponse	0	0.238	n/a	3	6	ButtonPress	AvoidedLoss	True
71.268	0.36	Lose2	1.0	n/a	Yes	2.729	n/a	n/a	GoodResponse	0	n/a	n/a	3	6	Blank	AvoidedLoss	True
71.619	1.45	Lose2	1.0	n/a	Yes	2.729	n/a	5.0	GoodResponse	0	0.014	70.633	3	6	Feedback	AvoidedLoss	True
73.074	2.729	Lose2	1.0	n/a	Yes	2.729	n/a	n/a	GoodResponse	0	0.0	n/a	3	6	ISIslide	AvoidedLoss	True
75.815	0.25	Lose2	1.0	0.0	Yes	4.035	0.015	n/a	GoodResponse	0	n/a	n/a	3	7	Cue	AvoidedLoss	True
76.066	4.05	Lose2	1.0	0.0	Yes	4.035	0.001	n/a	GoodResponse	0	n/a	n/a	3	7	Fixation	AvoidedLoss	True
80.111	0.33	Lose2	1.0	0.004	Yes	4.035	-0.004	2.0	GoodResponse	0	0.255	79.366	3	7	Target	AvoidedLoss	True
80.366	0.3	Lose2	1.0	0.004	Yes	4.035	-0.004	2.0	GoodResponse	0	0.255	n/a	3	7	ButtonPress	AvoidedLoss	True
80.446	0.37	Lose2	1.0	n/a	Yes	4.035	n/a	n/a	GoodResponse	0	n/a	n/a	3	7	Blank	AvoidedLoss	True
80.814	1.45	Lose2	1.0	n/a	Yes	4.035	n/a	5.0	GoodResponse	0	0.039	79.853	3	7	Feedback	AvoidedLoss	True
82.268	4.035	Lose2	1.0	n/a	Yes	4.035	n/a	n/a	GoodResponse	0	0.0	n/a	3	7	ISIslide	AvoidedLoss	True
86.33	0.25	Lose2	1.0	0.0	Yes	3.02	0.03	n/a	GoodResponse	0	n/a	n/a	3	8	Cue	AvoidedLoss	True
86.581	3.95	Lose2	1.0	0.0	Yes	3.02	0.001	n/a	GoodResponse	0	n/a	n/a	3	8	Fixation	AvoidedLoss	True
90.526	0.32	Lose2	1.0	0.004	Yes	3.02	-0.004	2.0	GoodResponse	0	0.269	89.795	3	8	Target	AvoidedLoss	True
90.795	0.3	Lose2	1.0	0.004	Yes	3.02	-0.004	2.0	GoodResponse	0	0.269	n/a	3	8	ButtonPress	AvoidedLoss	True
90.86	0.38	Lose2	1.0	n/a	Yes	3.02	n/a	n/a	GoodResponse	0	n/a	n/a	3	8	Blank	AvoidedLoss	True
91.228	1.45	Lose2	1.0	n/a	Yes	3.02	n/a	5.0	GoodResponse	0	0.015	90.243	3	8	Feedback	AvoidedLoss	True
92.682	3.02	Lose2	1.0	n/a	Yes	3.02	n/a	n/a	GoodResponse	0	0.0	n/a	3	8	ISIslide	AvoidedLoss	True
95.725	0.25	Lose2	1.0	0.0	Yes	3.125	0.025	n/a	GoodResponse	0	n/a	n/a	3	9	Cue	AvoidedLoss	True
95.976	3.95	Lose2	1.0	0.0	Yes	3.125	0.001	n/a	GoodResponse	0	n/a	n/a	3	9	Fixation	AvoidedLoss	True
99.921	0.31	Lose2	1.0	0.004	Yes	3.125	-0.004	2.0	GoodResponse	0	0.211	99.132	3	9	Target	AvoidedLoss	True
100.132	0.3	Lose2	1.0	0.004	Yes	3.125	-0.004	2.0	GoodResponse	0	0.211	n/a	3	9	ButtonPress	AvoidedLoss	True
100.238	0.39	Lose2	1.0	n/a	Yes	3.125	n/a	n/a	GoodResponse	0	n/a	n/a	3	9	Blank	AvoidedLoss	True
100.623	1.45	Lose2	1.0	n/a	Yes	3.125	n/a	5.0	GoodResponse	0	0.035	99.658	3	9	Feedback	AvoidedLoss	True
102.077	3.125	Lose2	1.0	n/a	Yes	3.125	n/a	n/a	GoodResponse	0	0.0	n/a	3	9	ISIslide	AvoidedLoss	True
105.22	0.25	Control	1.0	0.0	Yes	3.28	0.02	n/a	GoodResponse	0	n/a	n/a	3	10	Cue	Neutral	True
105.471	4.0	Control	1.0	0.0	Yes	3.28	0.001	n/a	GoodResponse	0	n/a	n/a	3	10	Fixation	Neutral	True
109.466	0.3	Control	1.0	0.004	Yes	3.28	-0.004	2.0	GoodResponse	0	0.208	108.674	3	10	Target	Neutral	True
109.674	0.3	Control	1.0	0.004	Yes	3.28	-0.004	2.0	GoodResponse	0	0.208	n/a	3	10	ButtonPress	Neutral	True
109.767	0.4	Control	1.0	n/a	Yes	3.28	n/a	n/a	GoodResponse	0	n/a	n/a	3	10	Blank	Neutral	True
110.168	1.45	Control	1.0	n/a	Yes	3.28	n/a	5.0	GoodResponse	0	0.001	109.169	3	10	Feedback	Neutral	True
111.622	3.28	Control	1.0	n/a	Yes	3.28	n/a	n/a	GoodResponse	0	0.0	n/a	3	10	ISIslide	Neutral	True
114.916	0.25	Lose2	1.0	0.0	Yes	2.734	0.016	n/a	GoodResponse	0	n/a	n/a	3	11	Cue	AvoidedLoss	True
115.166	4.05	Lose2	1.0	0.0	Yes	2.734	0.0	n/a	GoodResponse	0	n/a	n/a	3	11	Fixation	AvoidedLoss	True
119.212	0.29	Lose2	1.0	0.004	Yes	2.734	-0.004	2.0	GoodResponse	0	0.232	118.444	3	11	Target	AvoidedLoss	True
119.444	0.3	Lose2	1.0	0.004	Yes	2.734	-0.004	2.0	GoodResponse	0	0.232	n/a	3	11	ButtonPress	AvoidedLoss	True
119.513	0.41	Lose2	1.0	n/a	Yes	2.734	n/a	n/a	GoodResponse	0	n/a	n/a	3	11	Blank	AvoidedLoss	True
119.914	1.45	Lose2	1.0	n/a	Yes	2.734	n/a	5.0	GoodResponse	0	0.011	118.925	3	11	Feedback	AvoidedLoss	True
121.368	2.734	Lose2	1.0	n/a	Yes	2.734	n/a	n/a	GoodResponse	0	0.0	n/a	3	11	ISIslide	AvoidedLoss	True
124.127	0.25	Control	1.0	0.0	Yes	2.973	0.027	n/a	GoodResponse	0	n/a	n/a	3	12	Cue	Neutral	True
124.377	3.9	Control	1.0	0.0	Yes	2.973	0.0	n/a	GoodResponse	0	n/a	n/a	3	12	Fixation	Neutral	True
128.289	0.28	Control	1.0	0.0	Yes	2.973	0.012	2.0	GoodResponse	0	0.182	127.471	3	12	Target	Neutral	True
128.471	0.3	Control	1.0	0.0	Yes	2.973	0.012	2.0	GoodResponse	0	0.182	n/a	3	12	ButtonPress	Neutral	True
128.556	0.42	Control	1.0	n/a	Yes	2.973	n/a	n/a	GoodResponse	0	n/a	n/a	3	12	Blank	Neutral	True
128.974	1.45	Control	1.0	n/a	Yes	2.973	n/a	5.0	GoodResponse	0	0.025	127.999	3	12	Feedback	Neutral	True
130.429	2.973	Control	1.0	n/a	Yes	2.973	n/a	n/a	GoodResponse	0	0.0	n/a	3	12	ISIslide	Neutral	True
133.421	0.25	Control	1.0	0.0	Yes	2.779	0.021	n/a	GoodResponse	0	n/a	n/a	3	13	Cue	Neutral	True
133.672	4.0	Control	1.0	0.0	Yes	2.779	0.001	n/a	GoodResponse	0	n/a	n/a	3	13	Fixation	Neutral	True
137.667	0.27	Control	1.0	0.004	Yes	2.779	-0.004	2.0	GoodResponse	0	0.222	136.889	3	13	Target	Neutral	True
137.889	0.3	Control	1.0	0.004	Yes	2.779	-0.004	2.0	GoodResponse	0	0.222	n/a	3	13	ButtonPress	Neutral	True
137.951	0.43	Control	1.0	n/a	Yes	2.779	n/a	n/a	GoodResponse	0	n/a	n/a	3	13	Blank	Neutral	True
138.369	1.45	Control	1.0	n/a	Yes	2.779	n/a	5.0	GoodResponse	0	0.044	137.413	3	13	Feedback	Neutral	True
139.823	2.779	Control	1.0	n/a	Yes	2.779	n/a	n/a	GoodResponse	0	0.0	n/a	3	13	ISIslide	Neutral	True
142.615	0.25	Win2	1.0	0.0	Yes	2.685	0.015	n/a	GoodResponse	1	n/a	n/a	4	14	Cue	Win	True
142.866	4.1	Win2	1.0	0.0	Yes	2.685	0.001	n/a	GoodResponse	1	n/a	n/a	4	14	Fixation	Win	True
146.962	0.26	Win2	1.0	0.003	Yes	2.685	-0.003	2.0	GoodResponse	1	0.207	146.169	4	14	Target	Win	True
147.169	0.3	Win2	1.0	0.003	Yes	2.685	-0.003	2.0	GoodResponse	1	0.207	n/a	4	14	ButtonPress	Win	True
147.229	0.44	Win2	1.0	n/a	Yes	2.685	n/a	n/a	GoodResponse	1	n/a	n/a	4	14	Blank	Win	True
147.664	1.45	Win2	1.0	n/a	Yes	2.685	n/a	5.0	GoodResponse	1	0.018	146.682	4	14	Feedback	Win	True
149.118	2.685	Win2	1.0	n/a	Yes	2.685	n/a	n/a	GoodResponse	1	0.0	n/a	4	14	ISIslide	Win	True
151.826	0.25	Control	1.0	0.0	Yes	2.974	0.026	n/a	GoodResponse	0	n/a	n/a	4	15	Cue	Neutral	True
152.077	4.0	Control	1.0	0.0	Yes	2.974	0.001	n/a	GoodResponse	0	n/a	n/a	4	15	Fixation	Neutral	True
156.072	0.25	Control	1.0	0.004	Yes	2.974	-0.004	2.0	GoodResponse	0	0.223	155.295	4	15	Target	Neutral	True
156.295	0.3	Control	1.0	0.004	Yes	2.974	-0.004	2.0	GoodResponse	0	0.223	n/a	4	15	ButtonPress	Neutral	True
156.323	0.45	Control	1.0	n/a	Yes	2.974	n/a	n/a	GoodResponse	0	n/a	n/a	4	15	Blank	Neutral	True
156.774	1.45	Control	1.0	n/a	Yes	2.974	n/a	5.0	GoodResponse	0	0.03	155.804	4	15	Feedback	Neutral	True
158.229	2.974	Control	1.0	n/a	Yes	2.974	n/a	n/a	GoodResponse	0	0.0	n/a	4	15	ISIslide	Neutral	True
161.221	0.25	Win2	1.0	0.0	Yes	2.879	0.021	n/a	GoodResponse	1	n/a	n/a	5	16	Cue	Win	True
161.472	4.0	Win2	1.0	0.0	Yes	2.879	0.001	n/a	GoodResponse	1	n/a	n/a	5	16	Fixation	Win	True
165.467	0.24	Win2	1.0	0.004	Yes	2.879	-0.004	2.0	GoodResponse	1	0.215	164.682	5	16	Target	Win	True
165.682	0.3	Win2	1.0	0.004	Yes	2.879	-0.004	2.0	GoodResponse	1	0.215	n/a	5	16	ButtonPress	Win	True
165.718	0.46	Win2	1.0	n/a	Yes	2.879	n/a	n/a	GoodResponse	1	n/a	n/a	5	16	Blank	Win	True
166.169	1.45	Win2	1.0	n/a	Yes	2.879	n/a	5.0	GoodResponse	1	0.0	165.169	5	16	Feedback	Win	True
167.623	2.879	Win2	1.0	n/a	Yes	2.879	n/a	n/a	GoodResponse	1	0.0	n/a	5	16	ISIslide	Win	True
170.515	0.25	Lose2	0.9444	0.0	No	2.735	0.015	n/a	NoResponse	-1	n/a	n/a	4	17	Cue	Loss	True
170.766	3.95	Lose2	0.9444	0.0	No	2.735	0.001	n/a	NoResponse	-1	n/a	n/a	4	17	Fixation	Loss	True
174.711	0.23	Lose2	0.9444	0.004	No	2.735	-0.004	2.0	NoResponse	-1	0.317	174.028	4	17	Target	Loss	True
174.945	0.47	Lose2	0.9444	n/a	No	2.735	n/a	n/a	NoResponse	-1	n/a	n/a	4	17	Blank	Loss	True
175.028	0.3	Lose2	0.9444	0.004	No	2.735	-0.004	2.0	NoResponse	-1	0.317	n/a	4	17	ButtonPress	Loss	True
175.413	1.45	Lose2	0.9444	n/a	No	2.735	n/a	5.0	NoResponse	-1	0.024	174.437	4	17	Feedback	Loss	True
176.868	2.735	Lose2	0.9444	n/a	No	2.735	n/a	n/a	NoResponse	-1	0.0	n/a	4	17	ISIslide	Loss	True
179.626	0.25	Lose2	0.9473999999999999	0.0	Yes	2.724	0.026	n/a	GoodResponse	0	n/a	n/a	4	18	Cue	AvoidedLoss	True
179.877	4.05	Lose2	0.9473999999999999	0.0	Yes	2.724	0.001	n/a	GoodResponse	0	n/a	n/a	4	18	Fixation	AvoidedLoss	True
183.922	0.22	Lose2	0.9473999999999999	0.004	Yes	2.724	-0.004	2.0	GoodResponse	0	0.206	183.128	4	18	Target	AvoidedLoss	True
184.128	0.3	Lose2	0.9473999999999999	0.004	Yes	2.724	-0.004	2.0	GoodResponse	0	0.206	n/a	4	18	ButtonPress	AvoidedLoss	True
184.156	0.48	Lose2	0.9473999999999999	n/a	Yes	2.724	n/a	n/a	GoodResponse	0	n/a	n/a	4	18	Blank	AvoidedLoss	True
184.624	1.45	Lose2	0.9473999999999999	n/a	Yes	2.724	n/a	5.0	GoodResponse	0	0.033	183.657	4	18	Feedback	AvoidedLoss	True
186.079	2.724	Lose2	0.9473999999999999	n/a	Yes	2.724	n/a	n/a	GoodResponse	0	0.0	n/a	4	18	ISIslide	AvoidedLoss	True
188.82	0.25	Control	0.9	0.0	No	2.93	0.02	n/a	NoResponse	0	n/a	n/a	4	19	Cue	Neutral	True
189.071	3.95	Control	0.9	0.0	No	2.93	0.001	n/a	NoResponse	0	n/a	n/a	4	19	Fixation	Neutral	True
193.016	0.21	Control	0.9	0.004	No	2.93	-0.004	2.0	NoResponse	0	0.257	192.273	4	19	Target	Neutral	True
193.233	0.49	Control	0.9	n/a	No	2.93	n/a	n/a	NoResponse	0	n/a	n/a	4	19	Blank	Neutral	True
193.273	0.3	Control	0.9	0.004	No	2.93	-0.004	2.0	NoResponse	0	0.257	n/a	4	19	ButtonPress	Neutral	True
193.718	1.45	Control	0.9	n/a	No	2.93	n/a	5.0	NoResponse	0	0.012	192.73	4	19	Feedback	Neutral	True
195.173	2.93	Control	0.9	n/a	No	2.93	n/a	n/a	NoResponse	0	0.0	n/a	4	19	ISIslide	Neutral	True
198.115	0.25	Control	0.9048	0.0	Yes	2.635	0.015	n/a	GoodResponse	0	n/a	n/a	4	20	Cue	Neutral	True
198.365	4.05	Control	0.9048	0.0	Yes	2.635	0.0	n/a	GoodResponse	0	n/a	n/a	4	20	Fixation	Neutral	True
202.411	0.2	Control	0.9048	0.004	Yes	2.635	-0.004	2.0	GoodResponse	0	0.155	201.566	4	20	Target	Neutral	True
202.566	0.3	Control	0.9048	0.004	Yes	2.635	-0.004	2.0	GoodResponse	0	0.155	n/a	4	20	ButtonPress	Neutral	True
202.611	0.5	Control	0.9048	n/a	Yes	2.635	n/a	n/a	GoodResponse	0	n/a	n/a	4	20	Blank	Neutral	True
203.113	1.45	Control	0.9048	n/a	Yes	2.635	n/a	5.0	GoodResponse	0	0.032	202.145	4	20	Feedback	Neutral	True
204.567	2.635	Control	0.9048	n/a	Yes	2.635	n/a	n/a	GoodResponse	0	0.0	n/a	4	20	ISIslide	Neutral	True
207.225	0.25	Control	0.8636	0.0	No	2.775	0.025	n/a	PrematurePress	0	n/a	n/a	4	21	Cue	Neutral	True
207.476	4.1	Control	0.8636	0.0	No	2.775	0.001	n/a	PrematurePress	0	n/a	n/a	4	21	Fixation	Neutral	True
211.572	0.19	Control	0.8636	0.003	No	2.775	-0.003	2.0	PrematurePress	0	0.083	210.655	4	21	Target	Neutral	True
211.655	0.3	Control	0.8636	0.003	No	2.775	-0.003	2.0	PrematurePress	0	0.083	n/a	4	21	ButtonPress	Neutral	True
211.772	0.51	Control	0.8636	n/a	No	2.775	n/a	n/a	PrematurePress	0	n/a	n/a	4	21	Blank	Neutral	True
212.274	1.45	Control	0.8636	n/a	No	2.775	n/a	5.0	PrematurePress	0	0.041	211.315	4	21	Feedback	Neutral	True
213.728	2.775	Control	0.8636	n/a	No	2.775	n/a	n/a	PrematurePress	0	0.0	n/a	4	21	ISIslide	Neutral	True
216.52	0.25	Control	0.8261	0.0	No	2.78	0.02	n/a	NoResponse	0	n/a	n/a	4	22	Cue	Neutral	False
216.77	4.0	Control	0.8261	0.001	No	2.78	0.0	2.0	NoResponse	0	3.123	218.893	4	22	Fixation	Neutral	False
219.893	0.3	Control	0.8261	0.001	No	2.78	0.0	2.0	NoResponse	0	3.123	n/a	4	22	ButtonPress	Neutral	False
220.766	0.18	Control	0.8261	0.004	No	2.78	-0.004	2.0	NoResponse	0	0.222	219.988	4	22	Target	Neutral	False
220.95	0.52	Control	0.8261	n/a	No	2.78	n/a	n/a	NoResponse	0	n/a	n/a	4	22	Blank	Neutral	False
220.988	0.3	Control	0.8261	0.004	No	2.78	-0.004	2.0	NoResponse	0	0.222	n/a	4	22	ButtonPress	Neutral	False
221.468	1.45	Control	0.8261	n/a	No	2.78	n/a	5.0	NoResponse	0	0.017	220.485	4	22	Feedback	Neutral	False
222.922	2.78	Control	0.8261	n/a	No	2.78	n/a	n/a	NoResponse	0	0.0	n/a	4	22	ISIslide	Neutral	False
225.714	0.25	Control	0.7917000000000001	0.0	No	2.786	0.014	n/a	NoResponse	0	n/a	n/a	4	23	Cue	Neutral	True
225.965	3.9	Control	0.7917000000000001	0.0	No	2.786	0.001	n/a	NoResponse	0	n/a	n/a	4	23	Fixation	Neutral	True
229.86	0.17	Control	0.7917000000000001	0.004	No	2.786	-0.004	2.0	NoResponse	0	0.22	229.08	4	23	Target	Neutral	True
230.044	0.53	Control	0.7917000000000001	n/a	No	2.786	n/a	n/a	NoResponse	0	n/a	n/a	4	23	Blank	Neutral	True
230.08	0.3	Control	0.7917000000000001	0.004	No	2.786	-0.004	2.0	NoResponse	0	0.22	n/a	4	23	ButtonPress	Neutral	True
230.562	1.45	Control	0.7917000000000001	n/a	No	2.786	n/a	5.0	NoResponse	0	0.046	229.608	4	23	Feedback	Neutral	True
232.016	2.786	Control	0.7917000000000001	n/a	No	2.786	n/a	n/a	NoResponse	0	0.0	n/a	4	23	ISIslide	Neutral	True
234.825	0.25	Win2	0.76	0.0	No	3.125	0.025	n/a	NoResponse	0	n/a	n/a	4	24	Cue	MissedWin	True
235.075	3.95	Win2	0.76	0.0	No	3.125	0.0	n/a	NoResponse	0	n/a	n/a	4	24	Fixation	MissedWin	True
239.037	0.16	Win2	0.76	0.0	No	3.125	0.012	2.0	NoResponse	0	0.19	238.227	4	24	Target	MissedWin	True
239.188	0.54	Win2	0.76	n/a	No	3.125	n/a	n/a	NoResponse	0	n/a	n/a	4	24	Blank	MissedWin	True
239.227	0.3	Win2	0.76	0.0	No	3.125	0.012	2.0	NoResponse	0	0.19	n/a	4	24	ButtonPress	MissedWin	True
239.723	1.45	Win2	0.76	n/a	No	3.125	n/a	5.0	NoResponse	0	0.007	238.73	4	24	Feedback	MissedWin	True
241.177	3.125	Win2	0.76	n/a	No	3.125	n/a	n/a	NoResponse	0	0.0	n/a	4	24	ISIslide	MissedWin	True
244.32	0.25	Win2	0.7308	0.0	No	3.08	0.02	n/a	NoResponse	0	n/a	n/a	4	25	Cue	MissedWin	True
244.57	4.0	Win2	0.7308	0.0	No	3.08	0.0	n/a	NoResponse	0	n/a	n/a	4	25	Fixation	MissedWin	True
248.566	0.15	Win2	0.7308	0.004	No	3.08	-0.004	2.0	NoResponse	0	0.199	247.765	4	25	Target	MissedWin	True
248.716	0.55	Win2	0.7308	n/a	No	3.08	n/a	n/a	NoResponse	0	n/a	n/a	4	25	Blank	MissedWin	True
248.765	0.3	Win2	0.7308	0.004	No	3.08	-0.004	2.0	NoResponse	0	0.199	n/a	4	25	ButtonPress	MissedWin	True
249.268	1.45	Win2	0.7308	n/a	No	3.08	n/a	5.0	NoResponse	0	0.023	248.291	4	25	Feedback	MissedWin	True
250.722	3.08	Win2	0.7308	n/a	No	3.08	n/a	n/a	NoResponse	0	0.0	n/a	4	25	ISIslide	MissedWin	True
253.815	0.25	Win2	0.7037	0.0	No	2.935	0.015	n/a	NoResponse	0	n/a	n/a	4	26	Cue	MissedWin	False
254.065	3.95	Win2	0.7037	0.001	No	2.935	0.0	2.0	NoResponse	0	2.484	255.549	4	26	Fixation	MissedWin	False
256.549	0.3	Win2	0.7037	0.001	No	2.935	0.0	2.0	NoResponse	0	2.484	n/a	4	26	ButtonPress	MissedWin	False
258.011	0.15	Win2	0.7037	0.004	No	2.935	-0.004	2.0	NoResponse	0	0.282	257.293	4	26	Target	MissedWin	False
258.161	0.55	Win2	0.7037	n/a	No	2.935	n/a	n/a	NoResponse	0	n/a	n/a	4	26	Blank	MissedWin	False
258.293	0.3	Win2	0.7037	0.004	No	2.935	-0.004	2.0	NoResponse	0	0.282	n/a	4	26	ButtonPress	MissedWin	False
258.713	1.45	Win2	0.7037	n/a	No	2.935	n/a	5.0	NoResponse	0	0.04	257.753	4	26	Feedback	MissedWin	False
260.167	2.935	Win2	0.7037	n/a	No	2.935	n/a	n/a	NoResponse	0	0.0	n/a	4	26	ISIslide	MissedWin	False
263.126	0.25	Lose2	0.6786	0.0	No	2.824	0.026	n/a	NoResponse	-1	n/a	n/a	3	27	Cue	Loss	True
263.377	4.05	Lose2	0.6786	0.0	No	2.824	0.001	n/a	NoResponse	-1	n/a	n/a	3	27	Fixation	Loss	True
267.422	0.15	Lose2	0.6786	0.004	No	2.824	-0.004	2.0	NoResponse	-1	0.195	266.617	3	27	Target	Loss	True
267.573	0.55	Lose2	0.6786	n/a	No	2.824	n/a	n/a	NoResponse	-1	n/a	n/a	3	27	Blank	Loss	True
267.617	0.3	Lose2	0.6786	0.004	No	2.824	-0.004	2.0	NoResponse	-1	0.195	n/a	3	27	ButtonPress	Loss	True
268.124	1.45	Lose2	0.6786	n/a	No	2.824	n/a	5.0	NoResponse	-1	0.044	267.168	3	27	Feedback	Loss	True
269.579	2.824	Lose2	0.6786	n/a	No	2.824	n/a	n/a	NoResponse	-1	0.0	n/a	3	27	ISIslide	Loss	True
272.42	0.25	Control	0.6552	0.001	No	2.83	0.02	n/a	NoResponse	0	n/a	n/a	3	28	Cue	Neutral	False
272.671	4.05	Control	0.6552	0.0	No	2.83	0.001	2.0	NoResponse	0	3.657	275.328	3	28	Fixation	Neutral	False
276.328	0.3	Control	0.6552	0.0	No	2.83	0.001	2.0	NoResponse	0	3.657	n/a	3	28	ButtonPress	Neutral	False
276.717	0.15	Control	0.6552	0.003	No	2.83	-0.003	2.0	NoResponse	0	0.224	275.941	3	28	Target	Neutral	False
276.867	0.55	Control	0.6552	n/a	No	2.83	n/a	n/a	NoResponse	0	n/a	n/a	3	28	Blank	Neutral	False
276.941	0.3	Control	0.6552	0.003	No	2.83	-0.003	2.0	NoResponse	0	0.224	n/a	3	28	ButtonPress	Neutral	False
277.419	1.45	Control	0.6552	n/a	No	2.83	n/a	5.0	NoResponse	0	0.017	276.436	3	28	Feedback	Neutral	False
278.873	2.83	Control	0.6552	n/a	No	2.83	n/a	n/a	NoResponse	0	0.0	n/a	3	28	ISIslide	Neutral	False
281.715	0.25	Lose2	0.6333	0.0	No	2.835	0.015	n/a	NoResponse	-1	n/a	n/a	2	29	Cue	Loss	True
281.966	3.95	Lose2	0.6333	0.0	No	2.835	0.001	n/a	NoResponse	-1	n/a	n/a	2	29	Fixation	Loss	True
285.911	0.15	Lose2	0.6333	0.004	No	2.835	-0.004	2.0	NoResponse	-1	0.212	285.123	2	29	Target	Loss	True
286.061	0.55	Lose2	0.6333	n/a	No	2.835	n/a	n/a	NoResponse	-1	n/a	n/a	2	29	Blank	Loss	True
286.123	0.3	Lose2	0.6333	0.004	No	2.835	-0.004	2.0	NoResponse	-1	0.212	n/a	2	29	ButtonPress	Loss	True
286.613	1.45	Lose2	0.6333	n/a	No	2.835	n/a	5.0	NoResponse	-1	0.043	285.656	2	29	Feedback	Loss	True
288.067	2.835	Lose2	0.6333	n/a	No	2.835	n/a	n/a	NoResponse	-1	0.0	n/a	2	29	ISIslide	Loss	True
290.926	0.25	Win2	0.6129	0.0	No	2.774	0.026	n/a	LatePress	0	n/a	n/a	2	30	Cue	MissedWin	True
291.177	3.9	Win2	0.6129	0.0	No	2.774	0.001	n/a	LatePress	0	n/a	n/a	2	30	Fixation	MissedWin	True
295.072	0.16	Win2	0.6129	0.004	No	2.774	-0.004	2.0	LatePress	0	0.167	294.239	2	30	Target	MissedWin	True
295.239	0.54	Win2	0.6129	n/a	No	2.774	n/a	n/a	LatePress	0	n/a	n/a	2	30	Blank	MissedWin	True
295.239	0.3	Win2	0.6129	0.004	No	2.774	-0.004	2.0	LatePress	0	0.167	n/a	2	30	ButtonPress	MissedWin	True
295.774	1.45	Win2	0.6129	n/a	No	2.774	n/a	5.0	LatePress	0	0.006	294.78	2	30	Feedback	MissedWin	True
297.228	2.774	Win2	0.6129	n/a	No	2.774	n/a	n/a	LatePress	0	0.0	n/a	2	30	ISIslide	MissedWin	True
300.02	0.25	Lose2	0.5938	0.0	No	2.83	0.02	n/a	NoResponse	-1	n/a	n/a	1	31	Cue	Loss	True
300.27	4.05	Lose2	0.5938	0.001	No	2.83	0.0	n/a	NoResponse	-1	n/a	n/a	1	31	Fixation	Loss	True
304.316	0.17	Lose2	0.5938	0.004	No	2.83	-0.004	2.0	NoResponse	-1	0.196	303.512	1	31	Target	Loss	True
304.5	0.53	Lose2	0.5938	n/a	No	2.83	n/a	n/a	NoResponse	-1	n/a	n/a	1	31	Blank	Loss	True
304.512	0.3	Lose2	0.5938	0.004	No	2.83	-0.004	2.0	NoResponse	-1	0.196	n/a	1	31	ButtonPress	Loss	True
305.018	1.45	Lose2	0.5938	n/a	No	2.83	n/a	5.0	NoResponse	-1	0.028	304.046	1	31	Feedback	Loss	True
306.472	2.83	Lose2	0.5938	n/a	No	2.83	n/a	n/a	NoResponse	-1	0.0	n/a	1	31	ISIslide	Loss	True
309.314	0.25	Lose2	0.6061	0.0	Yes	2.636	0.014	n/a	GoodResponse	0	n/a	n/a	1	32	Cue	AvoidedLoss	False
309.565	4.15	Lose2	0.6061	0.0	Yes	2.636	0.001	2.0	GoodResponse	0	3.684	312.249	1	32	Fixation	AvoidedLoss	False
313.249	0.3	Lose2	0.6061	0.0	Yes	2.636	0.001	2.0	GoodResponse	0	3.684	n/a	1	32	ButtonPress	AvoidedLoss	False
313.711	0.18	Lose2	0.6061	0.003	Yes	2.636	-0.003	2.0	GoodResponse	0	0.176	312.887	1	32	Target	AvoidedLoss	False
313.887	0.3	Lose2	0.6061	0.003	Yes	2.636	-0.003	2.0	GoodResponse	0	0.176	n/a	1	32	ButtonPress	AvoidedLoss	False
313.895	0.52	Lose2	0.6061	n/a	Yes	2.636	n/a	n/a	GoodResponse	0	n/a	n/a	1	32	Blank	AvoidedLoss	False
314.413	1.45	Lose2	0.6061	n/a	Yes	2.636	n/a	5.0	GoodResponse	0	0.047	313.46	1	32	Feedback	AvoidedLoss	False
315.867	2.636	Lose2	0.6061	n/a	Yes	2.636	n/a	n/a	GoodResponse	0	0.0	n/a	1	32	ISIslide	AvoidedLoss	False
318.525	0.25	Win2	0.6175999999999999	0.0	Yes	2.675	0.025	n/a	GoodResponse	1	n/a	n/a	2	33	Cue	Win	True
318.776	4.0	Win2	0.6175999999999999	0.0	Yes	2.675	0.001	n/a	GoodResponse	1	n/a	n/a	2	33	Fixation	Win	True
322.771	0.19	Win2	0.6175999999999999	0.004	Yes	2.675	-0.004	2.0	GoodResponse	1	0.175	321.946	2	33	Target	Win	True
322.946	0.3	Win2	0.6175999999999999	0.004	Yes	2.675	-0.004	2.0	GoodResponse	1	0.175	n/a	2	33	ButtonPress	Win	True
322.972	0.51	Win2	0.6175999999999999	n/a	Yes	2.675	n/a	n/a	GoodResponse	1	n/a	n/a	2	33	Blank	Win	True
323.473	1.45	Win2	0.6175999999999999	n/a	Yes	2.675	n/a	5.0	GoodResponse	1	0.012	322.485	2	33	Feedback	Win	True
324.928	2.675	Win2	0.6175999999999999	n/a	Yes	2.675	n/a	n/a	GoodResponse	1	0.0	n/a	2	33	ISIslide	Win	True
327.619	0.25	Lose2	0.6286	0.0	Yes	2.631	0.019	n/a	GoodResponse	0	n/a	n/a	2	34	Cue	AvoidedLoss	True
327.87	4.05	Lose2	0.6286	0.0	Yes	2.631	0.001	n/a	GoodResponse	0	n/a	n/a	2	34	Fixation	AvoidedLoss	True
331.915	0.2	Lose2	0.6286	0.004	Yes	2.631	-0.004	2.0	GoodResponse	0	0.191	331.106	2	34	Target	AvoidedLoss	True
332.106	0.3	Lose2	0.6286	0.004	Yes	2.631	-0.004	2.0	GoodResponse	0	0.191	n/a	2	34	ButtonPress	AvoidedLoss	True
332.116	0.5	Lose2	0.6286	n/a	Yes	2.631	n/a	n/a	GoodResponse	0	n/a	n/a	2	34	Blank	AvoidedLoss	True
332.617	1.45	Lose2	0.6286	n/a	Yes	2.631	n/a	5.0	GoodResponse	0	0.038	331.655	2	34	Feedback	AvoidedLoss	True
334.072	2.631	Lose2	0.6286	n/a	Yes	2.631	n/a	n/a	GoodResponse	0	0.0	n/a	2	34	ISIslide	AvoidedLoss	True
336.73	0.25	Lose2	0.6389	0.0	Yes	2.67	0.03	n/a	GoodResponse	0	n/a	n/a	2	35	Cue	AvoidedLoss	True
336.98	4.0	Lose2	0.6389	0.0	Yes	2.67	0.0	n/a	GoodResponse	0	n/a	n/a	2	35	Fixation	AvoidedLoss	True
340.976	0.21	Lose2	0.6389	0.004	Yes	2.67	-0.004	2.0	GoodResponse	0	0.182	340.158	2	35	Target	AvoidedLoss	True
341.158	0.3	Lose2	0.6389	0.004	Yes	2.67	-0.004	2.0	GoodResponse	0	0.182	n/a	2	35	ButtonPress	AvoidedLoss	True
341.193	0.49	Lose2	0.6389	n/a	Yes	2.67	n/a	n/a	GoodResponse	0	n/a	n/a	2	35	Blank	AvoidedLoss	True
341.678	1.45	Lose2	0.6389	n/a	Yes	2.67	n/a	5.0	GoodResponse	0	0.002	340.68	2	35	Feedback	AvoidedLoss	True
343.132	2.67	Lose2	0.6389	n/a	Yes	2.67	n/a	n/a	GoodResponse	0	0.0	n/a	2	35	ISIslide	AvoidedLoss	True
345.823	0.25	Control	0.6215999999999999	0.001	No	2.677	0.023	n/a	LatePress	0	n/a	n/a	2	36	Cue	Neutral	True
346.074	4.0	Control	0.6215999999999999	0.0	No	2.677	0.001	n/a	LatePress	0	n/a	n/a	2	36	Fixation	Neutral	True
350.069	0.22	Control	0.6215999999999999	0.004	No	2.677	-0.004	2.0	LatePress	0	0.229	349.298	2	36	Target	Neutral	True
350.298	0.3	Control	0.6215999999999999	0.004	No	2.677	-0.004	2.0	LatePress	0	0.229	n/a	2	36	ButtonPress	Neutral	True
350.304	0.48	Control	0.6215999999999999	n/a	No	2.677	n/a	n/a	LatePress	0	n/a	n/a	2	36	Blank	Neutral	True
350.772	1.45	Control	0.6215999999999999	n/a	No	2.677	n/a	5.0	LatePress	0	0.03	349.802	2	36	Feedback	Neutral	True
352.226	2.677	Control	0.6215999999999999	n/a	No	2.677	n/a	n/a	LatePress	0	0.0	n/a	2	36	ISIslide	Neutral	True
354.917	0.25	Win2	0.6315999999999999	0.0	Yes	2.883	0.017	n/a	GoodResponse	1	n/a	n/a	3	37	Cue	Win	False
355.168	4.0	Win2	0.6315999999999999	0.0	Yes	2.883	0.001	2.0	GoodResponse	1	0.2	354.368	3	37	Fixation	Win	False
355.368	0.3	Win2	0.6315999999999999	0.0	Yes	2.883	0.001	2.0	GoodResponse	1	0.2	n/a	3	37	ButtonPress	Win	False
359.163	0.23	Win2	0.6315999999999999	0.004	Yes	2.883	-0.004	2.0	GoodResponse	1	0.203	358.366	3	37	Target	Win	False
359.366	0.3	Win2	0.6315999999999999	0.004	Yes	2.883	-0.004	2.0	GoodResponse	1	0.203	n/a	3	37	ButtonPress	Win	False
359.397	0.47	Win2	0.6315999999999999	n/a	Yes	2.883	n/a	n/a	GoodResponse	1	n/a	n/a	3	37	Blank	Win	False
359.865	1.45	Win2	0.6315999999999999	n/a	Yes	2.883	n/a	5.0	GoodResponse	1	0.009	358.874	3	37	Feedback	Win	False
361.32	2.883	Win2	0.6315999999999999	n/a	Yes	2.883	n/a	n/a	GoodResponse	1	0.0	n/a	3	37	ISIslide	Win	False
364.229	0.25	Lose2	0.6409999999999999	0.0	Yes	2.821	0.029	n/a	GoodResponse	0	n/a	n/a	3	38	Cue	AvoidedLoss	True
364.479	3.95	Lose2	0.6409999999999999	0.0	Yes	2.821	0.0	n/a	GoodResponse	0	n/a	n/a	3	38	Fixation	AvoidedLoss	True
368.424	0.24	Lose2	0.6409999999999999	0.005	Yes	2.821	-0.005	2.0	GoodResponse	0	0.217	367.641	3	38	Target	AvoidedLoss	True
368.641	0.3	Lose2	0.6409999999999999	0.005	Yes	2.821	-0.005	2.0	GoodResponse	0	0.217	n/a	3	38	ButtonPress	AvoidedLoss	True
368.675	0.46	Lose2	0.6409999999999999	n/a	Yes	2.821	n/a	n/a	GoodResponse	0	n/a	n/a	3	38	Blank	AvoidedLoss	True
369.127	1.45	Lose2	0.6409999999999999	n/a	Yes	2.821	n/a	5.0	GoodResponse	0	0.016	368.143	3	38	Feedback	AvoidedLoss	True
370.581	2.821	Lose2	0.6409999999999999	n/a	Yes	2.821	n/a	n/a	GoodResponse	0	0.0	n/a	3	38	ISIslide	AvoidedLoss	True
373.423	0.25	Win2	0.65	0.0	Yes	2.977	0.023	n/a	GoodResponse	1	n/a	n/a	4	39	Cue	Win	True
373.673	4.1	Win2	0.65	0.001	Yes	2.977	0.0	n/a	GoodResponse	1	n/a	n/a	4	39	Fixation	Win	True
377.769	0.25	Win2	0.65	0.004	Yes	2.977	-0.004	2.0	GoodResponse	1	0.207	376.976	4	39	Target	Win	True
377.976	0.3	Win2	0.65	0.004	Yes	2.977	-0.004	2.0	GoodResponse	1	0.207	n/a	4	39	ButtonPress	Win	True
378.02	0.45	Win2	0.65	n/a	Yes	2.977	n/a	n/a	GoodResponse	1	n/a	n/a	4	39	Blank	Win	True
378.471	1.45	Win2	0.65	n/a	Yes	2.977	n/a	5.0	GoodResponse	1	0.038	377.509	4	39	Feedback	Win	True
379.926	2.977	Win2	0.65	n/a	Yes	2.977	n/a	n/a	GoodResponse	1	0.0	n/a	4	39	ISIslide	Win	True
382.918	0.25	Win2	0.6585	0.0	Yes	2.732	0.018	n/a	GoodResponse	1	n/a	n/a	5	40	Cue	Win	True
383.169	3.95	Win2	0.6585	0.0	Yes	2.732	0.001	n/a	GoodResponse	1	n/a	n/a	5	40	Fixation	Win	True
387.114	0.26	Win2	0.6585	0.004	Yes	2.732	-0.004	2.0	GoodResponse	1	0.221	386.335	5	40	Target	Win	True
387.335	0.3	Win2	0.6585	0.004	Yes	2.732	-0.004	2.0	GoodResponse	1	0.221	n/a	5	40	ButtonPress	Win	True
387.381	0.44	Win2	0.6585	n/a	Yes	2.732	n/a	n/a	GoodResponse	1	n/a	n/a	5	40	Blank	Win	True
387.816	1.45	Win2	0.6585	n/a	Yes	2.732	n/a	5.0	GoodResponse	1	0.01	386.826	5	40	Feedback	Win	True
389.27	2.732	Win2	0.6585	n/a	Yes	2.732	n/a	n/a	GoodResponse	1	0.0	n/a	5	40	ISIslide	Win	True
392.028	0.25	Win2	0.6667000000000001	0.001	Yes	2.772	0.028	n/a	GoodResponse	1	n/a	n/a	6	41	Cue	Win	True
392.279	3.9	Win2	0.6667000000000001	0.0	Yes	2.772	0.001	n/a	GoodResponse	1	n/a	n/a	6	41	Fixation	Win	True
396.174	0.26	Win2	0.6667000000000001	0.004	Yes	2.772	-0.004	2.0	GoodResponse	1	0.203	395.377	6	41	Target	Win	True
396.377	0.3	Win2	0.6667000000000001	0.004	Yes	2.772	-0.004	2.0	GoodResponse	1	0.203	n/a	6	41	ButtonPress	Win	True
396.442	0.44	Win2	0.6667000000000001	n/a	Yes	2.772	n/a	n/a	GoodResponse	1	n/a	n/a	6	41	Blank	Win	True
396.876	1.45	Win2	0.6667000000000001	n/a	Yes	2.772	n/a	5.0	GoodResponse	1	0.023	395.899	6	41	Feedback	Win	True
398.331	2.772	Win2	0.6667000000000001	n/a	Yes	2.772	n/a	n/a	GoodResponse	1	0.0	n/a	6	41	ISIslide	Win	True
401.122	0.25	Control	0.6744	0.0	Yes	2.928	0.022	n/a	GoodResponse	0	n/a	n/a	6	42	Cue	Neutral	True
401.373	3.85	Control	0.6744	0.0	Yes	2.928	0.001	n/a	GoodResponse	0	n/a	n/a	6	42	Fixation	Neutral	True
405.218	0.25	Control	0.6744	0.004	Yes	2.928	-0.004	2.0	GoodResponse	0	0.193	404.411	6	42	Target	Neutral	True
405.411	0.3	Control	0.6744	0.004	Yes	2.928	-0.004	2.0	GoodResponse	0	0.193	n/a	6	42	ButtonPress	Neutral	True
405.469	0.45	Control	0.6744	n/a	Yes	2.928	n/a	n/a	GoodResponse	0	n/a	n/a	6	42	Blank	Neutral	True
405.92	1.45	Control	0.6744	n/a	Yes	2.928	n/a	5.0	GoodResponse	0	0.006	404.926	6	42	Feedback	Neutral	True
407.374	2.928	Control	0.6744	n/a	Yes	2.928	n/a	n/a	GoodResponse	0	0.0	n/a	6	42	ISIslide	Neutral	True
410.316	0.25	Win2	0.6818000000000001	0.001	Yes	3.184	0.016	n/a	GoodResponse	1	n/a	n/a	7	43	Cue	Win	True
410.567	4.0	Win2	0.6818000000000001	0.0	Yes	3.184	0.001	n/a	GoodResponse	1	n/a	n/a	7	43	Fixation	Win	True
414.563	0.24	Win2	0.6818000000000001	0.003	Yes	3.184	-0.003	2.0	GoodResponse	1	0.166	413.729	7	43	Target	Win	True
414.729	0.3	Win2	0.6818000000000001	0.003	Yes	3.184	-0.003	2.0	GoodResponse	1	0.166	n/a	7	43	ButtonPress	Win	True
414.813	0.46	Win2	0.6818000000000001	n/a	Yes	3.184	n/a	n/a	GoodResponse	1	n/a	n/a	7	43	Blank	Win	True
415.265	1.45	Win2	0.6818000000000001	n/a	Yes	3.184	n/a	5.0	GoodResponse	1	0.024	414.289	7	43	Feedback	Win	True
416.719	3.184	Win2	0.6818000000000001	n/a	Yes	3.184	n/a	n/a	GoodResponse	1	0.0	n/a	7	43	ISIslide	Win	True
419.929	0.25	Win2	0.6667000000000001	0.0	No	2.971	0.029	n/a	NoResponse	0	n/a	n/a	7	44	Cue	MissedWin	True
420.179	4.0	Win2	0.6667000000000001	0.0	No	2.971	0.0	n/a	NoResponse	0	n/a	n/a	7	44	Fixation	MissedWin	True
424.175	0.23	Win2	0.6667000000000001	0.004	No	2.971	-0.004	2.0	NoResponse	0	0.241	423.416	7	44	Target	MissedWin	True
424.409	0.47	Win2	0.6667000000000001	n/a	No	2.971	n/a	n/a	NoResponse	0	n/a	n/a	7	44	Blank	MissedWin	True
424.416	0.3	Win2	0.6667000000000001	0.004	No	2.971	-0.004	2.0	NoResponse	0	0.241	n/a	7	44	ButtonPress	MissedWin	True
424.877	1.45	Win2	0.6667000000000001	n/a	No	2.971	n/a	5.0	NoResponse	0	0.021	423.898	7	44	Feedback	MissedWin	True
426.331	2.971	Win2	0.6667000000000001	n/a	No	2.971	n/a	n/a	NoResponse	0	0.0	n/a	7	44	ISIslide	MissedWin	True
429.323	0.25	Control	0.6522	0.0	No	2.877	0.023	n/a	NoResponse	0	n/a	n/a	7	45	Cue	Neutral	True
429.574	4.1	Control	0.6522	0.0	No	2.877	0.001	n/a	NoResponse	0	n/a	n/a	7	45	Fixation	Neutral	True
433.67	0.22	Control	0.6522	0.003	No	2.877	-0.003	2.0	NoResponse	0	0.344	433.014	7	45	Target	Neutral	True
433.904	0.48	Control	0.6522	n/a	No	2.877	n/a	n/a	NoResponse	0	n/a	n/a	7	45	Blank	Neutral	True
434.014	0.3	Control	0.6522	0.003	No	2.877	-0.003	2.0	NoResponse	0	0.344	n/a	7	45	ButtonPress	Neutral	True
434.372	1.45	Control	0.6522	n/a	No	2.877	n/a	5.0	NoResponse	0	0.039	433.411	7	45	Feedback	Neutral	True
435.826	2.877	Control	0.6522	n/a	No	2.877	n/a	n/a	NoResponse	0	0.0	n/a	7	45	ISIslide	Neutral	True
438.718	0.25	Lose2	0.6596	0.0	Yes	3.382	0.018	n/a	GoodResponse	0	n/a	n/a	7	46	Cue	AvoidedLoss	True
438.969	4.0	Lose2	0.6596	0.0	Yes	3.382	0.001	n/a	GoodResponse	0	n/a	n/a	7	46	Fixation	AvoidedLoss	True
442.964	0.23	Lose2	0.6596	0.004	Yes	3.382	-0.004	2.0	GoodResponse	0	0.194	442.158	7	46	Target	AvoidedLoss	True
443.158	0.3	Lose2	0.6596	0.004	Yes	3.382	-0.004	2.0	GoodResponse	0	0.194	n/a	7	46	ButtonPress	AvoidedLoss	True
443.198	0.47	Lose2	0.6596	n/a	Yes	3.382	n/a	n/a	GoodResponse	0	n/a	n/a	7	46	Blank	AvoidedLoss	True
443.666	1.45	Lose2	0.6596	n/a	Yes	3.382	n/a	5.0	GoodResponse	0	0.013	442.679	7	46	Feedback	AvoidedLoss	True
445.121	3.382	Lose2	0.6596	n/a	Yes	3.382	n/a	n/a	GoodResponse	0	0.0	n/a	7	46	ISIslide	AvoidedLoss	True
448.514	0.25	Lose2	0.6667000000000001	0.0	Yes	2.686	0.014	n/a	GoodResponse	0	n/a	n/a	7	47	Cue	AvoidedLoss	True
448.765	4.0	Lose2	0.6667000000000001	0.0	Yes	2.686	0.001	n/a	GoodResponse	0	n/a	n/a	7	47	Fixation	AvoidedLoss	True
452.76	0.23	Lose2	0.6667000000000001	0.004	Yes	2.686	-0.004	2.0	GoodResponse	0	0.193	451.953	7	47	Target	AvoidedLoss	True
452.953	0.3	Lose2	0.6667000000000001	0.004	Yes	2.686	-0.004	2.0	GoodResponse	0	0.193	n/a	7	47	ButtonPress	AvoidedLoss	True
452.994	0.47	Lose2	0.6667000000000001	n/a	Yes	2.686	n/a	n/a	GoodResponse	0	n/a	n/a	7	47	Blank	AvoidedLoss	True
453.462	1.45	Lose2	0.6667000000000001	n/a	Yes	2.686	n/a	5.0	GoodResponse	0	0.022	452.484	7	47	Feedback	AvoidedLoss	True
454.917	2.686	Lose2	0.6667000000000001	n/a	Yes	2.686	n/a	n/a	GoodResponse	0	0.0	n/a	7	47	ISIslide	AvoidedLoss	True
457.625	0.25	Lose2	0.6531	0.0	No	3.025	0.025	n/a	LatePress	-1	n/a	n/a	6	48	Cue	Loss	True
457.876	3.95	Lose2	0.6531	0.0	No	3.025	0.001	n/a	LatePress	-1	n/a	n/a	6	48	Fixation	Loss	True
461.821	0.22	Lose2	0.6531	0.004	No	3.025	-0.004	2.0	LatePress	-1	0.226	461.047	6	48	Target	Loss	True
462.047	0.3	Lose2	0.6531	0.004	No	3.025	-0.004	2.0	LatePress	-1	0.226	n/a	6	48	ButtonPress	Loss	True
462.055	0.48	Lose2	0.6531	n/a	No	3.025	n/a	n/a	LatePress	-1	n/a	n/a	6	48	Blank	Loss	True
462.523	1.45	Lose2	0.6531	n/a	No	3.025	n/a	5.0	LatePress	-1	0.033	461.556	6	48	Feedback	Loss	True
463.977	3.025	Lose2	0.6531	n/a	No	3.025	n/a	n/a	LatePress	-1	0.0	n/a	6	48	ISIslide	Loss	True
467.02	0.25	Control	0.66	0.0	Yes	2.88	0.02	n/a	GoodResponse	0	n/a	n/a	6	49	Cue	Neutral	True
467.27	4.0	Control	0.66	0.0	Yes	2.88	0.0	n/a	GoodResponse	0	n/a	n/a	6	49	Fixation	Neutral	True
471.266	0.23	Control	0.66	0.004	Yes	2.88	-0.004	2.0	GoodResponse	0	0.184	470.45	6	49	Target	Neutral	True
471.45	0.3	Control	0.66	0.004	Yes	2.88	-0.004	2.0	GoodResponse	0	0.184	n/a	6	49	ButtonPress	Neutral	True
471.5	0.47	Control	0.66	n/a	Yes	2.88	n/a	n/a	GoodResponse	0	n/a	n/a	6	49	Blank	Neutral	True
471.968	1.45	Control	0.66	n/a	Yes	2.88	n/a	5.0	GoodResponse	0	0.006	470.974	6	49	Feedback	Neutral	True
473.422	2.88	Control	0.66	n/a	Yes	2.88	n/a	n/a	GoodResponse	0	0.0	n/a	6	49	ISIslide	Neutral	True
476.314	0.25	Control	0.6470999999999999	0.0	No	2.786	0.014	n/a	NoResponse	0	n/a	n/a	6	50	Cue	Neutral	True
476.565	4.0	Control	0.6470999999999999	0.0	No	2.786	0.001	n/a	NoResponse	0	n/a	n/a	6	50	Fixation	Neutral	True
480.56	0.23	Control	0.6470999999999999	0.004	No	2.786	-0.004	2.0	NoResponse	0	0.256	479.816	6	50	Target	Neutral	True
480.794	0.47	Control	0.6470999999999999	n/a	No	2.786	n/a	n/a	NoResponse	0	n/a	n/a	6	50	Blank	Neutral	True
480.816	0.3	Control	0.6470999999999999	0.004	No	2.786	-0.004	2.0	NoResponse	0	0.256	n/a	6	50	ButtonPress	Neutral	True
481.262	1.45	Control	0.6470999999999999	n/a	No	2.786	n/a	5.0	NoResponse	0	0.026	480.288	6	50	Feedback	Neutral	True
482.717	2.786	Control	0.6470999999999999	n/a	No	2.786	n/a	n/a	NoResponse	0	0.0	n/a	6	50	ISIslide	Neutral	True
485.525	0.25	Control	0.6537999999999999	0.0	Yes	2.725	0.025	n/a	GoodResponse	0	n/a	n/a	6	51	Cue	Neutral	True
485.776	3.95	Control	0.6537999999999999	0.0	Yes	2.725	0.001	n/a	GoodResponse	0	n/a	n/a	6	51	Fixation	Neutral	True
489.721	0.24	Control	0.6537999999999999	0.004	Yes	2.725	-0.004	2.0	GoodResponse	0	0.189	488.91	6	51	Target	Neutral	True
489.91	0.3	Control	0.6537999999999999	0.004	Yes	2.725	-0.004	2.0	GoodResponse	0	0.189	n/a	6	51	ButtonPress	Neutral	True
489.972	0.46	Control	0.6537999999999999	n/a	Yes	2.725	n/a	n/a	GoodResponse	0	n/a	n/a	6	51	Blank	Neutral	True
490.423	1.45	Control	0.6537999999999999	n/a	Yes	2.725	n/a	5.0	GoodResponse	0	0.036	489.459	6	51	Feedback	Neutral	True
491.877	2.725	Control	0.6537999999999999	n/a	Yes	2.725	n/a	n/a	GoodResponse	0	0.0	n/a	6	51	ISIslide	Neutral	True
494.619	0.25	Control	0.6415000000000001	0.0	No	2.631	0.019	n/a	NoResponse	0	n/a	n/a	6	52	Cue	Neutral	False
494.87	4.05	Control	0.6415000000000001	0.0	No	2.631	0.001	n/a	NoResponse	0	n/a	n/a	6	52	Fixation	Neutral	False
498.915	0.25	Control	0.6415000000000001	0.004	No	2.631	-0.004	n/a	NoResponse	0	n/a	n/a	6	52	Target	Neutral	False
499.166	0.45	Control	0.6415000000000001	n/a	No	2.631	n/a	n/a	NoResponse	0	n/a	n/a	6	52	Blank	Neutral	False
499.617	1.45	Control	0.6415000000000001	n/a	No	2.631	n/a	5.0	NoResponse	0	0.013	498.63	6	52	Feedback	Neutral	False
501.071	2.631	Control	0.6415000000000001	n/a	No	2.631	n/a	n/a	NoResponse	0	0.0	n/a	6	52	ISIslide	Neutral	False
503.729	0.25	Win2	0.6296	0.001	No	2.921	0.029	n/a	NoResponse	0	n/a	n/a	6	53	Cue	MissedWin	True
503.98	4.05	Win2	0.6296	0.0	No	2.921	0.001	2.0	NoResponse	0	4.013	506.993	6	53	Fixation	MissedWin	True
507.993	0.3	Win2	0.6296	0.0	No	2.921	0.001	2.0	NoResponse	0	4.013	n/a	6	53	ButtonPress	MissedWin	True
508.026	0.26	Win2	0.6296	0.003	No	2.921	-0.003	n/a	NoResponse	0	n/a	n/a	6	53	Target	MissedWin	True
508.293	0.44	Win2	0.6296	n/a	No	2.921	n/a	n/a	NoResponse	0	n/a	n/a	6	53	Blank	MissedWin	True
508.728	1.45	Win2	0.6296	n/a	No	2.921	n/a	5.0	NoResponse	0	0.024	507.752	6	53	Feedback	MissedWin	True
510.182	2.921	Win2	0.6296	n/a	No	2.921	n/a	n/a	NoResponse	0	0.0	n/a	6	53	ISIslide	MissedWin	True
513.124	0.25	Win2	0.6364	0.0	Yes	2.726	0.024	n/a	GoodResponse	1	n/a	n/a	7	54	Cue	Win	True
513.375	3.95	Win2	0.6364	0.0	Yes	2.726	0.001	n/a	GoodResponse	1	n/a	n/a	7	54	Fixation	Win	True
517.32	0.27	Win2	0.6364	0.004	Yes	2.726	-0.004	2.0	GoodResponse	1	0.213	516.533	7	54	Target	Win	True
517.533	0.3	Win2	0.6364	0.004	Yes	2.726	-0.004	2.0	GoodResponse	1	0.213	n/a	7	54	ButtonPress	Win	True
517.604	0.43	Win2	0.6364	n/a	Yes	2.726	n/a	n/a	GoodResponse	1	n/a	n/a	7	54	Blank	Win	True
518.022	1.45	Win2	0.6364	n/a	Yes	2.726	n/a	5.0	GoodResponse	1	0.046	517.068	7	54	Feedback	Win	True
519.477	2.726	Win2	0.6364	n/a	Yes	2.726	n/a	n/a	GoodResponse	1	0.0	n/a	7	54	ISIslide	Win	True
522.218	0.25	Control	0.6429	0.0	Yes	3.032	0.018	n/a	GoodResponse	0	n/a	n/a	7	55	Cue	Neutral	True
522.469	3.95	Control	0.6429	0.0	Yes	3.032	0.001	n/a	GoodResponse	0	n/a	n/a	7	55	Fixation	Neutral	True
526.414	0.28	Control	0.6429	0.004	Yes	3.032	-0.004	2.0	GoodResponse	0	0.232	525.646	7	55	Target	Neutral	True
526.646	0.3	Control	0.6429	0.004	Yes	3.032	-0.004	2.0	GoodResponse	0	0.232	n/a	7	55	ButtonPress	Neutral	True
526.698	0.42	Control	0.6429	n/a	Yes	3.032	n/a	n/a	GoodResponse	0	n/a	n/a	7	55	Blank	Neutral	True
527.116	1.45	Control	0.6429	n/a	Yes	3.032	n/a	5.0	GoodResponse	0	0.025	526.141	7	55	Feedback	Neutral	True
528.57	3.032	Control	0.6429	n/a	Yes	3.032	n/a	n/a	GoodResponse	0	0.0	n/a	7	55	ISIslide	Neutral	True
531.63	0.25	Control	0.6491	0.0	Yes	2.82	0.03	n/a	GoodResponse	0	n/a	n/a	7	56	Cue	Neutral	True
531.88	3.95	Control	0.6491	0.0	Yes	2.82	0.0	n/a	GoodResponse	0	n/a	n/a	7	56	Fixation	Neutral	True
535.826	0.29	Control	0.6491	0.004	Yes	2.82	-0.004	2.0	GoodResponse	0	0.2	535.026	7	56	Target	Neutral	True
536.026	0.3	Control	0.6491	0.004	Yes	2.82	-0.004	2.0	GoodResponse	0	0.2	n/a	7	56	ButtonPress	Neutral	True
536.126	0.41	Control	0.6491	n/a	Yes	2.82	n/a	n/a	GoodResponse	0	n/a	n/a	7	56	Blank	Neutral	True
536.528	1.45	Control	0.6491	n/a	Yes	2.82	n/a	5.0	GoodResponse	0	0.028	535.556	7	56	Feedback	Neutral	True
537.982	2.82	Control	0.6491	n/a	Yes	2.82	n/a	n/a	GoodResponse	0	0.0	n/a	7	56	ISIslide	Neutral	True
540.824	0.25	Control	0.6552	0.0	Yes	3.476	0.024	n/a	GoodResponse	0	n/a	n/a	7	57	Cue	Neutral	True
541.075	4.0	Control	0.6552	0.0	Yes	3.476	0.001	n/a	GoodResponse	0	n/a	n/a	7	57	Fixation	Neutral	True
545.07	0.3	Control	0.6552	0.004	Yes	3.476	-0.004	2.0	GoodResponse	0	0.231	544.301	7	57	Target	Neutral	True
545.301	0.3	Control	0.6552	0.004	Yes	3.476	-0.004	2.0	GoodResponse	0	0.231	n/a	7	57	ButtonPress	Neutral	True
545.371	0.4	Control	0.6552	n/a	Yes	3.476	n/a	n/a	GoodResponse	0	n/a	n/a	7	57	Blank	Neutral	True
545.772	1.45	Control	0.6552	n/a	Yes	3.476	n/a	5.0	GoodResponse	0	0.005	544.777	7	57	Feedback	Neutral	True
547.226	3.476	Control	0.6552	n/a	Yes	3.476	n/a	n/a	GoodResponse	0	0.0	n/a	7	57	ISIslide	Neutral	True
550.72	0.25	Win2	0.6609999999999999	0.0	Yes	2.73	0.02	n/a	GoodResponse	1	n/a	n/a	8	58	Cue	Win	True
550.971	4.05	Win2	0.6609999999999999	0.0	Yes	2.73	0.001	n/a	GoodResponse	1	n/a	n/a	8	58	Fixation	Win	True
555.016	0.3	Win2	0.6609999999999999	0.004	Yes	2.73	-0.004	2.0	GoodResponse	1	0.178	554.194	8	58	Target	Win	True
555.194	0.3	Win2	0.6609999999999999	0.004	Yes	2.73	-0.004	2.0	GoodResponse	1	0.178	n/a	8	58	ButtonPress	Win	True
555.317	0.4	Win2	0.6609999999999999	n/a	Yes	2.73	n/a	n/a	GoodResponse	1	n/a	n/a	8	58	Blank	Win	True
555.718	1.45	Win2	0.6609999999999999	n/a	Yes	2.73	n/a	5.0	GoodResponse	1	0.009	554.727	8	58	Feedback	Win	True
557.173	2.73	Win2	0.6609999999999999	n/a	Yes	2.73	n/a	n/a	GoodResponse	1	0.0	n/a	8	58	ISIslide	Win	True
559.914	0.25	Lose2	0.6667000000000001	0.0	Yes	2.686	0.014	n/a	GoodResponse	0	n/a	n/a	8	59	Cue	AvoidedLoss	True
560.165	4.0	Lose2	0.6667000000000001	0.0	Yes	2.686	0.001	n/a	GoodResponse	0	n/a	n/a	8	59	Fixation	AvoidedLoss	True
564.16	0.3	Lose2	0.6667000000000001	0.004	Yes	2.686	-0.004	2.0	GoodResponse	0	0.269	563.429	8	59	Target	AvoidedLoss	True
564.429	0.3	Lose2	0.6667000000000001	0.004	Yes	2.686	-0.004	2.0	GoodResponse	0	0.269	n/a	8	59	ButtonPress	AvoidedLoss	True
564.461	0.4	Lose2	0.6667000000000001	n/a	Yes	2.686	n/a	n/a	GoodResponse	0	n/a	n/a	8	59	Blank	AvoidedLoss	True
564.862	1.45	Lose2	0.6667000000000001	n/a	Yes	2.686	n/a	5.0	GoodResponse	0	0.035	563.897	8	59	Feedback	AvoidedLoss	True
566.317	2.686	Lose2	0.6667000000000001	n/a	Yes	2.686	n/a	n/a	GoodResponse	0	0.0	n/a	8	59	ISIslide	AvoidedLoss	True
569.025	0.25	Control	0.6720999999999999	0.0	Yes	2.675	0.025	n/a	GoodResponse	0	n/a	n/a	8	60	Cue	Neutral	True
569.276	4.0	Control	0.6720999999999999	0.0	Yes	2.675	0.001	n/a	GoodResponse	0	n/a	n/a	8	60	Fixation	Neutral	True
573.271	0.29	Control	0.6720999999999999	0.004	Yes	2.675	-0.004	2.0	GoodResponse	0	0.248	572.519	8	60	Target	Neutral	True
573.519	0.3	Control	0.6720999999999999	0.004	Yes	2.675	-0.004	2.0	GoodResponse	0	0.248	n/a	8	60	ButtonPress	Neutral	True
573.572	0.41	Control	0.6720999999999999	n/a	Yes	2.675	n/a	n/a	GoodResponse	0	n/a	n/a	8	60	Blank	Neutral	True
573.973	1.45	Control	0.6720999999999999	n/a	Yes	2.675	n/a	5.0	GoodResponse	0	0.046	573.019	8	60	Feedback	Neutral	True
575.427	2.675	Control	0.6720999999999999	n/a	Yes	2.675	n/a	n/a	GoodResponse	0	0.0	n/a	8	60	ISIslide	Neutral	True
578.119	0.25	Lose2	0.6774	0.0	Yes	2.981	0.019	n/a	GoodResponse	0	n/a	n/a	8	61	Cue	AvoidedLoss	True
578.37	4.0	Lose2	0.6774	0.0	Yes	2.981	0.001	n/a	GoodResponse	0	n/a	n/a	8	61	Fixation	AvoidedLoss	True
582.365	0.28	Lose2	0.6774	0.004	Yes	2.981	-0.004	2.0	GoodResponse	0	0.202	581.567	8	61	Target	AvoidedLoss	True
582.567	0.3	Lose2	0.6774	0.004	Yes	2.981	-0.004	2.0	GoodResponse	0	0.202	n/a	8	61	ButtonPress	AvoidedLoss	True
582.649	0.42	Lose2	0.6774	n/a	Yes	2.981	n/a	n/a	GoodResponse	0	n/a	n/a	8	61	Blank	AvoidedLoss	True
583.067	1.45	Lose2	0.6774	n/a	Yes	2.981	n/a	5.0	GoodResponse	0	0.025	582.092	8	61	Feedback	AvoidedLoss	True
584.521	2.981	Lose2	0.6774	n/a	Yes	2.981	n/a	n/a	GoodResponse	0	0.0	n/a	8	61	ISIslide	AvoidedLoss	True
587.53	0.25	Lose2	0.6825	0.0	Yes	2.87	0.03	n/a	GoodResponse	0	n/a	n/a	8	62	Cue	AvoidedLoss	True
587.781	3.9	Lose2	0.6825	0.0	Yes	2.87	0.001	n/a	GoodResponse	0	n/a	n/a	8	62	Fixation	AvoidedLoss	True
591.676	0.27	Lose2	0.6825	0.004	Yes	2.87	-0.004	2.0	GoodResponse	0	0.244	590.92	8	62	Target	AvoidedLoss	True
591.92	0.3	Lose2	0.6825	0.004	Yes	2.87	-0.004	2.0	GoodResponse	0	0.244	n/a	8	62	ButtonPress	AvoidedLoss	True
591.96	0.43	Lose2	0.6825	n/a	Yes	2.87	n/a	n/a	GoodResponse	0	n/a	n/a	8	62	Blank	AvoidedLoss	True
592.378	1.45	Lose2	0.6825	n/a	Yes	2.87	n/a	5.0	GoodResponse	0	0.032	591.41	8	62	Feedback	AvoidedLoss	True
593.832	2.87	Lose2	0.6825	n/a	Yes	2.87	n/a	n/a	GoodResponse	0	0.0	n/a	8	62	ISIslide	AvoidedLoss	True
596.724	0.25	Lose2	0.6875	0.001	Yes	2.626	0.024	n/a	GoodResponse	0	n/a	n/a	8	63	Cue	AvoidedLoss	True
596.975	4.05	Lose2	0.6875	0.0	Yes	2.626	0.001	n/a	GoodResponse	0	n/a	n/a	8	63	Fixation	AvoidedLoss	True
601.021	0.26	Lose2	0.6875	0.003	Yes	2.626	-0.003	2.0	GoodResponse	0	0.22	600.241	8	63	Target	AvoidedLoss	True
601.241	0.3	Lose2	0.6875	0.003	Yes	2.626	-0.003	2.0	GoodResponse	0	0.22	n/a	8	63	ButtonPress	AvoidedLoss	True
601.288	0.44	Lose2	0.6875	n/a	Yes	2.626	n/a	n/a	GoodResponse	0	n/a	n/a	8	63	Blank	AvoidedLoss	True
601.723	1.45	Lose2	0.6875	n/a	Yes	2.626	n/a	5.0	GoodResponse	0	0.005	600.728	8	63	Feedback	AvoidedLoss	True
603.177	2.626	Lose2	0.6875	n/a	Yes	2.626	n/a	n/a	GoodResponse	0	0.0	n/a	8	63	ISIslide	AvoidedLoss	True
605.818	0.25	Win2	0.6923	0.0	Yes	3.132	0.018	n/a	GoodResponse	1	n/a	n/a	9	64	Cue	Win	True
606.069	4.15	Win2	0.6923	0.0	Yes	3.132	0.001	n/a	GoodResponse	1	n/a	n/a	9	64	Fixation	Win	True
610.215	0.25	Win2	0.6923	0.003	Yes	3.132	-0.003	2.0	GoodResponse	1	0.196	609.411	9	64	Target	Win	True
610.411	0.3	Win2	0.6923	0.003	Yes	3.132	-0.003	2.0	GoodResponse	1	0.196	n/a	9	64	ButtonPress	Win	True
610.466	0.45	Win2	0.6923	n/a	Yes	3.132	n/a	n/a	GoodResponse	1	n/a	n/a	9	64	Blank	Win	True
610.917	1.45	Win2	0.6923	n/a	Yes	3.132	n/a	5.0	GoodResponse	1	0.028	609.945	9	64	Feedback	Win	True
612.371	3.132	Win2	0.6923	n/a	Yes	3.132	n/a	n/a	GoodResponse	1	0.0	n/a	9	64	ISIslide	Win	True
615.514	0.25	Control	0.6818000000000001	0.0	No	2.786	0.014	n/a	NoResponse	0	n/a	n/a	9	65	Cue	Neutral	True
615.765	4.0	Control	0.6818000000000001	0.0	No	2.786	0.001	n/a	NoResponse	0	n/a	n/a	9	65	Fixation	Neutral	True
619.76	0.24	Control	0.6818000000000001	0.004	No	2.786	-0.004	2.0	NoResponse	0	0.257	619.017	9	65	Target	Neutral	True
620.011	0.46	Control	0.6818000000000001	n/a	No	2.786	n/a	n/a	NoResponse	0	n/a	n/a	9	65	Blank	Neutral	True
620.017	0.3	Control	0.6818000000000001	0.004	No	2.786	-0.004	2.0	NoResponse	0	0.257	n/a	9	65	ButtonPress	Neutral	True
620.462	1.45	Control	0.6818000000000001	n/a	No	2.786	n/a	5.0	NoResponse	0	0.044	619.506	9	65	Feedback	Neutral	True
621.917	2.786	Control	0.6818000000000001	n/a	No	2.786	n/a	n/a	NoResponse	0	0.0	n/a	9	65	ISIslide	Neutral	True
624.725	0.25	Win2	0.6866	0.0	Yes	2.775	0.025	n/a	GoodResponse	1	n/a	n/a	10	66	Cue	Win	True
624.976	3.9	Win2	0.6866	0.0	Yes	2.775	0.001	n/a	GoodResponse	1	n/a	n/a	10	66	Fixation	Win	True
628.871	0.23	Win2	0.6866	0.004	Yes	2.775	-0.004	2.0	GoodResponse	1	0.204	628.075	10	66	Target	Win	True
629.075	0.3	Win2	0.6866	0.004	Yes	2.775	-0.004	2.0	GoodResponse	1	0.204	n/a	10	66	ButtonPress	Win	True
629.105	0.47	Win2	0.6866	n/a	Yes	2.775	n/a	n/a	GoodResponse	1	n/a	n/a	10	66	Blank	Win	True
629.573	1.45	Win2	0.6866	n/a	Yes	2.775	n/a	5.0	GoodResponse	1	0.007	628.58	10	66	Feedback	Win	True
631.027	2.775	Win2	0.6866	n/a	Yes	2.775	n/a	n/a	GoodResponse	1	0.0	n/a	10	66	ISIslide	Win	True
633.819	0.25	Control	0.6912	0.0	Yes	2.731	0.019	n/a	GoodResponse	0	n/a	n/a	10	67	Cue	Neutral	True
634.07	3.95	Control	0.6912	0.0	Yes	2.731	0.001	n/a	GoodResponse	0	n/a	n/a	10	67	Fixation	Neutral	True
638.015	0.22	Control	0.6912	0.004	Yes	2.731	-0.004	2.0	GoodResponse	0	0.195	637.21	10	67	Target	Neutral	True
638.21	0.3	Control	0.6912	0.004	Yes	2.731	-0.004	2.0	GoodResponse	0	0.195	n/a	10	67	ButtonPress	Neutral	True
638.249	0.48	Control	0.6912	n/a	Yes	2.731	n/a	n/a	GoodResponse	0	n/a	n/a	10	67	Blank	Neutral	True
638.717	1.45	Control	0.6912	n/a	Yes	2.731	n/a	5.0	GoodResponse	0	0.034	637.751	10	67	Feedback	Neutral	True
640.171	2.731	Control	0.6912	n/a	Yes	2.731	n/a	n/a	GoodResponse	0	0.0	n/a	10	67	ISIslide	Neutral	True
642.929	0.25	Win2	0.6957	0.001	Yes	3.071	0.029	n/a	GoodResponse	1	n/a	n/a	11	68	Cue	Win	True
643.18	4.0	Win2	0.6957	0.0	Yes	3.071	0.001	n/a	GoodResponse	1	n/a	n/a	11	68	Fixation	Win	True
647.175	0.21	Win2	0.6957	0.004	Yes	3.071	-0.004	2.0	GoodResponse	1	0.205	646.38	11	68	Target	Win	True
647.38	0.3	Win2	0.6957	0.004	Yes	3.071	-0.004	2.0	GoodResponse	1	0.205	n/a	11	68	ButtonPress	Win	True
647.393	0.49	Win2	0.6957	n/a	Yes	3.071	n/a	n/a	GoodResponse	1	n/a	n/a	11	68	Blank	Win	True
647.878	1.45	Win2	0.6957	n/a	Yes	3.071	n/a	5.0	GoodResponse	1	0.043	646.921	11	68	Feedback	Win	True
649.332	3.071	Win2	0.6957	n/a	Yes	3.071	n/a	n/a	GoodResponse	1	0.0	n/a	11	68	ISIslide	Win	True
652.425	0.25	Win2	0.7	0.0	Yes	3.225	0.025	n/a	GoodResponse	1	n/a	n/a	12	69	Cue	Win	True
652.675	3.95	Win2	0.7	0.0	Yes	3.225	0.0	n/a	GoodResponse	1	n/a	n/a	12	69	Fixation	Win	True
656.637	0.2	Win2	0.7	0.0	Yes	3.225	0.012	2.0	GoodResponse	1	0.157	655.794	12	69	Target	Win	True
656.794	0.3	Win2	0.7	0.0	Yes	3.225	0.012	2.0	GoodResponse	1	0.157	n/a	12	69	ButtonPress	Win	True
656.821	0.5	Win2	0.7	n/a	Yes	3.225	n/a	n/a	GoodResponse	1	n/a	n/a	12	69	Blank	Win	True
657.323	1.45	Win2	0.7	n/a	Yes	3.225	n/a	5.0	GoodResponse	1	0.013	656.336	12	69	Feedback	Win	True
658.777	3.225	Win2	0.7	n/a	Yes	3.225	n/a	n/a	GoodResponse	1	0.0	n/a	12	69	ISIslide	Win	True
662.02	0.25	Lose2	0.6901	0.0	No	3.03	0.02	n/a	LatePress	-1	n/a	n/a	11	70	Cue	Loss	True
662.271	4.05	Lose2	0.6901	0.0	No	3.03	0.001	n/a	LatePress	-1	n/a	n/a	11	70	Fixation	Loss	True
666.316	0.19	Lose2	0.6901	0.004	No	3.03	-0.004	2.0	LatePress	-1	0.193	665.509	11	70	Target	Loss	True
666.509	0.3	Lose2	0.6901	0.004	No	3.03	-0.004	2.0	LatePress	-1	0.193	n/a	11	70	ButtonPress	Loss	True
666.517	0.51	Lose2	0.6901	n/a	No	3.03	n/a	n/a	LatePress	-1	n/a	n/a	11	70	Blank	Loss	True
667.018	1.45	Lose2	0.6901	n/a	No	3.03	n/a	5.0	LatePress	-1	0.025	666.043	11	70	Feedback	Loss	True
668.473	3.03	Lose2	0.6901	n/a	No	3.03	n/a	n/a	LatePress	-1	0.0	n/a	11	70	ISIslide	Loss	True
671.515	0.25	Win2	0.6806	0.0	No	2.735	0.015	n/a	NoResponse	0	n/a	n/a	11	71	Cue	MissedWin	True
671.766	4.05	Win2	0.6806	0.0	No	2.735	0.001	n/a	NoResponse	0	n/a	n/a	11	71	Fixation	MissedWin	True
675.811	0.18	Win2	0.6806	0.004	No	2.735	-0.004	2.0	NoResponse	0	0.23	675.041	11	71	Target	MissedWin	True
675.995	0.52	Win2	0.6806	n/a	No	2.735	n/a	n/a	NoResponse	0	n/a	n/a	11	71	Blank	MissedWin	True
676.041	0.3	Win2	0.6806	0.004	No	2.735	-0.004	2.0	NoResponse	0	0.23	n/a	11	71	ButtonPress	MissedWin	True
676.513	1.45	Win2	0.6806	n/a	No	2.735	n/a	5.0	NoResponse	0	0.042	675.555	11	71	Feedback	MissedWin	True
677.968	2.735	Win2	0.6806	n/a	No	2.735	n/a	n/a	NoResponse	0	0.0	n/a	11	71	ISIslide	MissedWin	True
680.726	0.25	Win2	0.6849	0.0	Yes	2.774	0.026	n/a	GoodResponse	1	n/a	n/a	12	72	Cue	Win	True
680.977	4.1	Win2	0.6849	0.0	Yes	2.774	0.001	n/a	GoodResponse	1	n/a	n/a	12	72	Fixation	Win	True
685.072	0.17	Win2	0.6849	0.004	Yes	2.774	-0.004	2.0	GoodResponse	1	0.161	684.233	12	72	Target	Win	True
685.233	0.3	Win2	0.6849	0.004	Yes	2.774	-0.004	2.0	GoodResponse	1	0.161	n/a	12	72	ButtonPress	Win	True
685.256	0.53	Win2	0.6849	n/a	Yes	2.774	n/a	n/a	GoodResponse	1	n/a	n/a	12	72	Blank	Win	True
685.774	1.45	Win2	0.6849	n/a	Yes	2.774	n/a	5.0	GoodResponse	1	0.049	684.823	12	72	Feedback	Win	True
687.229	2.774	Win2	0.6849	n/a	Yes	2.774	n/a	n/a	GoodResponse	1	0.0	n/a	12	72	ISIslide	Win	True
690.02	0.25	Win2	0.6757	0.001	No	2.68	0.02	n/a	NoResponse	0	n/a	n/a	12	73	Cue	MissedWin	True
690.271	4.0	Win2	0.6757	0.0	No	2.68	0.001	n/a	NoResponse	0	n/a	n/a	12	73	Fixation	MissedWin	True
694.266	0.16	Win2	0.6757	0.004	No	2.68	-0.004	2.0	NoResponse	0	0.217	693.483	12	73	Target	MissedWin	True
694.434	0.54	Win2	0.6757	n/a	No	2.68	n/a	n/a	NoResponse	0	n/a	n/a	12	73	Blank	MissedWin	True
694.483	0.3	Win2	0.6757	0.004	No	2.68	-0.004	2.0	NoResponse	0	0.217	n/a	12	73	ButtonPress	MissedWin	True
694.969	1.45	Win2	0.6757	n/a	No	2.68	n/a	5.0	NoResponse	0	0.025	693.994	12	73	Feedback	MissedWin	True
696.423	2.68	Win2	0.6757	n/a	No	2.68	n/a	n/a	NoResponse	0	0.0	n/a	12	73	ISIslide	MissedWin	True
699.114	0.25	Lose2	0.6667000000000001	0.0	No	2.636	0.014	n/a	NoResponse	-1	n/a	n/a	11	74	Cue	Loss	True
699.365	4.05	Lose2	0.6667000000000001	0.0	No	2.636	0.001	n/a	NoResponse	-1	n/a	n/a	11	74	Fixation	Loss	True
703.41	0.15	Lose2	0.6667000000000001	0.004	No	2.636	-0.004	2.0	NoResponse	-1	0.205	702.615	11	74	Target	Loss	True
703.561	0.55	Lose2	0.6667000000000001	n/a	No	2.636	n/a	n/a	NoResponse	-1	n/a	n/a	11	74	Blank	Loss	True
703.615	0.3	Lose2	0.6667000000000001	0.004	No	2.636	-0.004	2.0	NoResponse	-1	0.205	n/a	11	74	ButtonPress	Loss	True
704.113	1.45	Lose2	0.6667000000000001	n/a	No	2.636	n/a	5.0	NoResponse	-1	0.005	703.118	11	74	Feedback	Loss	True
705.567	2.636	Lose2	0.6667000000000001	n/a	No	2.636	n/a	n/a	NoResponse	-1	0.0	n/a	11	74	ISIslide	Loss	True
708.225	0.25	Lose2	0.6579	0.0	No	2.925	0.025	n/a	NoResponse	-1	n/a	n/a	10	75	Cue	Loss	True
708.476	3.95	Lose2	0.6579	0.0	No	2.925	0.001	n/a	NoResponse	-1	n/a	n/a	10	75	Fixation	Loss	True
712.421	0.15	Lose2	0.6579	0.004	No	2.925	-0.004	2.0	NoResponse	-1	0.299	711.72	10	75	Target	Loss	True
712.571	0.55	Lose2	0.6579	n/a	No	2.925	n/a	n/a	NoResponse	-1	n/a	n/a	10	75	Blank	Loss	True
712.72	0.3	Lose2	0.6579	0.004	No	2.925	-0.004	2.0	NoResponse	-1	0.299	n/a	10	75	ButtonPress	Loss	True
713.123	1.45	Lose2	0.6579	n/a	No	2.925	n/a	5.0	NoResponse	-1	0.017	712.14	10	75	Feedback	Loss	True
714.577	2.925	Lose2	0.6579	n/a	No	2.925	n/a	n/a	NoResponse	-1	0.0	n/a	10	75	ISIslide	Loss	True
717.519	0.25	Control	0.6494	0.0	No	3.231	0.019	n/a	PrematurePress	0	n/a	n/a	10	76	Cue	Neutral	True
717.77	4.05	Control	0.6494	0.0	No	3.231	0.001	n/a	PrematurePress	0	n/a	n/a	10	76	Fixation	Neutral	True
721.816	0.15	Control	0.6494	0.003	No	3.231	-0.003	2.0	PrematurePress	0	0.037	720.853	10	76	Target	Neutral	True
721.853	0.3	Control	0.6494	0.003	No	3.231	-0.003	2.0	PrematurePress	0	0.037	n/a	10	76	ButtonPress	Neutral	True
721.966	0.55	Control	0.6494	n/a	No	3.231	n/a	n/a	PrematurePress	0	n/a	n/a	10	76	Blank	Neutral	True
722.518	1.45	Control	0.6494	n/a	No	3.231	n/a	5.0	PrematurePress	0	0.036	721.554	10	76	Feedback	Neutral	True
723.972	3.231	Control	0.6494	n/a	No	3.231	n/a	n/a	PrematurePress	0	0.0	n/a	10	76	ISIslide	Neutral	True
727.215	0.25	Lose2	0.6409999999999999	0.0	No	2.585	0.015	n/a	NoResponse	-1	n/a	n/a	9	77	Cue	Loss	True
727.466	3.95	Lose2	0.6409999999999999	0.0	No	2.585	0.001	n/a	NoResponse	-1	n/a	n/a	9	77	Fixation	Loss	True
731.411	0.16	Lose2	0.6409999999999999	0.004	No	2.585	-0.004	2.0	NoResponse	-1	0.176	730.587	9	77	Target	Loss	True
731.578	0.54	Lose2	0.6409999999999999	n/a	No	2.585	n/a	n/a	NoResponse	-1	n/a	n/a	9	77	Blank	Loss	True
731.587	0.3	Lose2	0.6409999999999999	0.004	No	2.585	-0.004	2.0	NoResponse	-1	0.176	n/a	9	77	ButtonPress	Loss	True
732.113	1.45	Lose2	0.6409999999999999	n/a	No	2.585	n/a	5.0	NoResponse	-1	0.005	731.118	9	77	Feedback	Loss	True
733.567	2.585	Lose2	0.6409999999999999	n/a	No	2.585	n/a	n/a	NoResponse	-1	0.0	n/a	9	77	ISIslide	Loss	True
