onset	duration	cue_type	current_mean_accuracy	duration_error	is_hit	isi_adjusted	onset_delay	response	response_type	reward	rt	rt_time	total_reward	trial_number	trial_phase	trial_type	one_press
11.111	0.25	Control	1.0	0.001	Yes	2.939	0.011	n/a	GoodResponse	0	n/a	n/a	0	0	Cue	Neutral	True
11.362	3.85	Control	1.0	0.0	Yes	2.939	0.001	n/a	GoodResponse	0	n/a	n/a	0	0	Fixation	Neutral	True
15.207	0.4	Control	1.0	0.004	Yes	2.939	-0.004	4.0	GoodResponse	0	0.204	14.411	0	0	Target	Neutral	True
15.411	0.3	Control	1.0	0.004	Yes	2.939	-0.004	4.0	GoodResponse	0	0.204	n/a	0	0	ButtonPress	Neutral	True
15.608	0.3	Control	1.0	n/a	Yes	2.939	n/a	n/a	GoodResponse	0	n/a	n/a	0	0	Blank	Neutral	True
15.909	1.45	Control	1.0	n/a	Yes	2.939	n/a	5.0	GoodResponse	0	0.017	14.926	0	0	Feedback	Neutral	True
17.364	2.939	Control	1.0	n/a	Yes	2.939	n/a	n/a	GoodResponse	0	0.0	n/a	0	0	ISIslide	Neutral	True
20.322	0.25	Lose2	1.0	0.0	Yes	2.778	0.022	n/a	GoodResponse	0	n/a	n/a	0	1	Cue	AvoidedLoss	True
20.573	4.0	Lose2	1.0	0.0	Yes	2.778	0.001	n/a	GoodResponse	0	n/a	n/a	0	1	Fixation	AvoidedLoss	True
24.568	0.39	Lose2	1.0	0.004	Yes	2.778	-0.004	4.0	GoodResponse	0	0.208	23.776	0	1	Target	AvoidedLoss	True
24.776	0.3	Lose2	1.0	0.004	Yes	2.778	-0.004	4.0	GoodResponse	0	0.208	n/a	0	1	ButtonPress	AvoidedLoss	True
24.97	0.31	Lose2	1.0	n/a	Yes	2.778	n/a	n/a	GoodResponse	0	n/a	n/a	0	1	Blank	AvoidedLoss	True
25.271	1.45	Lose2	1.0	n/a	Yes	2.778	n/a	5.0	GoodResponse	0	0.021	24.292	0	1	Feedback	AvoidedLoss	True
26.725	2.778	Lose2	1.0	n/a	Yes	2.778	n/a	n/a	GoodResponse	0	0.0	n/a	0	1	ISIslide	AvoidedLoss	True
29.517	0.25	Control	1.0	0.0	Yes	2.583	0.017	n/a	GoodResponse	0	n/a	n/a	0	2	Cue	Neutral	True
29.767	4.1	Control	1.0	0.0	Yes	2.583	0.0	n/a	GoodResponse	0	n/a	n/a	0	2	Fixation	Neutral	True
33.863	0.38	Control	1.0	0.004	Yes	2.583	-0.004	4.0	GoodResponse	0	0.252	33.115	0	2	Target	Neutral	True
34.115	0.3	Control	1.0	0.004	Yes	2.583	-0.004	4.0	GoodResponse	0	0.252	n/a	0	2	ButtonPress	Neutral	True
34.247	0.32	Control	1.0	n/a	Yes	2.583	n/a	n/a	GoodResponse	0	n/a	n/a	0	2	Blank	Neutral	True
34.565	1.45	Control	1.0	n/a	Yes	2.583	n/a	5.0	GoodResponse	0	0.044	33.609	0	2	Feedback	Neutral	True
36.019	2.583	Control	1.0	n/a	Yes	2.583	n/a	n/a	GoodResponse	0	0.0	n/a	0	2	ISIslide	Neutral	True
38.627	0.25	Win2	1.0	0.0	Yes	2.823	0.027	n/a	GoodResponse	1	n/a	n/a	1	3	Cue	Win	True
38.878	3.95	Win2	1.0	0.0	Yes	2.823	0.001	n/a	GoodResponse	1	n/a	n/a	1	3	Fixation	Win	True
42.823	0.37	Win2	1.0	0.004	Yes	2.823	-0.004	4.0	GoodResponse	1	0.228	42.051	1	3	Target	Win	True
43.051	0.3	Win2	1.0	0.004	Yes	2.823	-0.004	4.0	GoodResponse	1	0.228	n/a	1	3	ButtonPress	Win	True
43.208	0.33	Win2	1.0	n/a	Yes	2.823	n/a	n/a	GoodResponse	1	n/a	n/a	1	3	Blank	Win	True
43.525	1.45	Win2	1.0	n/a	Yes	2.823	n/a	5.0	GoodResponse	1	0.011	42.536	1	3	Feedback	Win	True
44.98	2.823	Win2	1.0	n/a	Yes	2.823	n/a	n/a	GoodResponse	1	0.0	n/a	1	3	ISIslide	Win	True
47.821	0.25	Win2	1.0	0.0	Yes	3.279	0.021	n/a	GoodResponse	1	n/a	n/a	2	4	Cue	Win	True
48.072	4.0	Win2	1.0	0.0	Yes	3.279	0.001	n/a	GoodResponse	1	n/a	n/a	2	4	Fixation	Win	True
52.067	0.36	Win2	1.0	0.004	Yes	3.279	-0.004	4.0	GoodResponse	1	0.226	51.293	2	4	Target	Win	True
52.293	0.3	Win2	1.0	0.004	Yes	3.279	-0.004	4.0	GoodResponse	1	0.226	n/a	2	4	ButtonPress	Win	True
52.435	0.34	Win2	1.0	n/a	Yes	3.279	n/a	n/a	GoodResponse	1	n/a	n/a	2	4	Blank	Win	True
52.769	1.45	Win2	1.0	n/a	Yes	3.279	n/a	5.0	GoodResponse	1	0.035	51.804	2	4	Feedback	Win	True
54.224	3.279	Win2	1.0	n/a	Yes	3.279	n/a	n/a	GoodResponse	1	0.0	n/a	2	4	ISIslide	Win	True
57.517	0.25	Win2	1.0	0.0	Yes	2.783	0.017	n/a	GoodResponse	1	n/a	n/a	3	5	Cue	Win	True
57.768	4.0	Win2	1.0	0.0	Yes	2.783	0.001	n/a	GoodResponse	1	n/a	n/a	3	5	Fixation	Win	True
61.763	0.35	Win2	1.0	0.004	Yes	2.783	-0.004	4.0	GoodResponse	1	0.219	60.982	3	5	Target	Win	True
61.982	0.3	Win2	1.0	0.004	Yes	2.783	-0.004	4.0	GoodResponse	1	0.219	n/a	3	5	ButtonPress	Win	True
62.114	0.35	Win2	1.0	n/a	Yes	2.783	n/a	n/a	GoodResponse	1	n/a	n/a	3	5	Blank	Win	True
62.465	1.45	Win2	1.0	n/a	Yes	2.783	n/a	5.0	GoodResponse	1	0.045	61.51	3	5	Feedback	Win	True
63.92	2.783	Win2	1.0	n/a	Yes	2.783	n/a	n/a	GoodResponse	1	0.0	n/a	3	5	ISIslide	Win	True
66.728	0.25	Lose2	1.0	0.0	Yes	2.722	0.028	n/a	GoodResponse	0	n/a	n/a	3	6	Cue	AvoidedLoss	True
66.979	3.95	Lose2	1.0	0.0	Yes	2.722	0.001	n/a	GoodResponse	0	n/a	n/a	3	6	Fixation	AvoidedLoss	True
70.924	0.34	Lose2	1.0	0.004	Yes	2.722	-0.004	4.0	GoodResponse	0	0.296	70.22	3	6	Target	AvoidedLoss	True
71.22	0.3	Lose2	1.0	0.004	Yes	2.722	-0.004	4.0	GoodResponse	0	0.296	n/a	3	6	ButtonPress	AvoidedLoss	True
71.275	0.36	Lose2	1.0	n/a	Yes	2.722	n/a	n/a	GoodResponse	0	n/a	n/a	3	6	Blank	AvoidedLoss	True
71.626	1.45	Lose2	1.0	n/a	Yes	2.722	n/a	5.0	GoodResponse	0	0.008	70.634	3	6	Feedback	AvoidedLoss	True
73.08	2.722	Lose2	1.0	n/a	Yes	2.722	n/a	n/a	GoodResponse	0	0.0	n/a	3	6	ISIslide	AvoidedLoss	True
75.822	0.25	Lose2	1.0	0.0	Yes	4.028	0.022	n/a	GoodResponse	0	n/a	n/a	3	7	Cue	AvoidedLoss	True
76.073	4.05	Lose2	1.0	0.0	Yes	4.028	0.001	n/a	GoodResponse	0	n/a	n/a	3	7	Fixation	AvoidedLoss	True
80.118	0.33	Lose2	1.0	0.004	Yes	4.028	-0.004	4.0	GoodResponse	0	0.189	79.307	3	7	Target	AvoidedLoss	True
80.307	0.3	Lose2	1.0	0.004	Yes	4.028	-0.004	4.0	GoodResponse	0	0.189	n/a	3	7	ButtonPress	AvoidedLoss	True
80.452	0.37	Lose2	1.0	n/a	Yes	4.028	n/a	n/a	GoodResponse	0	n/a	n/a	3	7	Blank	AvoidedLoss	True
80.82	1.45	Lose2	1.0	n/a	Yes	4.028	n/a	5.0	GoodResponse	0	0.032	79.852	3	7	Feedback	AvoidedLoss	True
82.274	4.028	Lose2	1.0	n/a	Yes	4.028	n/a	n/a	GoodResponse	0	0.0	n/a	3	7	ISIslide	AvoidedLoss	True
86.32	0.25	Lose2	1.0	0.0	Yes	3.03	0.02	n/a	GoodResponse	0	n/a	n/a	3	8	Cue	AvoidedLoss	True
86.571	3.95	Lose2	1.0	0.0	Yes	3.03	0.001	n/a	GoodResponse	0	n/a	n/a	3	8	Fixation	AvoidedLoss	True
90.516	0.32	Lose2	1.0	0.004	Yes	3.03	-0.004	4.0	GoodResponse	0	0.268	89.784	3	8	Target	AvoidedLoss	True
90.784	0.3	Lose2	1.0	0.004	Yes	3.03	-0.004	4.0	GoodResponse	0	0.268	n/a	3	8	ButtonPress	AvoidedLoss	True
90.85	0.38	Lose2	1.0	n/a	Yes	3.03	n/a	n/a	GoodResponse	0	n/a	n/a	3	8	Blank	AvoidedLoss	True
91.218	1.45	Lose2	1.0	n/a	Yes	3.03	n/a	5.0	GoodResponse	0	0.024	90.242	3	8	Feedback	AvoidedLoss	True
92.672	3.03	Lose2	1.0	n/a	Yes	3.03	n/a	n/a	GoodResponse	0	0.0	n/a	3	8	ISIslide	AvoidedLoss	True
95.715	0.25	Lose2	1.0	0.0	Yes	3.135	0.015	n/a	GoodResponse	0	n/a	n/a	3	9	Cue	AvoidedLoss	True
95.965	3.95	Lose2	1.0	0.001	Yes	3.135	0.0	n/a	GoodResponse	0	n/a	n/a	3	9	Fixation	AvoidedLoss	True
99.911	0.31	Lose2	1.0	0.004	Yes	3.135	-0.004	4.0	GoodResponse	0	0.241	99.152	3	9	Target	AvoidedLoss	True
100.152	0.3	Lose2	1.0	0.004	Yes	3.135	-0.004	4.0	GoodResponse	0	0.241	n/a	3	9	ButtonPress	AvoidedLoss	True
100.228	0.39	Lose2	1.0	n/a	Yes	3.135	n/a	n/a	GoodResponse	0	n/a	n/a	3	9	Blank	AvoidedLoss	True
100.613	1.45	Lose2	1.0	n/a	Yes	3.135	n/a	5.0	GoodResponse	0	0.044	99.657	3	9	Feedback	AvoidedLoss	True
102.067	3.135	Lose2	1.0	n/a	Yes	3.135	n/a	n/a	GoodResponse	0	0.0	n/a	3	9	ISIslide	AvoidedLoss	True
105.227	0.25	Control	1.0	0.0	Yes	3.273	0.027	n/a	GoodResponse	0	n/a	n/a	3	10	Cue	Neutral	True
105.477	4.0	Control	1.0	0.0	Yes	3.273	0.0	n/a	GoodResponse	0	n/a	n/a	3	10	Fixation	Neutral	True
109.473	0.3	Control	1.0	0.004	Yes	3.273	-0.004	4.0	GoodResponse	0	0.251	108.724	3	10	Target	Neutral	True
109.724	0.3	Control	1.0	0.004	Yes	3.273	-0.004	4.0	GoodResponse	0	0.251	n/a	3	10	ButtonPress	Neutral	True
109.773	0.4	Control	1.0	n/a	Yes	3.273	n/a	n/a	GoodResponse	0	n/a	n/a	3	10	Blank	Neutral	True
110.175	1.45	Control	1.0	n/a	Yes	3.273	n/a	5.0	GoodResponse	0	0.042	109.217	3	10	Feedback	Neutral	True
111.629	3.273	Control	1.0	n/a	Yes	3.273	n/a	n/a	GoodResponse	0	0.0	n/a	3	10	ISIslide	Neutral	True
114.922	0.25	Lose2	1.0	0.0	Yes	2.728	0.022	n/a	GoodResponse	0	n/a	n/a	3	11	Cue	AvoidedLoss	True
115.173	4.05	Lose2	1.0	0.0	Yes	2.728	0.001	n/a	GoodResponse	0	n/a	n/a	3	11	Fixation	AvoidedLoss	True
119.218	0.29	Lose2	1.0	0.004	Yes	2.728	-0.004	4.0	GoodResponse	0	0.215	118.433	3	11	Target	AvoidedLoss	True
119.433	0.3	Lose2	1.0	0.004	Yes	2.728	-0.004	4.0	GoodResponse	0	0.215	n/a	3	11	ButtonPress	AvoidedLoss	True
119.519	0.41	Lose2	1.0	n/a	Yes	2.728	n/a	n/a	GoodResponse	0	n/a	n/a	3	11	Blank	AvoidedLoss	True
119.921	1.45	Lose2	1.0	n/a	Yes	2.728	n/a	5.0	GoodResponse	0	0.006	118.927	3	11	Feedback	AvoidedLoss	True
121.375	2.728	Lose2	1.0	n/a	Yes	2.728	n/a	n/a	GoodResponse	0	0.0	n/a	3	11	ISIslide	AvoidedLoss	True
124.116	0.25	Control	1.0	0.0	Yes	2.984	0.016	n/a	GoodResponse	0	n/a	n/a	3	12	Cue	Neutral	True
124.367	3.9	Control	1.0	0.0	Yes	2.984	0.001	n/a	GoodResponse	0	n/a	n/a	3	12	Fixation	Neutral	True
128.262	0.28	Control	1.0	0.004	Yes	2.984	-0.004	4.0	GoodResponse	0	0.23	127.492	3	12	Target	Neutral	True
128.492	0.3	Control	1.0	0.004	Yes	2.984	-0.004	4.0	GoodResponse	0	0.23	n/a	3	12	ButtonPress	Neutral	True
128.546	0.42	Control	1.0	n/a	Yes	2.984	n/a	n/a	GoodResponse	0	n/a	n/a	3	12	Blank	Neutral	True
128.964	1.45	Control	1.0	n/a	Yes	2.984	n/a	5.0	GoodResponse	0	0.034	127.998	3	12	Feedback	Neutral	True
130.419	2.984	Control	1.0	n/a	Yes	2.984	n/a	n/a	GoodResponse	0	0.0	n/a	3	12	ISIslide	Neutral	True
133.428	0.25	Control	1.0	0.0	Yes	2.772	0.028	n/a	GoodResponse	0	n/a	n/a	3	13	Cue	Neutral	True
133.678	4.0	Control	1.0	0.0	Yes	2.772	0.0	n/a	GoodResponse	0	n/a	n/a	3	13	Fixation	Neutral	True
137.674	0.27	Control	1.0	0.004	Yes	2.772	-0.004	4.0	GoodResponse	0	0.252	136.926	3	13	Target	Neutral	True
137.926	0.3	Control	1.0	0.004	Yes	2.772	-0.004	4.0	GoodResponse	0	0.252	n/a	3	13	ButtonPress	Neutral	True
137.958	0.43	Control	1.0	n/a	Yes	2.772	n/a	n/a	GoodResponse	0	n/a	n/a	3	13	Blank	Neutral	True
138.376	1.45	Control	1.0	n/a	Yes	2.772	n/a	5.0	GoodResponse	0	0.037	137.413	3	13	Feedback	Neutral	True
139.83	2.772	Control	1.0	n/a	Yes	2.772	n/a	n/a	GoodResponse	0	0.0	n/a	3	13	ISIslide	Neutral	True
142.622	0.25	Win2	1.0	0.0	Yes	2.678	0.022	n/a	GoodResponse	1	n/a	n/a	4	14	Cue	Win	True
142.873	4.1	Win2	1.0	0.0	Yes	2.678	0.001	n/a	GoodResponse	1	n/a	n/a	4	14	Fixation	Win	True
146.968	0.26	Win2	1.0	0.004	Yes	2.678	-0.004	4.0	GoodResponse	1	0.198	146.166	4	14	Target	Win	True
147.166	0.3	Win2	1.0	0.004	Yes	2.678	-0.004	4.0	GoodResponse	1	0.198	n/a	4	14	ButtonPress	Win	True
147.236	0.44	Win2	1.0	n/a	Yes	2.678	n/a	n/a	GoodResponse	1	n/a	n/a	4	14	Blank	Win	True
147.67	1.45	Win2	1.0	n/a	Yes	2.678	n/a	5.0	GoodResponse	1	0.011	146.681	4	14	Feedback	Win	True
149.125	2.678	Win2	1.0	n/a	Yes	2.678	n/a	n/a	GoodResponse	1	0.0	n/a	4	14	ISIslide	Win	True
151.816	0.25	Control	1.0	0.0	Yes	2.984	0.016	n/a	GoodResponse	0	n/a	n/a	4	15	Cue	Neutral	True
152.067	4.0	Control	1.0	0.0	Yes	2.984	0.001	n/a	GoodResponse	0	n/a	n/a	4	15	Fixation	Neutral	True
156.062	0.25	Control	1.0	0.004	Yes	2.984	-0.004	4.0	GoodResponse	0	0.232	155.294	4	15	Target	Neutral	True
156.294	0.3	Control	1.0	0.004	Yes	2.984	-0.004	4.0	GoodResponse	0	0.232	n/a	4	15	ButtonPress	Neutral	True
156.313	0.45	Control	1.0	n/a	Yes	2.984	n/a	n/a	GoodResponse	0	n/a	n/a	4	15	Blank	Neutral	True
156.764	1.45	Control	1.0	n/a	Yes	2.984	n/a	5.0	GoodResponse	0	0.039	155.803	4	15	Feedback	Neutral	True
158.218	2.984	Control	1.0	n/a	Yes	2.984	n/a	n/a	GoodResponse	0	0.0	n/a	4	15	ISIslide	Neutral	True
161.227	0.25	Win2	1.0	0.001	Yes	2.873	0.027	n/a	GoodResponse	1	n/a	n/a	5	16	Cue	Win	True
161.478	4.0	Win2	1.0	0.0	Yes	2.873	0.001	n/a	GoodResponse	1	n/a	n/a	5	16	Fixation	Win	True
165.474	0.24	Win2	1.0	0.003	Yes	2.873	-0.003	4.0	GoodResponse	1	0.212	164.686	5	16	Target	Win	True
165.686	0.3	Win2	1.0	0.003	Yes	2.873	-0.003	4.0	GoodResponse	1	0.212	n/a	5	16	ButtonPress	Win	True
165.724	0.46	Win2	1.0	n/a	Yes	2.873	n/a	n/a	GoodResponse	1	n/a	n/a	5	16	Blank	Win	True
166.176	1.45	Win2	1.0	n/a	Yes	2.873	n/a	5.0	GoodResponse	1	0.041	165.217	5	16	Feedback	Win	True
167.63	2.873	Win2	1.0	n/a	Yes	2.873	n/a	n/a	GoodResponse	1	0.0	n/a	5	16	ISIslide	Win	True
170.522	0.25	Lose2	1.0	0.0	Yes	2.728	0.022	n/a	GoodResponse	0	n/a	n/a	5	17	Cue	AvoidedLoss	True
170.773	3.95	Lose2	1.0	0.0	Yes	2.728	0.001	n/a	GoodResponse	0	n/a	n/a	5	17	Fixation	AvoidedLoss	True
174.718	0.23	Lose2	1.0	0.004	Yes	2.728	-0.004	4.0	GoodResponse	0	0.217	173.935	5	17	Target	AvoidedLoss	True
174.935	0.3	Lose2	1.0	0.004	Yes	2.728	-0.004	4.0	GoodResponse	0	0.217	n/a	5	17	ButtonPress	AvoidedLoss	True
174.952	0.47	Lose2	1.0	n/a	Yes	2.728	n/a	n/a	GoodResponse	0	n/a	n/a	5	17	Blank	AvoidedLoss	True
175.42	1.45	Lose2	1.0	n/a	Yes	2.728	n/a	5.0	GoodResponse	0	0.017	174.437	5	17	Feedback	AvoidedLoss	True
176.874	2.728	Lose2	1.0	n/a	Yes	2.728	n/a	n/a	GoodResponse	0	0.0	n/a	5	17	ISIslide	AvoidedLoss	True
179.616	0.25	Lose2	0.9473999999999999	0.0	No	2.734	0.016	n/a	LatePress	-1	n/a	n/a	4	18	Cue	Loss	True
179.867	4.05	Lose2	0.9473999999999999	0.0	No	2.734	0.001	n/a	LatePress	-1	n/a	n/a	4	18	Fixation	Loss	True
183.912	0.22	Lose2	0.9473999999999999	0.004	No	2.734	-0.004	4.0	LatePress	-1	0.231	183.143	4	18	Target	Loss	True
184.143	0.3	Lose2	0.9473999999999999	0.004	No	2.734	-0.004	4.0	LatePress	-1	0.231	n/a	4	18	ButtonPress	Loss	True
184.146	0.48	Lose2	0.9473999999999999	n/a	No	2.734	n/a	n/a	LatePress	-1	n/a	n/a	4	18	Blank	Loss	True
184.614	1.45	Lose2	0.9473999999999999	n/a	No	2.734	n/a	5.0	LatePress	-1	0.042	183.656	4	18	Feedback	Loss	True
186.068	2.734	Lose2	0.9473999999999999	n/a	No	2.734	n/a	n/a	LatePress	-1	0.0	n/a	4	18	ISIslide	Loss	True
188.827	0.25	Control	0.95	0.0	Yes	2.923	0.027	n/a	GoodResponse	0	n/a	n/a	4	19	Cue	Neutral	True
189.078	3.95	Control	0.95	0.0	Yes	2.923	0.001	n/a	GoodResponse	0	n/a	n/a	4	19	Fixation	Neutral	True
193.023	0.21	Control	0.95	0.004	Yes	2.923	-0.004	4.0	GoodResponse	0	0.208	192.231	4	19	Target	Neutral	True
193.231	0.3	Control	0.95	0.004	Yes	2.923	-0.004	4.0	GoodResponse	0	0.208	n/a	4	19	ButtonPress	Neutral	True
193.24	0.49	Control	0.95	n/a	Yes	2.923	n/a	n/a	GoodResponse	0	n/a	n/a	4	19	Blank	Neutral	True
193.725	1.45	Control	0.95	n/a	Yes	2.923	n/a	5.0	GoodResponse	0	0.005	192.73	4	19	Feedback	Neutral	True
195.179	2.923	Control	0.95	n/a	Yes	2.923	n/a	n/a	GoodResponse	0	0.0	n/a	4	19	ISIslide	Neutral	True
198.121	0.25	Control	0.9048	0.0	No	2.629	0.021	n/a	NoResponse	0	n/a	n/a	4	20	Cue	Neutral	True
198.372	4.05	Control	0.9048	0.0	No	2.629	0.001	n/a	NoResponse	0	n/a	n/a	4	20	Fixation	Neutral	True
202.417	0.2	Control	0.9048	0.004	No	2.629	-0.004	4.0	NoResponse	0	0.227	201.644	4	20	Target	Neutral	True
202.618	0.5	Control	0.9048	n/a	No	2.629	n/a	n/a	NoResponse	0	n/a	n/a	4	20	Blank	Neutral	True
202.644	0.3	Control	0.9048	0.004	No	2.629	-0.004	4.0	NoResponse	0	0.227	n/a	4	20	ButtonPress	Neutral	True
203.12	1.45	Control	0.9048	n/a	No	2.629	n/a	5.0	NoResponse	0	0.024	202.144	4	20	Feedback	Neutral	True
204.574	2.629	Control	0.9048	n/a	No	2.629	n/a	n/a	NoResponse	0	0.0	n/a	4	20	ISIslide	Neutral	True
207.215	0.25	Control	0.8636	0.0	No	2.785	0.015	n/a	NoResponse	0	n/a	n/a	4	21	Cue	Neutral	True
207.466	4.1	Control	0.8636	0.0	No	2.785	0.001	n/a	NoResponse	0	n/a	n/a	4	21	Fixation	Neutral	True
211.561	0.19	Control	0.8636	0.004	No	2.785	-0.004	4.0	NoResponse	0	0.207	210.768	4	21	Target	Neutral	True
211.762	0.51	Control	0.8636	n/a	No	2.785	n/a	n/a	NoResponse	0	n/a	n/a	4	21	Blank	Neutral	True
211.768	0.3	Control	0.8636	0.004	No	2.785	-0.004	4.0	NoResponse	0	0.207	n/a	4	21	ButtonPress	Neutral	True
212.264	1.45	Control	0.8636	n/a	No	2.785	n/a	5.0	NoResponse	0	0.004	211.268	4	21	Feedback	Neutral	True
213.718	2.785	Control	0.8636	n/a	No	2.785	n/a	n/a	NoResponse	0	0.0	n/a	4	21	ISIslide	Neutral	True
216.526	0.25	Control	0.8695999999999999	0.0	Yes	2.774	0.026	n/a	GoodResponse	0	n/a	n/a	4	22	Cue	Neutral	True
216.777	4.0	Control	0.8695999999999999	0.0	Yes	2.774	0.001	n/a	GoodResponse	0	n/a	n/a	4	22	Fixation	Neutral	True
220.772	0.18	Control	0.8695999999999999	0.004	Yes	2.774	-0.004	4.0	GoodResponse	0	0.177	219.949	4	22	Target	Neutral	True
220.949	0.3	Control	0.8695999999999999	0.004	Yes	2.774	-0.004	4.0	GoodResponse	0	0.177	n/a	4	22	ButtonPress	Neutral	True
220.956	0.52	Control	0.8695999999999999	n/a	Yes	2.774	n/a	n/a	GoodResponse	0	n/a	n/a	4	22	Blank	Neutral	True
221.474	1.45	Control	0.8695999999999999	n/a	Yes	2.774	n/a	5.0	GoodResponse	0	0.011	220.485	4	22	Feedback	Neutral	True
222.929	2.774	Control	0.8695999999999999	n/a	Yes	2.774	n/a	n/a	GoodResponse	0	0.0	n/a	4	22	ISIslide	Neutral	True
225.721	0.25	Control	0.8332999999999999	0.0	No	2.779	0.021	n/a	NoResponse	0	n/a	n/a	4	23	Cue	Neutral	True
225.971	3.9	Control	0.8332999999999999	0.0	No	2.779	0.0	4.0	NoResponse	0	3.841	228.812	4	23	Fixation	Neutral	True
229.812	0.3	Control	0.8332999999999999	0.0	No	2.779	0.0	4.0	NoResponse	0	3.841	n/a	4	23	ButtonPress	Neutral	True
229.883	0.17	Control	0.8332999999999999	0.0	No	2.779	0.012	n/a	NoResponse	0	n/a	n/a	4	23	Target	Neutral	True
230.05	0.53	Control	0.8332999999999999	n/a	No	2.779	n/a	n/a	NoResponse	0	n/a	n/a	4	23	Blank	Neutral	True
230.568	1.45	Control	0.8332999999999999	n/a	No	2.779	n/a	5.0	NoResponse	0	0.039	229.607	4	23	Feedback	Neutral	True
232.023	2.779	Control	0.8332999999999999	n/a	No	2.779	n/a	n/a	NoResponse	0	0.0	n/a	4	23	ISIslide	Neutral	True
234.814	0.25	Win2	0.8	0.0	No	3.136	0.014	n/a	NoResponse	0	n/a	n/a	4	24	Cue	MissedWin	True
235.065	3.95	Win2	0.8	0.0	No	3.136	0.001	n/a	NoResponse	0	n/a	n/a	4	24	Fixation	MissedWin	True
239.01	0.16	Win2	0.8	0.004	No	3.136	-0.004	4.0	NoResponse	0	0.192	238.202	4	24	Target	MissedWin	True
239.177	0.54	Win2	0.8	n/a	No	3.136	n/a	n/a	NoResponse	0	n/a	n/a	4	24	Blank	MissedWin	True
239.202	0.3	Win2	0.8	0.004	No	3.136	-0.004	4.0	NoResponse	0	0.192	n/a	4	24	ButtonPress	MissedWin	True
239.712	1.45	Win2	0.8	n/a	No	3.136	n/a	5.0	NoResponse	0	0.017	238.729	4	24	Feedback	MissedWin	True
241.167	3.136	Win2	0.8	n/a	No	3.136	n/a	n/a	NoResponse	0	0.0	n/a	4	24	ISIslide	MissedWin	True
244.326	0.25	Win2	0.7692	0.0	No	3.074	0.026	n/a	NoResponse	0	n/a	n/a	4	25	Cue	MissedWin	True
244.577	4.0	Win2	0.7692	0.0	No	3.074	0.001	n/a	NoResponse	0	n/a	n/a	4	25	Fixation	MissedWin	True
248.572	0.15	Win2	0.7692	0.004	No	3.074	-0.004	4.0	NoResponse	0	0.237	247.809	4	25	Target	MissedWin	True
248.723	0.55	Win2	0.7692	n/a	No	3.074	n/a	n/a	NoResponse	0	n/a	n/a	4	25	Blank	MissedWin	True
248.809	0.3	Win2	0.7692	0.004	No	3.074	-0.004	4.0	NoResponse	0	0.237	n/a	4	25	ButtonPress	MissedWin	True
249.274	1.45	Win2	0.7692	n/a	No	3.074	n/a	5.0	NoResponse	0	0.016	248.29	4	25	Feedback	MissedWin	True
250.729	3.074	Win2	0.7692	n/a	No	3.074	n/a	n/a	NoResponse	0	0.0	n/a	4	25	ISIslide	MissedWin	True
253.821	0.25	Win2	0.7406999999999999	0.0	No	2.929	0.021	n/a	NoResponse	0	n/a	n/a	4	26	Cue	MissedWin	True
254.072	3.95	Win2	0.7406999999999999	0.0	No	2.929	0.001	n/a	NoResponse	0	n/a	n/a	4	26	Fixation	MissedWin	True
258.017	0.15	Win2	0.7406999999999999	0.004	No	2.929	-0.004	4.0	NoResponse	0	0.201	257.218	4	26	Target	MissedWin	True
258.168	0.55	Win2	0.7406999999999999	n/a	No	2.929	n/a	n/a	NoResponse	0	n/a	n/a	4	26	Blank	MissedWin	True
258.218	0.3	Win2	0.7406999999999999	0.004	No	2.929	-0.004	4.0	NoResponse	0	0.201	n/a	4	26	ButtonPress	MissedWin	True
258.719	1.45	Win2	0.7406999999999999	n/a	No	2.929	n/a	5.0	NoResponse	0	0.034	257.753	4	26	Feedback	MissedWin	True
260.174	2.929	Win2	0.7406999999999999	n/a	No	2.929	n/a	n/a	NoResponse	0	0.0	n/a	4	26	ISIslide	MissedWin	True
263.116	0.25	Lose2	0.75	0.0	Yes	2.834	0.016	n/a	GoodResponse	0	n/a	n/a	4	27	Cue	AvoidedLoss	False
263.367	4.05	Lose2	0.75	0.0	Yes	2.834	0.001	4.0	GoodResponse	0	3.748	266.115	4	27	Fixation	AvoidedLoss	False
267.115	0.3	Lose2	0.75	0.0	Yes	2.834	0.001	4.0	GoodResponse	0	3.748	n/a	4	27	ButtonPress	AvoidedLoss	False
267.412	0.15	Lose2	0.75	0.004	Yes	2.834	-0.004	4.0	GoodResponse	0	0.142	266.554	4	27	Target	AvoidedLoss	False
267.554	0.3	Lose2	0.75	0.004	Yes	2.834	-0.004	4.0	GoodResponse	0	0.142	n/a	4	27	ButtonPress	AvoidedLoss	False
267.562	0.55	Lose2	0.75	n/a	Yes	2.834	n/a	n/a	GoodResponse	0	n/a	n/a	4	27	Blank	AvoidedLoss	False
268.114	1.45	Lose2	0.75	n/a	Yes	2.834	n/a	5.0	GoodResponse	0	0.005	267.119	4	27	Feedback	AvoidedLoss	False
269.568	2.834	Lose2	0.75	n/a	Yes	2.834	n/a	n/a	GoodResponse	0	0.0	n/a	4	27	ISIslide	AvoidedLoss	False
272.427	0.25	Control	0.7585999999999999	0.0	Yes	2.823	0.027	n/a	GoodResponse	0	n/a	n/a	4	28	Cue	Neutral	True
272.678	4.05	Control	0.7585999999999999	0.0	Yes	2.823	0.001	n/a	GoodResponse	0	n/a	n/a	4	28	Fixation	Neutral	True
276.723	0.15	Control	0.7585999999999999	0.004	Yes	2.823	-0.004	4.0	GoodResponse	0	0.121	275.844	4	28	Target	Neutral	True
276.844	0.3	Control	0.7585999999999999	0.004	Yes	2.823	-0.004	4.0	GoodResponse	0	0.121	n/a	4	28	ButtonPress	Neutral	True
276.874	0.55	Control	0.7585999999999999	n/a	Yes	2.823	n/a	n/a	GoodResponse	0	n/a	n/a	4	28	Blank	Neutral	True
277.425	1.45	Control	0.7585999999999999	n/a	Yes	2.823	n/a	5.0	GoodResponse	0	0.011	276.436	4	28	Feedback	Neutral	True
278.88	2.823	Control	0.7585999999999999	n/a	Yes	2.823	n/a	n/a	GoodResponse	0	0.0	n/a	4	28	ISIslide	Neutral	True
281.721	0.25	Lose2	0.7333	0.001	No	2.829	0.021	n/a	NoResponse	-1	n/a	n/a	3	29	Cue	Loss	False
281.972	3.95	Lose2	0.7333	0.0	No	2.829	0.001	4.0	NoResponse	-1	3.655	284.627	3	29	Fixation	Loss	False
285.627	0.3	Lose2	0.7333	0.0	No	2.829	0.001	4.0	NoResponse	-1	3.655	n/a	3	29	ButtonPress	Loss	False
285.917	0.15	Lose2	0.7333	0.004	No	2.829	-0.004	4.0	NoResponse	-1	0.209	285.126	3	29	Target	Loss	False
286.068	0.55	Lose2	0.7333	n/a	No	2.829	n/a	n/a	NoResponse	-1	n/a	n/a	3	29	Blank	Loss	False
286.126	0.3	Lose2	0.7333	0.004	No	2.829	-0.004	4.0	NoResponse	-1	0.209	n/a	3	29	ButtonPress	Loss	False
286.619	1.45	Lose2	0.7333	n/a	No	2.829	n/a	5.0	NoResponse	-1	0.036	285.655	3	29	Feedback	Loss	False
288.074	2.829	Lose2	0.7333	n/a	No	2.829	n/a	n/a	NoResponse	-1	0.0	n/a	3	29	ISIslide	Loss	False
290.916	0.25	Win2	0.7097	0.0	No	2.784	0.016	n/a	NoResponse	0	n/a	n/a	3	30	Cue	MissedWin	True
291.166	3.9	Win2	0.7097	0.001	No	2.784	0.0	n/a	NoResponse	0	n/a	n/a	3	30	Fixation	MissedWin	True
295.078	0.15	Win2	0.7097	0.0	No	2.784	0.012	4.0	NoResponse	0	0.163	294.241	3	30	Target	MissedWin	True
295.212	0.55	Win2	0.7097	n/a	No	2.784	n/a	n/a	NoResponse	0	n/a	n/a	3	30	Blank	MissedWin	True
295.241	0.3	Win2	0.7097	0.0	No	2.784	0.012	4.0	NoResponse	0	0.163	n/a	3	30	ButtonPress	MissedWin	True
295.764	1.45	Win2	0.7097	n/a	No	2.784	n/a	5.0	NoResponse	0	0.013	294.777	3	30	Feedback	MissedWin	True
297.218	2.784	Win2	0.7097	n/a	No	2.784	n/a	n/a	NoResponse	0	0.0	n/a	3	30	ISIslide	MissedWin	True
300.026	0.25	Lose2	0.6875	0.0	No	2.824	0.026	n/a	NoResponse	-1	n/a	n/a	2	31	Cue	Loss	True
300.277	4.05	Lose2	0.6875	0.0	No	2.824	0.001	n/a	NoResponse	-1	n/a	n/a	2	31	Fixation	Loss	True
304.322	0.15	Lose2	0.6875	0.004	No	2.824	-0.004	4.0	NoResponse	-1	0.19	303.512	2	31	Target	Loss	True
304.473	0.55	Lose2	0.6875	n/a	No	2.824	n/a	n/a	NoResponse	-1	n/a	n/a	2	31	Blank	Loss	True
304.512	0.3	Lose2	0.6875	0.004	No	2.824	-0.004	4.0	NoResponse	-1	0.19	n/a	2	31	ButtonPress	Loss	True
305.025	1.45	Lose2	0.6875	n/a	No	2.824	n/a	5.0	NoResponse	-1	0.021	304.046	2	31	Feedback	Loss	True
306.479	2.824	Lose2	0.6875	n/a	No	2.824	n/a	n/a	NoResponse	-1	0.0	n/a	2	31	ISIslide	Loss	True
309.321	0.25	Lose2	0.6667000000000001	0.0	No	2.629	0.021	n/a	NoResponse	-1	n/a	n/a	1	32	Cue	Loss	True
309.572	4.15	Lose2	0.6667000000000001	0.0	No	2.629	0.001	n/a	NoResponse	-1	n/a	n/a	1	32	Fixation	Loss	True
313.717	0.15	Lose2	0.6667000000000001	0.004	No	2.629	-0.004	4.0	NoResponse	-1	0.176	312.893	1	32	Target	Loss	True
313.868	0.55	Lose2	0.6667000000000001	n/a	No	2.629	n/a	n/a	NoResponse	-1	n/a	n/a	1	32	Blank	Loss	True
313.893	0.3	Lose2	0.6667000000000001	0.004	No	2.629	-0.004	4.0	NoResponse	-1	0.176	n/a	1	32	ButtonPress	Loss	True
314.419	1.45	Lose2	0.6667000000000001	n/a	No	2.629	n/a	5.0	NoResponse	-1	0.04	313.459	1	32	Feedback	Loss	True
315.874	2.629	Lose2	0.6667000000000001	n/a	No	2.629	n/a	n/a	NoResponse	-1	0.0	n/a	1	32	ISIslide	Loss	True
318.532	0.25	Win2	0.6470999999999999	0.0	No	2.668	0.032	n/a	PrematurePress	0	n/a	n/a	1	33	Cue	MissedWin	True
318.782	4.0	Win2	0.6470999999999999	0.0	No	2.668	0.0	n/a	PrematurePress	0	n/a	n/a	1	33	Fixation	MissedWin	True
322.778	0.15	Win2	0.6470999999999999	0.004	No	2.668	-0.004	4.0	PrematurePress	0	0.013	321.791	1	33	Target	MissedWin	True
322.791	0.3	Win2	0.6470999999999999	0.004	No	2.668	-0.004	4.0	PrematurePress	0	0.013	n/a	1	33	ButtonPress	MissedWin	True
322.928	0.55	Win2	0.6470999999999999	n/a	No	2.668	n/a	n/a	PrematurePress	0	n/a	n/a	1	33	Blank	MissedWin	True
323.48	1.45	Win2	0.6470999999999999	n/a	No	2.668	n/a	5.0	PrematurePress	0	0.008	322.488	1	33	Feedback	MissedWin	True
324.934	2.668	Win2	0.6470999999999999	n/a	No	2.668	n/a	n/a	PrematurePress	0	0.0	n/a	1	33	ISIslide	MissedWin	True
327.626	0.25	Lose2	0.6286	0.0	No	2.624	0.026	n/a	NoResponse	-1	n/a	n/a	0	34	Cue	Loss	True
327.876	4.05	Lose2	0.6286	0.0	No	2.624	0.0	n/a	NoResponse	-1	n/a	n/a	0	34	Fixation	Loss	True
331.922	0.16	Lose2	0.6286	0.004	No	2.624	-0.004	4.0	NoResponse	-1	0.195	331.117	0	34	Target	Loss	True
332.089	0.54	Lose2	0.6286	n/a	No	2.624	n/a	n/a	NoResponse	-1	n/a	n/a	0	34	Blank	Loss	True
332.117	0.3	Lose2	0.6286	0.004	No	2.624	-0.004	4.0	NoResponse	-1	0.195	n/a	0	34	ButtonPress	Loss	True
332.624	1.45	Lose2	0.6286	n/a	No	2.624	n/a	5.0	NoResponse	-1	0.031	331.655	0	34	Feedback	Loss	True
334.078	2.624	Lose2	0.6286	n/a	No	2.624	n/a	n/a	NoResponse	-1	0.0	n/a	0	34	ISIslide	Loss	True
336.719	0.25	Lose2	0.6111	0.001	No	2.681	0.019	n/a	NoResponse	-1	n/a	n/a	-1	35	Cue	Loss	True
336.97	4.0	Lose2	0.6111	0.0	No	2.681	0.001	4.0	NoResponse	-1	3.989	339.959	-1	35	Fixation	Loss	True
340.959	0.3	Lose2	0.6111	0.0	No	2.681	0.001	4.0	NoResponse	-1	3.989	n/a	-1	35	ButtonPress	Loss	True
340.965	0.17	Lose2	0.6111	0.004	No	2.681	-0.004	n/a	NoResponse	-1	n/a	n/a	-1	35	Target	Loss	True
341.149	0.53	Lose2	0.6111	n/a	No	2.681	n/a	n/a	NoResponse	-1	n/a	n/a	-1	35	Blank	Loss	True
341.668	1.45	Lose2	0.6111	n/a	No	2.681	n/a	5.0	NoResponse	-1	0.011	340.679	-1	35	Feedback	Loss	True
343.122	2.681	Lose2	0.6111	n/a	No	2.681	n/a	n/a	NoResponse	-1	0.0	n/a	-1	35	ISIslide	Loss	True
345.83	0.25	Control	0.5946	0.0	No	2.67	0.03	n/a	NoResponse	0	n/a	n/a	-1	36	Cue	Neutral	True
346.081	4.0	Control	0.5946	0.0	No	2.67	0.001	n/a	NoResponse	0	n/a	n/a	-1	36	Fixation	Neutral	True
350.076	0.18	Control	0.5946	0.004	No	2.67	-0.004	4.0	NoResponse	0	0.191	349.267	-1	36	Target	Neutral	True
350.26	0.52	Control	0.5946	n/a	No	2.67	n/a	n/a	NoResponse	0	n/a	n/a	-1	36	Blank	Neutral	True
350.267	0.3	Control	0.5946	0.004	No	2.67	-0.004	4.0	NoResponse	0	0.191	n/a	-1	36	ButtonPress	Neutral	True
350.778	1.45	Control	0.5946	n/a	No	2.67	n/a	5.0	NoResponse	0	0.023	349.801	-1	36	Feedback	Neutral	True
352.233	2.67	Control	0.5946	n/a	No	2.67	n/a	n/a	NoResponse	0	0.0	n/a	-1	36	ISIslide	Neutral	True
354.924	0.25	Win2	0.5789	0.0	No	2.876	0.024	n/a	NoResponse	0	n/a	n/a	-1	37	Cue	MissedWin	True
355.175	4.0	Win2	0.5789	0.0	No	2.876	0.001	n/a	NoResponse	0	n/a	n/a	-1	37	Fixation	MissedWin	True
359.17	0.19	Win2	0.5789	0.004	No	2.876	-0.004	4.0	NoResponse	0	0.215	358.385	-1	37	Target	MissedWin	True
359.371	0.51	Win2	0.5789	n/a	No	2.876	n/a	n/a	NoResponse	0	n/a	n/a	-1	37	Blank	MissedWin	True
359.385	0.3	Win2	0.5789	0.004	No	2.876	-0.004	4.0	NoResponse	0	0.215	n/a	-1	37	ButtonPress	MissedWin	True
359.872	1.45	Win2	0.5789	n/a	No	2.876	n/a	5.0	NoResponse	0	0.002	358.874	-1	37	Feedback	MissedWin	True
361.326	2.876	Win2	0.5789	n/a	No	2.876	n/a	n/a	NoResponse	0	0.0	n/a	-1	37	ISIslide	MissedWin	True
364.218	0.25	Lose2	0.5897	0.001	Yes	2.832	0.018	n/a	GoodResponse	0	n/a	n/a	-1	38	Cue	AvoidedLoss	True
364.469	3.95	Lose2	0.5897	0.0	Yes	2.832	0.001	n/a	GoodResponse	0	n/a	n/a	-1	38	Fixation	AvoidedLoss	True
368.414	0.2	Lose2	0.5897	0.004	Yes	2.832	-0.004	4.0	GoodResponse	0	0.179	367.593	-1	38	Target	AvoidedLoss	True
368.593	0.3	Lose2	0.5897	0.004	Yes	2.832	-0.004	4.0	GoodResponse	0	0.179	n/a	-1	38	ButtonPress	AvoidedLoss	True
368.615	0.5	Lose2	0.5897	n/a	Yes	2.832	n/a	n/a	GoodResponse	0	n/a	n/a	-1	38	Blank	AvoidedLoss	True
369.116	1.45	Lose2	0.5897	n/a	Yes	2.832	n/a	5.0	GoodResponse	0	0.026	368.142	-1	38	Feedback	AvoidedLoss	True
370.571	2.832	Lose2	0.5897	n/a	Yes	2.832	n/a	n/a	GoodResponse	0	0.0	n/a	-1	38	ISIslide	AvoidedLoss	True
373.429	0.25	Win2	0.6	0.0	Yes	2.971	0.029	n/a	GoodResponse	1	n/a	n/a	0	39	Cue	Win	True
373.68	4.1	Win2	0.6	0.0	Yes	2.971	0.001	n/a	GoodResponse	1	n/a	n/a	0	39	Fixation	Win	True
377.776	0.21	Win2	0.6	0.003	Yes	2.971	-0.003	4.0	GoodResponse	1	0.139	376.915	0	39	Target	Win	True
377.915	0.3	Win2	0.6	0.003	Yes	2.971	-0.003	4.0	GoodResponse	1	0.139	n/a	0	39	ButtonPress	Win	True
377.993	0.49	Win2	0.6	n/a	Yes	2.971	n/a	n/a	GoodResponse	1	n/a	n/a	0	39	Blank	Win	True
378.478	1.45	Win2	0.6	n/a	Yes	2.971	n/a	5.0	GoodResponse	1	0.03	377.508	0	39	Feedback	Win	True
379.932	2.971	Win2	0.6	n/a	Yes	2.971	n/a	n/a	GoodResponse	1	0.0	n/a	0	39	ISIslide	Win	True
382.924	0.25	Win2	0.5854	0.001	No	2.726	0.024	n/a	NoResponse	0	n/a	n/a	0	40	Cue	MissedWin	True
383.175	3.95	Win2	0.5854	0.0	No	2.726	0.001	4.0	NoResponse	0	3.882	386.057	0	40	Fixation	MissedWin	True
387.057	0.3	Win2	0.5854	0.0	No	2.726	0.001	4.0	NoResponse	0	3.882	n/a	0	40	ButtonPress	MissedWin	True
387.12	0.22	Win2	0.5854	0.004	No	2.726	-0.004	n/a	NoResponse	0	n/a	n/a	0	40	Target	MissedWin	True
387.354	0.48	Win2	0.5854	n/a	No	2.726	n/a	n/a	NoResponse	0	n/a	n/a	0	40	Blank	MissedWin	True
387.822	1.45	Win2	0.5854	n/a	No	2.726	n/a	5.0	NoResponse	0	0.008	386.83	0	40	Feedback	MissedWin	True
389.277	2.726	Win2	0.5854	n/a	No	2.726	n/a	n/a	NoResponse	0	0.0	n/a	0	40	ISIslide	MissedWin	True
392.018	0.25	Win2	0.5952000000000001	0.0	Yes	2.782	0.018	n/a	GoodResponse	1	n/a	n/a	1	41	Cue	Win	True
392.269	3.9	Win2	0.5952000000000001	0.0	Yes	2.782	0.001	n/a	GoodResponse	1	n/a	n/a	1	41	Fixation	Win	True
396.164	0.23	Win2	0.5952000000000001	0.004	Yes	2.782	-0.004	4.0	GoodResponse	1	0.185	395.349	1	41	Target	Win	True
396.349	0.3	Win2	0.5952000000000001	0.004	Yes	2.782	-0.004	4.0	GoodResponse	1	0.185	n/a	1	41	ButtonPress	Win	True
396.398	0.47	Win2	0.5952000000000001	n/a	Yes	2.782	n/a	n/a	GoodResponse	1	n/a	n/a	1	41	Blank	Win	True
396.866	1.45	Win2	0.5952000000000001	n/a	Yes	2.782	n/a	5.0	GoodResponse	1	0.032	395.898	1	41	Feedback	Win	True
398.321	2.782	Win2	0.5952000000000001	n/a	Yes	2.782	n/a	n/a	GoodResponse	1	0.0	n/a	1	41	ISIslide	Win	True
401.129	0.25	Control	0.6047	0.0	Yes	2.921	0.029	n/a	GoodResponse	0	n/a	n/a	1	42	Cue	Neutral	True
401.38	3.85	Control	0.6047	0.0	Yes	2.921	0.001	n/a	GoodResponse	0	n/a	n/a	1	42	Fixation	Neutral	True
405.225	0.24	Control	0.6047	0.004	Yes	2.921	-0.004	4.0	GoodResponse	0	0.227	404.452	1	42	Target	Neutral	True
405.452	0.3	Control	0.6047	0.004	Yes	2.921	-0.004	4.0	GoodResponse	0	0.227	n/a	1	42	ButtonPress	Neutral	True
405.475	0.46	Control	0.6047	n/a	Yes	2.921	n/a	n/a	GoodResponse	0	n/a	n/a	1	42	Blank	Neutral	True
405.927	1.45	Control	0.6047	n/a	Yes	2.921	n/a	5.0	GoodResponse	0	0.045	404.972	1	42	Feedback	Neutral	True
407.381	2.921	Control	0.6047	n/a	Yes	2.921	n/a	n/a	GoodResponse	0	0.0	n/a	1	42	ISIslide	Neutral	True
410.323	0.25	Win2	0.5909	0.0	No	3.177	0.023	n/a	NoResponse	0	n/a	n/a	1	43	Cue	MissedWin	True
410.574	4.0	Win2	0.5909	0.0	No	3.177	0.001	n/a	NoResponse	0	n/a	n/a	1	43	Fixation	MissedWin	True
414.569	0.25	Win2	0.5909	0.004	No	3.177	-0.004	4.0	NoResponse	0	0.269	413.838	1	43	Target	MissedWin	True
414.82	0.45	Win2	0.5909	n/a	No	3.177	n/a	n/a	NoResponse	0	n/a	n/a	1	43	Blank	MissedWin	True
414.838	0.3	Win2	0.5909	0.004	No	3.177	-0.004	4.0	NoResponse	0	0.269	n/a	1	43	ButtonPress	MissedWin	True
415.271	1.45	Win2	0.5909	n/a	No	3.177	n/a	5.0	NoResponse	0	0.017	414.288	1	43	Feedback	MissedWin	True
416.726	3.177	Win2	0.5909	n/a	No	3.177	n/a	n/a	NoResponse	0	0.0	n/a	1	43	ISIslide	MissedWin	True
419.918	0.25	Win2	0.5778	0.001	No	2.982	0.018	n/a	NoResponse	0	n/a	n/a	1	44	Cue	MissedWin	False
420.169	4.0	Win2	0.5778	0.0	No	2.982	0.001	4.0	NoResponse	0	3.855	423.024	1	44	Fixation	MissedWin	False
424.024	0.3	Win2	0.5778	0.0	No	2.982	0.001	4.0	NoResponse	0	3.855	n/a	1	44	ButtonPress	MissedWin	False
424.165	0.26	Win2	0.5778	0.003	No	2.982	-0.003	4.0	NoResponse	0	0.293	423.458	1	44	Target	MissedWin	False
424.432	0.44	Win2	0.5778	n/a	No	2.982	n/a	n/a	NoResponse	0	n/a	n/a	1	44	Blank	MissedWin	False
424.458	0.3	Win2	0.5778	0.003	No	2.982	-0.003	4.0	NoResponse	0	0.293	n/a	1	44	ButtonPress	MissedWin	False
424.867	1.45	Win2	0.5778	n/a	No	2.982	n/a	5.0	NoResponse	0	0.031	423.898	1	44	Feedback	MissedWin	False
426.321	2.982	Win2	0.5778	n/a	No	2.982	n/a	n/a	NoResponse	0	0.0	n/a	1	44	ISIslide	MissedWin	False
429.33	0.25	Control	0.5870000000000001	0.0	Yes	2.87	0.03	n/a	GoodResponse	0	n/a	n/a	1	45	Cue	Neutral	True
429.581	4.1	Control	0.5870000000000001	0.0	Yes	2.87	0.001	n/a	GoodResponse	0	n/a	n/a	1	45	Fixation	Neutral	True
433.676	0.27	Control	0.5870000000000001	0.004	Yes	2.87	-0.004	4.0	GoodResponse	0	0.213	432.889	1	45	Target	Neutral	True
433.889	0.3	Control	0.5870000000000001	0.004	Yes	2.87	-0.004	4.0	GoodResponse	0	0.213	n/a	1	45	ButtonPress	Neutral	True
433.961	0.43	Control	0.5870000000000001	n/a	Yes	2.87	n/a	n/a	GoodResponse	0	n/a	n/a	1	45	Blank	Neutral	True
434.378	1.45	Control	0.5870000000000001	n/a	Yes	2.87	n/a	5.0	GoodResponse	0	0.032	433.41	1	45	Feedback	Neutral	True
435.833	2.87	Control	0.5870000000000001	n/a	Yes	2.87	n/a	n/a	GoodResponse	0	0.0	n/a	1	45	ISIslide	Neutral	True
438.725	0.25	Lose2	0.5957	0.0	Yes	3.375	0.025	n/a	GoodResponse	0	n/a	n/a	1	46	Cue	AvoidedLoss	True
438.976	4.0	Lose2	0.5957	0.0	Yes	3.375	0.001	n/a	GoodResponse	0	n/a	n/a	1	46	Fixation	AvoidedLoss	True
442.971	0.28	Lose2	0.5957	0.004	Yes	3.375	-0.004	4.0	GoodResponse	0	0.14	442.111	1	46	Target	AvoidedLoss	True
443.111	0.3	Lose2	0.5957	0.004	Yes	3.375	-0.004	4.0	GoodResponse	0	0.14	n/a	1	46	ButtonPress	AvoidedLoss	True
443.255	0.42	Lose2	0.5957	n/a	Yes	3.375	n/a	n/a	GoodResponse	0	n/a	n/a	1	46	Blank	AvoidedLoss	True
443.673	1.45	Lose2	0.5957	n/a	Yes	3.375	n/a	5.0	GoodResponse	0	0.008	442.681	1	46	Feedback	AvoidedLoss	True
445.127	3.375	Lose2	0.5957	n/a	Yes	3.375	n/a	n/a	GoodResponse	0	0.0	n/a	1	46	ISIslide	AvoidedLoss	True
448.521	0.25	Lose2	0.6042000000000001	0.0	Yes	2.679	0.021	n/a	GoodResponse	0	n/a	n/a	1	47	Cue	AvoidedLoss	True
448.772	4.0	Lose2	0.6042000000000001	0.0	Yes	2.679	0.001	n/a	GoodResponse	0	n/a	n/a	1	47	Fixation	AvoidedLoss	True
452.767	0.29	Lose2	0.6042000000000001	0.004	Yes	2.679	-0.004	4.0	GoodResponse	0	0.219	451.986	1	47	Target	AvoidedLoss	True
452.986	0.3	Lose2	0.6042000000000001	0.004	Yes	2.679	-0.004	4.0	GoodResponse	0	0.219	n/a	1	47	ButtonPress	AvoidedLoss	True
453.068	0.41	Lose2	0.6042000000000001	n/a	Yes	2.679	n/a	n/a	GoodResponse	0	n/a	n/a	1	47	Blank	AvoidedLoss	True
453.469	1.45	Lose2	0.6042000000000001	n/a	Yes	2.679	n/a	5.0	GoodResponse	0	0.014	452.483	1	47	Feedback	AvoidedLoss	True
454.923	2.679	Lose2	0.6042000000000001	n/a	Yes	2.679	n/a	n/a	GoodResponse	0	0.0	n/a	1	47	ISIslide	AvoidedLoss	True
457.631	0.25	Lose2	0.6122	0.0	Yes	3.019	0.031	n/a	GoodResponse	0	n/a	n/a	1	48	Cue	AvoidedLoss	True
457.882	3.95	Lose2	0.6122	0.0	Yes	3.019	0.001	n/a	GoodResponse	0	n/a	n/a	1	48	Fixation	AvoidedLoss	True
461.827	0.3	Lose2	0.6122	0.004	Yes	3.019	-0.004	4.0	GoodResponse	0	0.227	461.054	1	48	Target	AvoidedLoss	True
462.054	0.3	Lose2	0.6122	0.004	Yes	3.019	-0.004	4.0	GoodResponse	0	0.227	n/a	1	48	ButtonPress	AvoidedLoss	True
462.128	0.4	Lose2	0.6122	n/a	Yes	3.019	n/a	n/a	GoodResponse	0	n/a	n/a	1	48	Blank	AvoidedLoss	True
462.529	1.45	Lose2	0.6122	n/a	Yes	3.019	n/a	5.0	GoodResponse	0	0.026	461.555	1	48	Feedback	AvoidedLoss	True
463.984	3.019	Lose2	0.6122	n/a	Yes	3.019	n/a	n/a	GoodResponse	0	0.0	n/a	1	48	ISIslide	AvoidedLoss	True
467.026	0.25	Control	0.6	0.0	No	2.874	0.026	n/a	NoResponse	0	n/a	n/a	1	49	Cue	Neutral	True
467.277	4.0	Control	0.6	0.0	No	2.874	0.001	n/a	NoResponse	0	n/a	n/a	1	49	Fixation	Neutral	True
471.272	0.31	Control	0.6	0.004	No	2.874	-0.004	4.0	NoResponse	0	0.389	470.661	1	49	Target	Neutral	True
471.59	0.39	Control	0.6	n/a	No	2.874	n/a	n/a	NoResponse	0	n/a	n/a	1	49	Blank	Neutral	True
471.661	0.3	Control	0.6	0.004	No	2.874	-0.004	4.0	NoResponse	0	0.389	n/a	1	49	ButtonPress	Neutral	True
471.974	1.45	Control	0.6	n/a	No	2.874	n/a	5.0	NoResponse	0	0.045	471.019	1	49	Feedback	Neutral	True
473.429	2.874	Control	0.6	n/a	No	2.874	n/a	n/a	NoResponse	0	0.0	n/a	1	49	ISIslide	Neutral	True
476.321	0.25	Control	0.6078	0.0	Yes	2.779	0.021	n/a	GoodResponse	0	n/a	n/a	1	50	Cue	Neutral	True
476.571	4.0	Control	0.6078	0.0	Yes	2.779	0.0	n/a	GoodResponse	0	n/a	n/a	1	50	Fixation	Neutral	True
480.567	0.32	Control	0.6078	0.004	Yes	2.779	-0.004	4.0	GoodResponse	0	0.264	479.831	1	50	Target	Neutral	True
480.831	0.3	Control	0.6078	0.004	Yes	2.779	-0.004	4.0	GoodResponse	0	0.264	n/a	1	50	ButtonPress	Neutral	True
480.901	0.38	Control	0.6078	n/a	Yes	2.779	n/a	n/a	GoodResponse	0	n/a	n/a	1	50	Blank	Neutral	True
481.269	1.45	Control	0.6078	n/a	Yes	2.779	n/a	5.0	GoodResponse	0	0.018	480.287	1	50	Feedback	Neutral	True
482.723	2.779	Control	0.6078	n/a	Yes	2.779	n/a	n/a	GoodResponse	0	0.0	n/a	1	50	ISIslide	Neutral	True
485.515	0.25	Control	0.6154	0.0	Yes	2.735	0.015	n/a	GoodResponse	0	n/a	n/a	1	51	Cue	Neutral	True
485.766	3.95	Control	0.6154	0.0	Yes	2.735	0.001	n/a	GoodResponse	0	n/a	n/a	1	51	Fixation	Neutral	True
489.711	0.33	Control	0.6154	0.004	Yes	2.735	-0.004	4.0	GoodResponse	0	0.206	488.917	1	51	Target	Neutral	True
489.917	0.3	Control	0.6154	0.004	Yes	2.735	-0.004	4.0	GoodResponse	0	0.206	n/a	1	51	ButtonPress	Neutral	True
490.045	0.37	Control	0.6154	n/a	Yes	2.735	n/a	n/a	GoodResponse	0	n/a	n/a	1	51	Blank	Neutral	True
490.413	1.45	Control	0.6154	n/a	Yes	2.735	n/a	5.0	GoodResponse	0	0.045	489.458	1	51	Feedback	Neutral	True
491.867	2.735	Control	0.6154	n/a	Yes	2.735	n/a	n/a	GoodResponse	0	0.0	n/a	1	51	ISIslide	Neutral	True
494.625	0.25	Control	0.6225999999999999	0.001	Yes	2.625	0.025	n/a	GoodResponse	0	n/a	n/a	1	52	Cue	Neutral	True
494.876	4.05	Control	0.6225999999999999	0.0	Yes	2.625	0.001	n/a	GoodResponse	0	n/a	n/a	1	52	Fixation	Neutral	True
498.922	0.34	Control	0.6225999999999999	0.003	Yes	2.625	-0.003	4.0	GoodResponse	0	0.225	498.147	1	52	Target	Neutral	True
499.147	0.3	Control	0.6225999999999999	0.003	Yes	2.625	-0.003	4.0	GoodResponse	0	0.225	n/a	1	52	ButtonPress	Neutral	True
499.273	0.36	Control	0.6225999999999999	n/a	Yes	2.625	n/a	n/a	GoodResponse	0	n/a	n/a	1	52	Blank	Neutral	True
499.624	1.45	Control	0.6225999999999999	n/a	Yes	2.625	n/a	5.0	GoodResponse	0	0.007	498.631	1	52	Feedback	Neutral	True
501.078	2.625	Control	0.6225999999999999	n/a	Yes	2.625	n/a	n/a	GoodResponse	0	0.0	n/a	1	52	ISIslide	Neutral	True
503.719	0.25	Win2	0.6296	0.0	Yes	2.931	0.019	n/a	GoodResponse	1	n/a	n/a	2	53	Cue	Win	True
503.97	4.05	Win2	0.6296	0.0	Yes	2.931	0.001	n/a	GoodResponse	1	n/a	n/a	2	53	Fixation	Win	True
508.016	0.35	Win2	0.6296	0.003	Yes	2.931	-0.003	4.0	GoodResponse	1	0.194	507.21	2	53	Target	Win	True
508.21	0.3	Win2	0.6296	0.003	Yes	2.931	-0.003	4.0	GoodResponse	1	0.194	n/a	2	53	ButtonPress	Win	True
508.367	0.35	Win2	0.6296	n/a	Yes	2.931	n/a	n/a	GoodResponse	1	n/a	n/a	2	53	Blank	Win	True
508.718	1.45	Win2	0.6296	n/a	Yes	2.931	n/a	5.0	GoodResponse	1	0.033	507.751	2	53	Feedback	Win	True
510.172	2.931	Win2	0.6296	n/a	Yes	2.931	n/a	n/a	GoodResponse	1	0.0	n/a	2	53	ISIslide	Win	True
513.131	0.25	Win2	0.6364	0.0	Yes	2.719	0.031	n/a	GoodResponse	1	n/a	n/a	3	54	Cue	Win	True
513.382	3.95	Win2	0.6364	0.0	Yes	2.719	0.001	n/a	GoodResponse	1	n/a	n/a	3	54	Fixation	Win	True
517.327	0.36	Win2	0.6364	0.004	Yes	2.719	-0.004	4.0	GoodResponse	1	0.21	516.537	3	54	Target	Win	True
517.537	0.3	Win2	0.6364	0.004	Yes	2.719	-0.004	4.0	GoodResponse	1	0.21	n/a	3	54	ButtonPress	Win	True
517.695	0.34	Win2	0.6364	n/a	Yes	2.719	n/a	n/a	GoodResponse	1	n/a	n/a	3	54	Blank	Win	True
518.029	1.45	Win2	0.6364	n/a	Yes	2.719	n/a	5.0	GoodResponse	1	0.038	517.067	3	54	Feedback	Win	True
519.483	2.719	Win2	0.6364	n/a	Yes	2.719	n/a	n/a	GoodResponse	1	0.0	n/a	3	54	ISIslide	Win	True
522.225	0.25	Control	0.6429	0.0	Yes	3.025	0.025	n/a	GoodResponse	0	n/a	n/a	3	55	Cue	Neutral	True
522.475	3.95	Control	0.6429	0.001	Yes	3.025	0.0	n/a	GoodResponse	0	n/a	n/a	3	55	Fixation	Neutral	True
526.421	0.37	Control	0.6429	0.004	Yes	3.025	-0.004	4.0	GoodResponse	0	0.202	525.623	3	55	Target	Neutral	True
526.623	0.3	Control	0.6429	0.004	Yes	3.025	-0.004	4.0	GoodResponse	0	0.202	n/a	3	55	ButtonPress	Neutral	True
526.805	0.33	Control	0.6429	n/a	Yes	3.025	n/a	n/a	GoodResponse	0	n/a	n/a	3	55	Blank	Neutral	True
527.123	1.45	Control	0.6429	n/a	Yes	3.025	n/a	5.0	GoodResponse	0	0.018	526.141	3	55	Feedback	Neutral	True
528.577	3.025	Control	0.6429	n/a	Yes	3.025	n/a	n/a	GoodResponse	0	0.0	n/a	3	55	ISIslide	Neutral	True
531.62	0.25	Control	0.6491	0.0	Yes	2.83	0.02	n/a	GoodResponse	0	n/a	n/a	3	56	Cue	Neutral	True
531.87	3.95	Control	0.6491	0.0	Yes	2.83	0.0	n/a	GoodResponse	0	n/a	n/a	3	56	Fixation	Neutral	True
535.832	0.38	Control	0.6491	0.0	Yes	2.83	0.012	4.0	GoodResponse	0	0.235	535.067	3	56	Target	Neutral	True
536.067	0.3	Control	0.6491	0.0	Yes	2.83	0.012	4.0	GoodResponse	0	0.235	n/a	3	56	ButtonPress	Neutral	True
536.2	0.32	Control	0.6491	n/a	Yes	2.83	n/a	n/a	GoodResponse	0	n/a	n/a	3	56	Blank	Neutral	True
536.518	1.45	Control	0.6491	n/a	Yes	2.83	n/a	5.0	GoodResponse	0	0.037	535.555	3	56	Feedback	Neutral	True
537.972	2.83	Control	0.6491	n/a	Yes	2.83	n/a	n/a	GoodResponse	0	0.0	n/a	3	56	ISIslide	Neutral	True
540.83	0.25	Control	0.6552	0.0	Yes	3.47	0.03	n/a	GoodResponse	0	n/a	n/a	3	57	Cue	Neutral	True
541.081	4.0	Control	0.6552	0.0	Yes	3.47	0.001	n/a	GoodResponse	0	n/a	n/a	3	57	Fixation	Neutral	True
545.076	0.39	Control	0.6552	0.004	Yes	3.47	-0.004	4.0	GoodResponse	0	0.228	544.304	3	57	Target	Neutral	True
545.304	0.3	Control	0.6552	0.004	Yes	3.47	-0.004	4.0	GoodResponse	0	0.228	n/a	3	57	ButtonPress	Neutral	True
545.478	0.31	Control	0.6552	n/a	Yes	3.47	n/a	n/a	GoodResponse	0	n/a	n/a	3	57	Blank	Neutral	True
545.779	1.45	Control	0.6552	n/a	Yes	3.47	n/a	5.0	GoodResponse	0	0.045	544.824	3	57	Feedback	Neutral	True
547.233	3.47	Control	0.6552	n/a	Yes	3.47	n/a	n/a	GoodResponse	0	0.0	n/a	3	57	ISIslide	Neutral	True
550.727	0.25	Win2	0.6609999999999999	0.0	Yes	2.723	0.027	n/a	GoodResponse	1	n/a	n/a	4	58	Cue	Win	True
550.977	4.05	Win2	0.6609999999999999	0.001	Yes	2.723	0.0	n/a	GoodResponse	1	n/a	n/a	4	58	Fixation	Win	True
555.023	0.39	Win2	0.6609999999999999	0.004	Yes	2.723	-0.004	4.0	GoodResponse	1	0.21	554.233	4	58	Target	Win	True
555.233	0.3	Win2	0.6609999999999999	0.004	Yes	2.723	-0.004	4.0	GoodResponse	1	0.21	n/a	4	58	ButtonPress	Win	True
555.424	0.31	Win2	0.6609999999999999	n/a	Yes	2.723	n/a	n/a	GoodResponse	1	n/a	n/a	4	58	Blank	Win	True
555.725	1.45	Win2	0.6609999999999999	n/a	Yes	2.723	n/a	5.0	GoodResponse	1	0.001	554.726	4	58	Feedback	Win	True
557.179	2.723	Win2	0.6609999999999999	n/a	Yes	2.723	n/a	n/a	GoodResponse	1	0.0	n/a	4	58	ISIslide	Win	True
559.921	0.25	Lose2	0.6667000000000001	0.0	Yes	2.679	0.021	n/a	GoodResponse	0	n/a	n/a	4	59	Cue	AvoidedLoss	True
560.172	4.0	Lose2	0.6667000000000001	0.0	Yes	2.679	0.001	n/a	GoodResponse	0	n/a	n/a	4	59	Fixation	AvoidedLoss	True
564.167	0.39	Lose2	0.6667000000000001	0.004	Yes	2.679	-0.004	4.0	GoodResponse	0	0.234	563.401	4	59	Target	AvoidedLoss	True
564.401	0.3	Lose2	0.6667000000000001	0.004	Yes	2.679	-0.004	4.0	GoodResponse	0	0.234	n/a	4	59	ButtonPress	AvoidedLoss	True
564.568	0.31	Lose2	0.6667000000000001	n/a	Yes	2.679	n/a	n/a	GoodResponse	0	n/a	n/a	4	59	Blank	AvoidedLoss	True
564.869	1.45	Lose2	0.6667000000000001	n/a	Yes	2.679	n/a	5.0	GoodResponse	0	0.027	563.896	4	59	Feedback	AvoidedLoss	True
566.323	2.679	Lose2	0.6667000000000001	n/a	Yes	2.679	n/a	n/a	GoodResponse	0	0.0	n/a	4	59	ISIslide	AvoidedLoss	True
569.015	0.25	Control	0.6720999999999999	0.0	Yes	2.685	0.015	n/a	GoodResponse	0	n/a	n/a	4	60	Cue	Neutral	True
569.266	4.0	Control	0.6720999999999999	0.0	Yes	2.685	0.001	n/a	GoodResponse	0	n/a	n/a	4	60	Fixation	Neutral	True
573.261	0.38	Control	0.6720999999999999	0.004	Yes	2.685	-0.004	4.0	GoodResponse	0	0.219	572.48	4	60	Target	Neutral	True
573.48	0.3	Control	0.6720999999999999	0.004	Yes	2.685	-0.004	4.0	GoodResponse	0	0.219	n/a	4	60	ButtonPress	Neutral	True
573.645	0.32	Control	0.6720999999999999	n/a	Yes	2.685	n/a	n/a	GoodResponse	0	n/a	n/a	4	60	Blank	Neutral	True
573.963	1.45	Control	0.6720999999999999	n/a	Yes	2.685	n/a	5.0	GoodResponse	0	0.008	572.971	4	60	Feedback	Neutral	True
575.417	2.685	Control	0.6720999999999999	n/a	Yes	2.685	n/a	n/a	GoodResponse	0	0.0	n/a	4	60	ISIslide	Neutral	True
578.125	0.25	Lose2	0.6774	0.0	Yes	2.975	0.025	n/a	GoodResponse	0	n/a	n/a	4	61	Cue	AvoidedLoss	True
578.376	4.0	Lose2	0.6774	0.0	Yes	2.975	0.001	n/a	GoodResponse	0	n/a	n/a	4	61	Fixation	AvoidedLoss	True
582.371	0.37	Lose2	0.6774	0.004	Yes	2.975	-0.004	4.0	GoodResponse	0	0.201	581.572	4	61	Target	AvoidedLoss	True
582.572	0.3	Lose2	0.6774	0.004	Yes	2.975	-0.004	4.0	GoodResponse	0	0.201	n/a	4	61	ButtonPress	AvoidedLoss	True
582.756	0.33	Lose2	0.6774	n/a	Yes	2.975	n/a	n/a	GoodResponse	0	n/a	n/a	4	61	Blank	AvoidedLoss	True
583.074	1.45	Lose2	0.6774	n/a	Yes	2.975	n/a	5.0	GoodResponse	0	0.017	582.091	4	61	Feedback	AvoidedLoss	True
584.528	2.975	Lose2	0.6774	n/a	Yes	2.975	n/a	n/a	GoodResponse	0	0.0	n/a	4	61	ISIslide	AvoidedLoss	True
587.52	0.25	Lose2	0.6825	0.0	Yes	2.88	0.02	n/a	GoodResponse	0	n/a	n/a	4	62	Cue	AvoidedLoss	True
587.771	3.9	Lose2	0.6825	0.0	Yes	2.88	0.001	n/a	GoodResponse	0	n/a	n/a	4	62	Fixation	AvoidedLoss	True
591.666	0.36	Lose2	0.6825	0.004	Yes	2.88	-0.004	4.0	GoodResponse	0	0.24	590.906	4	62	Target	AvoidedLoss	True
591.906	0.3	Lose2	0.6825	0.004	Yes	2.88	-0.004	4.0	GoodResponse	0	0.24	n/a	4	62	ButtonPress	AvoidedLoss	True
592.034	0.34	Lose2	0.6825	n/a	Yes	2.88	n/a	n/a	GoodResponse	0	n/a	n/a	4	62	Blank	AvoidedLoss	True
592.368	1.45	Lose2	0.6825	n/a	Yes	2.88	n/a	5.0	GoodResponse	0	0.041	591.409	4	62	Feedback	AvoidedLoss	True
593.822	2.88	Lose2	0.6825	n/a	Yes	2.88	n/a	n/a	GoodResponse	0	0.0	n/a	4	62	ISIslide	AvoidedLoss	True
596.731	0.25	Lose2	0.6875	0.0	Yes	2.619	0.031	n/a	GoodResponse	0	n/a	n/a	4	63	Cue	AvoidedLoss	True
596.982	4.05	Lose2	0.6875	0.0	Yes	2.619	0.001	n/a	GoodResponse	0	n/a	n/a	4	63	Fixation	AvoidedLoss	True
601.027	0.35	Lose2	0.6875	0.004	Yes	2.619	-0.004	4.0	GoodResponse	0	0.21	600.237	4	63	Target	AvoidedLoss	True
601.237	0.3	Lose2	0.6875	0.004	Yes	2.619	-0.004	4.0	GoodResponse	0	0.21	n/a	4	63	ButtonPress	AvoidedLoss	True
601.378	0.35	Lose2	0.6875	n/a	Yes	2.619	n/a	n/a	GoodResponse	0	n/a	n/a	4	63	Blank	AvoidedLoss	True
601.729	1.45	Lose2	0.6875	n/a	Yes	2.619	n/a	5.0	GoodResponse	0	0.045	600.774	4	63	Feedback	AvoidedLoss	True
603.184	2.619	Lose2	0.6875	n/a	Yes	2.619	n/a	n/a	GoodResponse	0	0.0	n/a	4	63	ISIslide	AvoidedLoss	True
605.825	0.25	Win2	0.6923	0.0	Yes	3.125	0.025	n/a	GoodResponse	1	n/a	n/a	5	64	Cue	Win	True
606.076	4.15	Win2	0.6923	0.0	Yes	3.125	0.001	n/a	GoodResponse	1	n/a	n/a	5	64	Fixation	Win	True
610.221	0.34	Win2	0.6923	0.004	Yes	3.125	-0.004	4.0	GoodResponse	1	0.17	609.391	5	64	Target	Win	True
610.391	0.3	Win2	0.6923	0.004	Yes	3.125	-0.004	4.0	GoodResponse	1	0.17	n/a	5	64	ButtonPress	Win	True
610.573	0.36	Win2	0.6923	n/a	Yes	3.125	n/a	n/a	GoodResponse	1	n/a	n/a	5	64	Blank	Win	True
610.924	1.45	Win2	0.6923	n/a	Yes	3.125	n/a	5.0	GoodResponse	1	0.021	609.945	5	64	Feedback	Win	True
612.378	3.125	Win2	0.6923	n/a	Yes	3.125	n/a	n/a	GoodResponse	1	0.0	n/a	5	64	ISIslide	Win	True
615.521	0.25	Control	0.6970000000000001	0.0	Yes	2.779	0.021	n/a	GoodResponse	0	n/a	n/a	5	65	Cue	Neutral	True
615.771	4.0	Control	0.6970000000000001	0.0	Yes	2.779	0.0	n/a	GoodResponse	0	n/a	n/a	5	65	Fixation	Neutral	True
619.767	0.33	Control	0.6970000000000001	0.004	Yes	2.779	-0.004	4.0	GoodResponse	0	0.217	618.984	5	65	Target	Neutral	True
619.984	0.3	Control	0.6970000000000001	0.004	Yes	2.779	-0.004	4.0	GoodResponse	0	0.217	n/a	5	65	ButtonPress	Neutral	True
620.101	0.37	Control	0.6970000000000001	n/a	Yes	2.779	n/a	n/a	GoodResponse	0	n/a	n/a	5	65	Blank	Neutral	True
620.469	1.45	Control	0.6970000000000001	n/a	Yes	2.779	n/a	5.0	GoodResponse	0	0.036	619.505	5	65	Feedback	Neutral	True
621.923	2.779	Control	0.6970000000000001	n/a	Yes	2.779	n/a	n/a	GoodResponse	0	0.0	n/a	5	65	ISIslide	Neutral	True
624.732	0.25	Win2	0.7015	0.0	Yes	2.768	0.032	n/a	GoodResponse	1	n/a	n/a	6	66	Cue	Win	True
624.982	3.9	Win2	0.7015	0.0	Yes	2.768	0.0	n/a	GoodResponse	1	n/a	n/a	6	66	Fixation	Win	True
628.894	0.32	Win2	0.7015	0.0	Yes	2.768	0.012	4.0	GoodResponse	1	0.22	628.114	6	66	Target	Win	True
629.114	0.3	Win2	0.7015	0.0	Yes	2.768	0.012	4.0	GoodResponse	1	0.22	n/a	6	66	ButtonPress	Win	True
629.212	0.38	Win2	0.7015	n/a	Yes	2.768	n/a	n/a	GoodResponse	1	n/a	n/a	6	66	Blank	Win	True
629.579	1.45	Win2	0.7015	n/a	Yes	2.768	n/a	5.0	GoodResponse	1	0.048	628.627	6	66	Feedback	Win	True
631.034	2.768	Win2	0.7015	n/a	Yes	2.768	n/a	n/a	GoodResponse	1	0.0	n/a	6	66	ISIslide	Win	True
633.825	0.25	Control	0.7059000000000001	0.001	Yes	2.725	0.025	n/a	GoodResponse	0	n/a	n/a	6	67	Cue	Neutral	True
634.076	3.95	Control	0.7059000000000001	0.0	Yes	2.725	0.001	n/a	GoodResponse	0	n/a	n/a	6	67	Fixation	Neutral	True
638.021	0.31	Control	0.7059000000000001	0.004	Yes	2.725	-0.004	4.0	GoodResponse	0	0.22	637.241	6	67	Target	Neutral	True
638.241	0.3	Control	0.7059000000000001	0.004	Yes	2.725	-0.004	4.0	GoodResponse	0	0.22	n/a	6	67	ButtonPress	Neutral	True
638.339	0.39	Control	0.7059000000000001	n/a	Yes	2.725	n/a	n/a	GoodResponse	0	n/a	n/a	6	67	Blank	Neutral	True
638.723	1.45	Control	0.7059000000000001	n/a	Yes	2.725	n/a	5.0	GoodResponse	0	0.026	637.749	6	67	Feedback	Neutral	True
640.178	2.725	Control	0.7059000000000001	n/a	Yes	2.725	n/a	n/a	GoodResponse	0	0.0	n/a	6	67	ISIslide	Neutral	True
642.919	0.25	Win2	0.7101000000000001	0.0	Yes	3.081	0.019	n/a	GoodResponse	1	n/a	n/a	7	68	Cue	Win	True
643.17	4.0	Win2	0.7101000000000001	0.0	Yes	3.081	0.001	n/a	GoodResponse	1	n/a	n/a	7	68	Fixation	Win	True
647.165	0.3	Win2	0.7101000000000001	0.004	Yes	3.081	-0.004	4.0	GoodResponse	1	0.206	646.371	7	68	Target	Win	True
647.371	0.3	Win2	0.7101000000000001	0.004	Yes	3.081	-0.004	4.0	GoodResponse	1	0.206	n/a	7	68	ButtonPress	Win	True
647.466	0.4	Win2	0.7101000000000001	n/a	Yes	3.081	n/a	n/a	GoodResponse	1	n/a	n/a	7	68	Blank	Win	True
647.867	1.45	Win2	0.7101000000000001	n/a	Yes	3.081	n/a	5.0	GoodResponse	1	0.008	646.875	7	68	Feedback	Win	True
649.322	3.081	Win2	0.7101000000000001	n/a	Yes	3.081	n/a	n/a	GoodResponse	1	0.0	n/a	7	68	ISIslide	Win	True
652.431	0.25	Win2	0.7143	0.0	Yes	3.219	0.031	n/a	GoodResponse	1	n/a	n/a	8	69	Cue	Win	True
652.682	3.95	Win2	0.7143	0.0	Yes	3.219	0.001	n/a	GoodResponse	1	n/a	n/a	8	69	Fixation	Win	True
656.627	0.29	Win2	0.7143	0.004	Yes	3.219	-0.004	4.0	GoodResponse	1	0.243	655.87	8	69	Target	Win	True
656.87	0.3	Win2	0.7143	0.004	Yes	3.219	-0.004	4.0	GoodResponse	1	0.243	n/a	8	69	ButtonPress	Win	True
656.928	0.41	Win2	0.7143	n/a	Yes	3.219	n/a	n/a	GoodResponse	1	n/a	n/a	8	69	Blank	Win	True
657.329	1.45	Win2	0.7143	n/a	Yes	3.219	n/a	5.0	GoodResponse	1	0.008	656.337	8	69	Feedback	Win	True
658.783	3.219	Win2	0.7143	n/a	Yes	3.219	n/a	n/a	GoodResponse	1	0.0	n/a	8	69	ISIslide	Win	True
662.027	0.25	Lose2	0.7182999999999999	0.0	Yes	3.023	0.027	n/a	GoodResponse	0	n/a	n/a	8	70	Cue	AvoidedLoss	True
662.277	4.05	Lose2	0.7182999999999999	0.0	Yes	3.023	0.0	n/a	GoodResponse	0	n/a	n/a	8	70	Fixation	AvoidedLoss	True
666.323	0.28	Lose2	0.7182999999999999	0.004	Yes	3.023	-0.004	4.0	GoodResponse	0	0.209	665.532	8	70	Target	AvoidedLoss	True
666.532	0.3	Lose2	0.7182999999999999	0.004	Yes	3.023	-0.004	4.0	GoodResponse	0	0.209	n/a	8	70	ButtonPress	AvoidedLoss	True
666.607	0.42	Lose2	0.7182999999999999	n/a	Yes	3.023	n/a	n/a	GoodResponse	0	n/a	n/a	8	70	Blank	AvoidedLoss	True
667.025	1.45	Lose2	0.7182999999999999	n/a	Yes	3.023	n/a	5.0	GoodResponse	0	0.016	666.041	8	70	Feedback	AvoidedLoss	True
668.479	3.023	Lose2	0.7182999999999999	n/a	Yes	3.023	n/a	n/a	GoodResponse	0	0.0	n/a	8	70	ISIslide	AvoidedLoss	True
671.522	0.25	Win2	0.7222	0.0	Yes	2.728	0.022	n/a	GoodResponse	1	n/a	n/a	9	71	Cue	Win	True
671.772	4.05	Win2	0.7222	0.0	Yes	2.728	0.0	n/a	GoodResponse	1	n/a	n/a	9	71	Fixation	Win	True
675.818	0.27	Win2	0.7222	0.004	Yes	2.728	-0.004	4.0	GoodResponse	1	0.23	675.048	9	71	Target	Win	True
676.048	0.3	Win2	0.7222	0.004	Yes	2.728	-0.004	4.0	GoodResponse	1	0.23	n/a	9	71	ButtonPress	Win	True
676.102	0.43	Win2	0.7222	n/a	Yes	2.728	n/a	n/a	GoodResponse	1	n/a	n/a	9	71	Blank	Win	True
676.52	1.45	Win2	0.7222	n/a	Yes	2.728	n/a	5.0	GoodResponse	1	0.034	675.554	9	71	Feedback	Win	True
677.974	2.728	Win2	0.7222	n/a	Yes	2.728	n/a	n/a	GoodResponse	1	0.0	n/a	9	71	ISIslide	Win	True
680.716	0.25	Win2	0.726	0.0	Yes	2.784	0.016	n/a	GoodResponse	1	n/a	n/a	10	72	Cue	Win	True
680.967	4.1	Win2	0.726	0.0	Yes	2.784	0.001	n/a	GoodResponse	1	n/a	n/a	10	72	Fixation	Win	True
685.062	0.26	Win2	0.726	0.004	Yes	2.784	-0.004	4.0	GoodResponse	1	0.237	684.299	10	72	Target	Win	True
685.299	0.3	Win2	0.726	0.004	Yes	2.784	-0.004	4.0	GoodResponse	1	0.237	n/a	10	72	ButtonPress	Win	True
685.33	0.44	Win2	0.726	n/a	Yes	2.784	n/a	n/a	GoodResponse	1	n/a	n/a	10	72	Blank	Win	True
685.764	1.45	Win2	0.726	n/a	Yes	2.784	n/a	5.0	GoodResponse	1	0.009	684.773	10	72	Feedback	Win	True
687.219	2.784	Win2	0.726	n/a	Yes	2.784	n/a	n/a	GoodResponse	1	0.0	n/a	10	72	ISIslide	Win	True
690.027	0.25	Win2	0.7297	0.0	Yes	2.673	0.027	n/a	GoodResponse	1	n/a	n/a	11	73	Cue	Win	True
690.278	4.0	Win2	0.7297	0.0	Yes	2.673	0.001	n/a	GoodResponse	1	n/a	n/a	11	73	Fixation	Win	True
694.273	0.25	Win2	0.7297	0.004	Yes	2.673	-0.004	4.0	GoodResponse	1	0.234	693.507	11	73	Target	Win	True
694.507	0.3	Win2	0.7297	0.004	Yes	2.673	-0.004	4.0	GoodResponse	1	0.234	n/a	11	73	ButtonPress	Win	True
694.524	0.45	Win2	0.7297	n/a	Yes	2.673	n/a	n/a	GoodResponse	1	n/a	n/a	11	73	Blank	Win	True
694.975	1.45	Win2	0.7297	n/a	Yes	2.673	n/a	5.0	GoodResponse	1	0.018	693.993	11	73	Feedback	Win	True
696.43	2.673	Win2	0.7297	n/a	Yes	2.673	n/a	n/a	GoodResponse	1	0.0	n/a	11	73	ISIslide	Win	True
699.121	0.25	Lose2	0.72	0.0	No	2.629	0.021	n/a	PrematurePress	-1	n/a	n/a	10	74	Cue	Loss	True
699.372	4.05	Lose2	0.72	0.0	No	2.629	0.001	n/a	PrematurePress	-1	n/a	n/a	10	74	Fixation	Loss	True
703.417	0.24	Lose2	0.72	0.004	No	2.629	-0.004	4.0	PrematurePress	-1	0.066	702.483	10	74	Target	Loss	True
703.483	0.3	Lose2	0.72	0.004	No	2.629	-0.004	4.0	PrematurePress	-1	0.066	n/a	10	74	ButtonPress	Loss	True
703.668	0.46	Lose2	0.72	n/a	No	2.629	n/a	n/a	PrematurePress	-1	n/a	n/a	10	74	Blank	Loss	True
704.119	1.45	Lose2	0.72	n/a	No	2.629	n/a	5.0	PrematurePress	-1	0.045	703.164	10	74	Feedback	Loss	True
705.574	2.629	Lose2	0.72	n/a	No	2.629	n/a	n/a	PrematurePress	-1	0.0	n/a	10	74	ISIslide	Loss	True
708.215	0.25	Lose2	0.7105	0.0	No	2.935	0.015	n/a	LatePress	-1	n/a	n/a	9	75	Cue	Loss	True
708.466	3.95	Lose2	0.7105	0.0	No	2.935	0.001	n/a	LatePress	-1	n/a	n/a	9	75	Fixation	Loss	True
712.411	0.23	Lose2	0.7105	0.004	No	2.935	-0.004	4.0	LatePress	-1	0.23	711.641	9	75	Target	Loss	True
712.641	0.3	Lose2	0.7105	0.004	No	2.935	-0.004	4.0	LatePress	-1	0.23	n/a	9	75	ButtonPress	Loss	True
712.645	0.47	Lose2	0.7105	n/a	No	2.935	n/a	n/a	LatePress	-1	n/a	n/a	9	75	Blank	Loss	True
713.113	1.45	Lose2	0.7105	n/a	No	2.935	n/a	5.0	LatePress	-1	0.027	712.14	9	75	Feedback	Loss	True
714.567	2.935	Lose2	0.7105	n/a	No	2.935	n/a	n/a	LatePress	-1	0.0	n/a	9	75	ISIslide	Loss	True
717.526	0.25	Control	0.7012999999999999	0.0	No	3.224	0.026	n/a	LatePress	0	n/a	n/a	9	76	Cue	Neutral	True
717.777	4.05	Control	0.7012999999999999	0.0	No	3.224	0.001	n/a	LatePress	0	n/a	n/a	9	76	Fixation	Neutral	True
721.822	0.22	Control	0.7012999999999999	0.004	No	3.224	-0.004	4.0	LatePress	0	0.231	721.053	9	76	Target	Neutral	True
722.053	0.3	Control	0.7012999999999999	0.004	No	3.224	-0.004	4.0	LatePress	0	0.231	n/a	9	76	ButtonPress	Neutral	True
722.056	0.48	Control	0.7012999999999999	n/a	No	3.224	n/a	n/a	LatePress	0	n/a	n/a	9	76	Blank	Neutral	True
722.524	1.45	Control	0.7012999999999999	n/a	No	3.224	n/a	5.0	LatePress	0	0.029	721.553	9	76	Feedback	Neutral	True
723.979	3.224	Control	0.7012999999999999	n/a	No	3.224	n/a	n/a	LatePress	0	0.0	n/a	9	76	ISIslide	Neutral	True
727.222	0.25	Lose2	0.7051000000000001	0.0	Yes	2.578	0.022	n/a	GoodResponse	0	n/a	n/a	9	77	Cue	AvoidedLoss	True
727.472	3.95	Lose2	0.7051000000000001	0.001	Yes	2.578	0.0	n/a	GoodResponse	0	n/a	n/a	9	77	Fixation	AvoidedLoss	True
731.418	0.21	Lose2	0.7051000000000001	0.004	Yes	2.578	-0.004	4.0	GoodResponse	0	0.197	730.615	9	77	Target	AvoidedLoss	True
731.615	0.3	Lose2	0.7051000000000001	0.004	Yes	2.578	-0.004	4.0	GoodResponse	0	0.197	n/a	9	77	ButtonPress	AvoidedLoss	True
731.635	0.49	Lose2	0.7051000000000001	n/a	Yes	2.578	n/a	n/a	GoodResponse	0	n/a	n/a	9	77	Blank	AvoidedLoss	True
732.12	1.45	Lose2	0.7051000000000001	n/a	Yes	2.578	n/a	5.0	GoodResponse	0	0.043	731.163	9	77	Feedback	AvoidedLoss	True
733.574	2.578	Lose2	0.7051000000000001	n/a	Yes	2.578	n/a	n/a	GoodResponse	0	0.0	n/a	9	77	ISIslide	AvoidedLoss	True
