onset	duration	cue_type	current_mean_accuracy	duration_error	is_hit	isi_adjusted	onset_delay	response	response_type	reward	rt	rt_time	total_reward	trial_number	trial_phase	trial_type	one_press
11.101	0.25	Control	1.0	0.0	Yes	2.949	0.001	n/a	GoodResponse	0	n/a	n/a	0	0	Cue	Neutral	True
11.352	3.85	Control	1.0	0.0	Yes	2.949	0.001	n/a	GoodResponse	0	n/a	n/a	0	0	Fixation	Neutral	True
15.197	0.4	Control	1.0	0.004	Yes	2.949	-0.004	2.0	GoodResponse	0	0.2	14.397	0	0	Target	Neutral	True
15.397	0.3	Control	1.0	0.004	Yes	2.949	-0.004	2.0	GoodResponse	0	0.2	n/a	0	0	ButtonPress	Neutral	True
15.598	0.3	Control	1.0	n/a	Yes	2.949	n/a	n/a	GoodResponse	0	n/a	n/a	0	0	Blank	Neutral	True
15.899	1.45	Control	1.0	n/a	Yes	2.949	n/a	5.0	GoodResponse	0	0.028	14.927	0	0	Feedback	Neutral	True
17.353	2.949	Control	1.0	n/a	Yes	2.949	n/a	2.0	GoodResponse	0	0.743	n/a	0	0	ISIslide	Neutral	True
20.296	0.25	Lose2	1.0	0.0	Yes	2.804	-0.004	n/a	GoodResponse	0	n/a	n/a	0	1	Cue	AvoidedLoss	False
20.546	4.0	Lose2	1.0	0.0	Yes	2.804	0.0	2.0	GoodResponse	0	0.278	19.824	0	1	Fixation	AvoidedLoss	False
20.824	0.3	Lose2	1.0	0.0	Yes	2.804	0.0	2.0	GoodResponse	0	0.278	n/a	0	1	ButtonPress	AvoidedLoss	False
24.542	0.39	Lose2	1.0	0.004	Yes	2.804	-0.004	2.0	GoodResponse	0	0.228	23.77	0	1	Target	AvoidedLoss	False
24.77	0.3	Lose2	1.0	0.004	Yes	2.804	-0.004	2.0	GoodResponse	0	0.228	n/a	0	1	ButtonPress	AvoidedLoss	False
24.943	0.31	Lose2	1.0	n/a	Yes	2.804	n/a	n/a	GoodResponse	0	n/a	n/a	0	1	Blank	AvoidedLoss	False
25.244	1.45	Lose2	1.0	n/a	Yes	2.804	n/a	5.0	GoodResponse	0	0.0	24.244	0	1	Feedback	AvoidedLoss	False
26.698	2.804	Lose2	1.0	n/a	Yes	2.804	n/a	n/a	GoodResponse	0	0.0	n/a	0	1	ISIslide	AvoidedLoss	False
29.523	0.25	Control	1.0	0.0	Yes	2.577	0.023	n/a	GoodResponse	0	n/a	n/a	0	2	Cue	Neutral	True
29.774	4.1	Control	1.0	0.0	Yes	2.577	0.001	n/a	GoodResponse	0	n/a	n/a	0	2	Fixation	Neutral	True
33.869	0.38	Control	1.0	0.004	Yes	2.577	-0.004	2.0	GoodResponse	0	0.224	33.093	0	2	Target	Neutral	True
34.093	0.3	Control	1.0	0.004	Yes	2.577	-0.004	2.0	GoodResponse	0	0.224	n/a	0	2	ButtonPress	Neutral	True
34.254	0.32	Control	1.0	n/a	Yes	2.577	n/a	n/a	GoodResponse	0	n/a	n/a	0	2	Blank	Neutral	True
34.572	1.45	Control	1.0	n/a	Yes	2.577	n/a	5.0	GoodResponse	0	0.038	33.61	0	2	Feedback	Neutral	True
36.026	2.577	Control	1.0	n/a	Yes	2.577	n/a	n/a	GoodResponse	0	0.0	n/a	0	2	ISIslide	Neutral	True
38.617	0.25	Win2	1.0	0.0	Yes	2.833	0.017	n/a	GoodResponse	1	n/a	n/a	1	3	Cue	Win	True
38.868	3.95	Win2	1.0	0.0	Yes	2.833	0.001	n/a	GoodResponse	1	n/a	n/a	1	3	Fixation	Win	True
42.813	0.37	Win2	1.0	0.004	Yes	2.833	-0.004	2.0	GoodResponse	1	0.239	42.052	1	3	Target	Win	True
43.052	0.3	Win2	1.0	0.004	Yes	2.833	-0.004	2.0	GoodResponse	1	0.239	n/a	1	3	ButtonPress	Win	True
43.197	0.33	Win2	1.0	n/a	Yes	2.833	n/a	n/a	GoodResponse	1	n/a	n/a	1	3	Blank	Win	True
43.515	1.45	Win2	1.0	n/a	Yes	2.833	n/a	5.0	GoodResponse	1	0.021	42.536	1	3	Feedback	Win	True
44.969	2.833	Win2	1.0	n/a	Yes	2.833	n/a	n/a	GoodResponse	1	0.0	n/a	1	3	ISIslide	Win	True
47.828	0.25	Win2	1.0	0.0	Yes	3.272	0.028	n/a	GoodResponse	1	n/a	n/a	2	4	Cue	Win	True
48.079	4.0	Win2	1.0	0.0	Yes	3.272	0.001	n/a	GoodResponse	1	n/a	n/a	2	4	Fixation	Win	True
52.074	0.36	Win2	1.0	0.004	Yes	3.272	-0.004	2.0	GoodResponse	1	0.227	51.301	2	4	Target	Win	True
52.301	0.3	Win2	1.0	0.004	Yes	3.272	-0.004	2.0	GoodResponse	1	0.227	n/a	2	4	ButtonPress	Win	True
52.442	0.34	Win2	1.0	n/a	Yes	3.272	n/a	n/a	GoodResponse	1	n/a	n/a	2	4	Blank	Win	True
52.776	1.45	Win2	1.0	n/a	Yes	3.272	n/a	5.0	GoodResponse	1	0.029	51.805	2	4	Feedback	Win	True
54.23	3.272	Win2	1.0	n/a	Yes	3.272	n/a	n/a	GoodResponse	1	0.0	n/a	2	4	ISIslide	Win	True
57.524	0.25	Win2	1.0	0.0	Yes	2.776	0.024	n/a	GoodResponse	1	n/a	n/a	3	5	Cue	Win	True
57.774	4.0	Win2	1.0	0.0	Yes	2.776	0.0	n/a	GoodResponse	1	n/a	n/a	3	5	Fixation	Win	True
61.77	0.35	Win2	1.0	0.004	Yes	2.776	-0.004	2.0	GoodResponse	1	0.241	61.011	3	5	Target	Win	True
62.011	0.3	Win2	1.0	0.004	Yes	2.776	-0.004	2.0	GoodResponse	1	0.241	n/a	3	5	ButtonPress	Win	True
62.121	0.35	Win2	1.0	n/a	Yes	2.776	n/a	n/a	GoodResponse	1	n/a	n/a	3	5	Blank	Win	True
62.472	1.45	Win2	1.0	n/a	Yes	2.776	n/a	5.0	GoodResponse	1	0.04	61.512	3	5	Feedback	Win	True
63.926	2.776	Win2	1.0	n/a	Yes	2.776	n/a	n/a	GoodResponse	1	0.0	n/a	3	5	ISIslide	Win	True
66.718	0.25	Lose2	1.0	0.0	Yes	2.732	0.018	n/a	GoodResponse	0	n/a	n/a	3	6	Cue	AvoidedLoss	True
66.969	3.95	Lose2	1.0	0.0	Yes	2.732	0.001	n/a	GoodResponse	0	n/a	n/a	3	6	Fixation	AvoidedLoss	True
70.914	0.34	Lose2	1.0	0.004	Yes	2.732	-0.004	2.0	GoodResponse	0	0.207	70.121	3	6	Target	AvoidedLoss	True
71.121	0.3	Lose2	1.0	0.004	Yes	2.732	-0.004	2.0	GoodResponse	0	0.207	n/a	3	6	ButtonPress	AvoidedLoss	True
71.265	0.36	Lose2	1.0	n/a	Yes	2.732	n/a	n/a	GoodResponse	0	n/a	n/a	3	6	Blank	AvoidedLoss	True
71.616	1.45	Lose2	1.0	n/a	Yes	2.732	n/a	5.0	GoodResponse	0	0.018	70.634	3	6	Feedback	AvoidedLoss	True
73.07	2.732	Lose2	1.0	n/a	Yes	2.732	n/a	n/a	GoodResponse	0	0.0	n/a	3	6	ISIslide	AvoidedLoss	True
75.828	0.25	Lose2	1.0	0.0	Yes	4.022	0.028	n/a	GoodResponse	0	n/a	n/a	3	7	Cue	AvoidedLoss	True
76.079	4.05	Lose2	1.0	0.0	Yes	4.022	0.001	n/a	GoodResponse	0	n/a	n/a	3	7	Fixation	AvoidedLoss	True
80.125	0.33	Lose2	1.0	0.003	Yes	4.022	-0.003	2.0	GoodResponse	0	0.231	79.356	3	7	Target	AvoidedLoss	True
80.356	0.3	Lose2	1.0	0.003	Yes	4.022	-0.003	2.0	GoodResponse	0	0.231	n/a	3	7	ButtonPress	AvoidedLoss	True
80.459	0.37	Lose2	1.0	n/a	Yes	4.022	n/a	n/a	GoodResponse	0	n/a	n/a	3	7	Blank	AvoidedLoss	True
80.827	1.45	Lose2	1.0	n/a	Yes	4.022	n/a	5.0	GoodResponse	0	0.027	79.854	3	7	Feedback	AvoidedLoss	True
82.281	4.022	Lose2	1.0	n/a	Yes	4.022	n/a	n/a	GoodResponse	0	0.0	n/a	3	7	ISIslide	AvoidedLoss	True
86.326	0.25	Lose2	1.0	0.001	Yes	3.024	0.026	n/a	GoodResponse	0	n/a	n/a	3	8	Cue	AvoidedLoss	True
86.577	3.95	Lose2	1.0	0.0	Yes	3.024	0.001	n/a	GoodResponse	0	n/a	n/a	3	8	Fixation	AvoidedLoss	True
90.522	0.32	Lose2	1.0	0.004	Yes	3.024	-0.004	2.0	GoodResponse	0	0.255	89.777	3	8	Target	AvoidedLoss	True
90.777	0.3	Lose2	1.0	0.004	Yes	3.024	-0.004	2.0	GoodResponse	0	0.255	n/a	3	8	ButtonPress	AvoidedLoss	True
90.857	0.38	Lose2	1.0	n/a	Yes	3.024	n/a	n/a	GoodResponse	0	n/a	n/a	3	8	Blank	AvoidedLoss	True
91.224	1.45	Lose2	1.0	n/a	Yes	3.024	n/a	5.0	GoodResponse	0	0.019	90.243	3	8	Feedback	AvoidedLoss	True
92.679	3.024	Lose2	1.0	n/a	Yes	3.024	n/a	n/a	GoodResponse	0	0.0	n/a	3	8	ISIslide	AvoidedLoss	True
95.721	0.25	Lose2	1.0	0.0	Yes	3.129	0.021	n/a	GoodResponse	0	n/a	n/a	3	9	Cue	AvoidedLoss	True
95.972	3.95	Lose2	1.0	0.0	Yes	3.129	0.001	n/a	GoodResponse	0	n/a	n/a	3	9	Fixation	AvoidedLoss	True
99.917	0.31	Lose2	1.0	0.004	Yes	3.129	-0.004	2.0	GoodResponse	0	0.214	99.131	3	9	Target	AvoidedLoss	True
100.131	0.3	Lose2	1.0	0.004	Yes	3.129	-0.004	2.0	GoodResponse	0	0.214	n/a	3	9	ButtonPress	AvoidedLoss	True
100.235	0.39	Lose2	1.0	n/a	Yes	3.129	n/a	n/a	GoodResponse	0	n/a	n/a	3	9	Blank	AvoidedLoss	True
100.619	1.45	Lose2	1.0	n/a	Yes	3.129	n/a	5.0	GoodResponse	0	0.039	99.658	3	9	Feedback	AvoidedLoss	True
102.074	3.129	Lose2	1.0	n/a	Yes	3.129	n/a	n/a	GoodResponse	0	0.0	n/a	3	9	ISIslide	AvoidedLoss	True
105.216	0.25	Control	1.0	0.0	Yes	3.284	0.016	n/a	GoodResponse	0	n/a	n/a	3	10	Cue	Neutral	True
105.467	4.0	Control	1.0	0.0	Yes	3.284	0.001	n/a	GoodResponse	0	n/a	n/a	3	10	Fixation	Neutral	True
109.462	0.3	Control	1.0	0.004	Yes	3.284	-0.004	2.0	GoodResponse	0	0.222	108.684	3	10	Target	Neutral	True
109.684	0.3	Control	1.0	0.004	Yes	3.284	-0.004	2.0	GoodResponse	0	0.222	n/a	3	10	ButtonPress	Neutral	True
109.763	0.4	Control	1.0	n/a	Yes	3.284	n/a	n/a	GoodResponse	0	n/a	n/a	3	10	Blank	Neutral	True
110.165	1.45	Control	1.0	n/a	Yes	3.284	n/a	5.0	GoodResponse	0	0.006	109.171	3	10	Feedback	Neutral	True
111.619	3.284	Control	1.0	n/a	Yes	3.284	n/a	n/a	GoodResponse	0	0.0	n/a	3	10	ISIslide	Neutral	True
114.929	0.25	Lose2	1.0	0.0	Yes	2.721	0.029	n/a	GoodResponse	0	n/a	n/a	3	11	Cue	AvoidedLoss	True
115.18	4.05	Lose2	1.0	0.0	Yes	2.721	0.001	n/a	GoodResponse	0	n/a	n/a	3	11	Fixation	AvoidedLoss	True
119.225	0.29	Lose2	1.0	0.004	Yes	2.721	-0.004	2.0	GoodResponse	0	0.215	118.44	3	11	Target	AvoidedLoss	True
119.44	0.3	Lose2	1.0	0.004	Yes	2.721	-0.004	2.0	GoodResponse	0	0.215	n/a	3	11	ButtonPress	AvoidedLoss	True
119.526	0.41	Lose2	1.0	n/a	Yes	2.721	n/a	n/a	GoodResponse	0	n/a	n/a	3	11	Blank	AvoidedLoss	True
119.927	1.45	Lose2	1.0	n/a	Yes	2.721	n/a	5.0	GoodResponse	0	0.048	118.975	3	11	Feedback	AvoidedLoss	True
121.381	2.721	Lose2	1.0	n/a	Yes	2.721	n/a	n/a	GoodResponse	0	0.0	n/a	3	11	ISIslide	AvoidedLoss	True
124.123	0.25	Control	1.0	0.0	Yes	2.977	0.023	n/a	GoodResponse	0	n/a	n/a	3	12	Cue	Neutral	True
124.374	3.9	Control	1.0	0.0	Yes	2.977	0.001	n/a	GoodResponse	0	n/a	n/a	3	12	Fixation	Neutral	True
128.269	0.28	Control	1.0	0.004	Yes	2.977	-0.004	2.0	GoodResponse	0	0.254	127.523	3	12	Target	Neutral	True
128.523	0.3	Control	1.0	0.004	Yes	2.977	-0.004	2.0	GoodResponse	0	0.254	n/a	3	12	ButtonPress	Neutral	True
128.553	0.42	Control	1.0	n/a	Yes	2.977	n/a	n/a	GoodResponse	0	n/a	n/a	3	12	Blank	Neutral	True
128.971	1.45	Control	1.0	n/a	Yes	2.977	n/a	5.0	GoodResponse	0	0.029	128.0	3	12	Feedback	Neutral	True
130.425	2.977	Control	1.0	n/a	Yes	2.977	n/a	n/a	GoodResponse	0	0.0	n/a	3	12	ISIslide	Neutral	True
133.417	0.25	Control	1.0	0.001	Yes	2.783	0.017	n/a	GoodResponse	0	n/a	n/a	3	13	Cue	Neutral	True
133.668	4.0	Control	1.0	0.0	Yes	2.783	0.001	n/a	GoodResponse	0	n/a	n/a	3	13	Fixation	Neutral	True
137.664	0.27	Control	1.0	0.003	Yes	2.783	-0.003	2.0	GoodResponse	0	0.195	136.859	3	13	Target	Neutral	True
137.859	0.3	Control	1.0	0.003	Yes	2.783	-0.003	2.0	GoodResponse	0	0.195	n/a	3	13	ButtonPress	Neutral	True
137.948	0.43	Control	1.0	n/a	Yes	2.783	n/a	n/a	GoodResponse	0	n/a	n/a	3	13	Blank	Neutral	True
138.366	1.45	Control	1.0	n/a	Yes	2.783	n/a	5.0	GoodResponse	0	0.048	137.414	3	13	Feedback	Neutral	True
139.82	2.783	Control	1.0	n/a	Yes	2.783	n/a	n/a	GoodResponse	0	0.0	n/a	3	13	ISIslide	Neutral	True
142.628	0.25	Win2	1.0	0.0	Yes	2.672	0.028	n/a	GoodResponse	1	n/a	n/a	4	14	Cue	Win	True
142.879	4.1	Win2	1.0	0.0	Yes	2.672	0.001	n/a	GoodResponse	1	n/a	n/a	4	14	Fixation	Win	True
146.975	0.26	Win2	1.0	0.003	Yes	2.672	-0.003	2.0	GoodResponse	1	0.196	146.171	4	14	Target	Win	True
147.171	0.3	Win2	1.0	0.003	Yes	2.672	-0.003	2.0	GoodResponse	1	0.196	n/a	4	14	ButtonPress	Win	True
147.242	0.44	Win2	1.0	n/a	Yes	2.672	n/a	n/a	GoodResponse	1	n/a	n/a	4	14	Blank	Win	True
147.677	1.45	Win2	1.0	n/a	Yes	2.672	n/a	5.0	GoodResponse	1	0.007	146.684	4	14	Feedback	Win	True
149.131	2.672	Win2	1.0	n/a	Yes	2.672	n/a	n/a	GoodResponse	1	0.0	n/a	4	14	ISIslide	Win	True
151.823	0.25	Control	0.9375	0.0	No	2.977	0.023	n/a	NoResponse	0	n/a	n/a	4	15	Cue	Neutral	True
152.073	4.0	Control	0.9375	0.0	No	2.977	0.0	n/a	NoResponse	0	n/a	n/a	4	15	Fixation	Neutral	True
156.069	0.25	Control	0.9375	0.004	No	2.977	-0.004	2.0	NoResponse	0	0.287	155.356	4	15	Target	Neutral	True
156.319	0.45	Control	0.9375	n/a	No	2.977	n/a	n/a	NoResponse	0	n/a	n/a	4	15	Blank	Neutral	True
156.356	0.3	Control	0.9375	0.004	No	2.977	-0.004	2.0	NoResponse	0	0.287	n/a	4	15	ButtonPress	Neutral	True
156.771	1.45	Control	0.9375	n/a	No	2.977	n/a	5.0	NoResponse	0	0.033	155.804	4	15	Feedback	Neutral	True
158.225	2.977	Control	0.9375	n/a	No	2.977	n/a	n/a	NoResponse	0	0.0	n/a	4	15	ISIslide	Neutral	True
161.217	0.25	Win2	0.9412	0.0	Yes	2.883	0.017	n/a	GoodResponse	1	n/a	n/a	5	16	Cue	Win	True
161.468	4.0	Win2	0.9412	0.0	Yes	2.883	0.001	n/a	GoodResponse	1	n/a	n/a	5	16	Fixation	Win	True
165.463	0.24	Win2	0.9412	0.004	Yes	2.883	-0.004	2.0	GoodResponse	1	0.198	164.661	5	16	Target	Win	True
165.661	0.3	Win2	0.9412	0.004	Yes	2.883	-0.004	2.0	GoodResponse	1	0.198	n/a	5	16	ButtonPress	Win	True
165.714	0.46	Win2	0.9412	n/a	Yes	2.883	n/a	n/a	GoodResponse	1	n/a	n/a	5	16	Blank	Win	True
166.165	1.45	Win2	0.9412	n/a	Yes	2.883	n/a	5.0	GoodResponse	1	0.008	165.173	5	16	Feedback	Win	True
167.62	2.883	Win2	0.9412	n/a	Yes	2.883	n/a	n/a	GoodResponse	1	0.0	n/a	5	16	ISIslide	Win	True
170.529	0.25	Lose2	0.8889	0.0	No	2.721	0.029	n/a	NoResponse	-1	n/a	n/a	4	17	Cue	Loss	True
170.779	3.95	Lose2	0.8889	0.0	No	2.721	0.0	n/a	NoResponse	-1	n/a	n/a	4	17	Fixation	Loss	True
174.741	0.23	Lose2	0.8889	0.0	No	2.721	0.012	2.0	NoResponse	-1	0.239	173.98	4	17	Target	Loss	True
174.958	0.47	Lose2	0.8889	n/a	No	2.721	n/a	n/a	NoResponse	-1	n/a	n/a	4	17	Blank	Loss	True
174.98	0.3	Lose2	0.8889	0.0	No	2.721	0.012	2.0	NoResponse	-1	0.239	n/a	4	17	ButtonPress	Loss	True
175.427	1.45	Lose2	0.8889	n/a	No	2.721	n/a	5.0	NoResponse	-1	0.011	174.438	4	17	Feedback	Loss	True
176.881	2.721	Lose2	0.8889	n/a	No	2.721	n/a	n/a	NoResponse	-1	0.0	n/a	4	17	ISIslide	Loss	True
179.622	0.25	Lose2	0.8946999999999999	0.0	Yes	2.728	0.022	n/a	GoodResponse	0	n/a	n/a	4	18	Cue	AvoidedLoss	True
179.873	4.05	Lose2	0.8946999999999999	0.0	Yes	2.728	0.001	n/a	GoodResponse	0	n/a	n/a	4	18	Fixation	AvoidedLoss	True
183.919	0.22	Lose2	0.8946999999999999	0.003	Yes	2.728	-0.003	2.0	GoodResponse	0	0.175	183.094	4	18	Target	AvoidedLoss	True
184.094	0.3	Lose2	0.8946999999999999	0.003	Yes	2.728	-0.003	2.0	GoodResponse	0	0.175	n/a	4	18	ButtonPress	AvoidedLoss	True
184.153	0.48	Lose2	0.8946999999999999	n/a	Yes	2.728	n/a	n/a	GoodResponse	0	n/a	n/a	4	18	Blank	AvoidedLoss	True
184.621	1.45	Lose2	0.8946999999999999	n/a	Yes	2.728	n/a	5.0	GoodResponse	0	0.037	183.658	4	18	Feedback	AvoidedLoss	True
186.075	2.728	Lose2	0.8946999999999999	n/a	Yes	2.728	n/a	n/a	GoodResponse	0	0.0	n/a	4	18	ISIslide	AvoidedLoss	True
188.817	0.25	Control	0.85	0.0	No	2.933	0.017	n/a	NoResponse	0	n/a	n/a	4	19	Cue	Neutral	True
189.067	3.95	Control	0.85	0.0	No	2.933	0.0	n/a	NoResponse	0	n/a	n/a	4	19	Fixation	Neutral	True
193.013	0.21	Control	0.85	0.004	No	2.933	-0.004	2.0	NoResponse	0	0.275	192.288	4	19	Target	Neutral	True
193.23	0.49	Control	0.85	n/a	No	2.933	n/a	n/a	NoResponse	0	n/a	n/a	4	19	Blank	Neutral	True
193.288	0.3	Control	0.85	0.004	No	2.933	-0.004	2.0	NoResponse	0	0.275	n/a	4	19	ButtonPress	Neutral	True
193.715	1.45	Control	0.85	n/a	No	2.933	n/a	5.0	NoResponse	0	0.015	192.73	4	19	Feedback	Neutral	True
195.169	2.933	Control	0.85	n/a	No	2.933	n/a	n/a	NoResponse	0	0.0	n/a	4	19	ISIslide	Neutral	True
198.128	0.25	Control	0.8095	0.0	No	2.622	0.028	n/a	NoResponse	0	n/a	n/a	4	20	Cue	Neutral	True
198.379	4.05	Control	0.8095	0.0	No	2.622	0.001	n/a	NoResponse	0	n/a	n/a	4	20	Fixation	Neutral	True
202.424	0.2	Control	0.8095	0.004	No	2.622	-0.004	2.0	NoResponse	0	0.245	201.669	4	20	Target	Neutral	True
202.625	0.5	Control	0.8095	n/a	No	2.622	n/a	n/a	NoResponse	0	n/a	n/a	4	20	Blank	Neutral	True
202.669	0.3	Control	0.8095	0.004	No	2.622	-0.004	2.0	NoResponse	0	0.245	n/a	4	20	ButtonPress	Neutral	True
203.126	1.45	Control	0.8095	n/a	No	2.622	n/a	5.0	NoResponse	0	0.019	202.145	4	20	Feedback	Neutral	True
204.58	2.622	Control	0.8095	n/a	No	2.622	n/a	n/a	NoResponse	0	0.0	n/a	4	20	ISIslide	Neutral	True
207.222	0.25	Control	0.7726999999999999	0.0	No	2.778	0.022	n/a	NoResponse	0	n/a	n/a	4	21	Cue	Neutral	False
207.472	4.1	Control	0.7726999999999999	0.001	No	2.778	0.0	2.0	NoResponse	0	2.884	209.356	4	21	Fixation	Neutral	False
210.356	0.3	Control	0.7726999999999999	0.001	No	2.778	0.0	2.0	NoResponse	0	2.884	n/a	4	21	ButtonPress	Neutral	False
211.568	0.19	Control	0.7726999999999999	0.004	No	2.778	-0.004	2.0	NoResponse	0	0.269	210.837	4	21	Target	Neutral	False
211.769	0.51	Control	0.7726999999999999	n/a	No	2.778	n/a	n/a	NoResponse	0	n/a	n/a	4	21	Blank	Neutral	False
211.837	0.3	Control	0.7726999999999999	0.004	No	2.778	-0.004	2.0	NoResponse	0	0.269	n/a	4	21	ButtonPress	Neutral	False
212.27	1.45	Control	0.7726999999999999	n/a	No	2.778	n/a	5.0	NoResponse	0	0.045	211.315	4	21	Feedback	Neutral	False
213.725	2.778	Control	0.7726999999999999	n/a	No	2.778	n/a	n/a	NoResponse	0	0.0	n/a	4	21	ISIslide	Neutral	False
216.516	0.25	Control	0.7391	0.0	No	2.784	0.016	n/a	NoResponse	0	n/a	n/a	4	22	Cue	Neutral	True
216.767	4.0	Control	0.7391	0.0	No	2.784	0.001	n/a	NoResponse	0	n/a	n/a	4	22	Fixation	Neutral	True
220.762	0.18	Control	0.7391	0.004	No	2.784	-0.004	2.0	NoResponse	0	0.259	220.021	4	22	Target	Neutral	True
220.946	0.52	Control	0.7391	n/a	No	2.784	n/a	n/a	NoResponse	0	n/a	n/a	4	22	Blank	Neutral	True
221.021	0.3	Control	0.7391	0.004	No	2.784	-0.004	2.0	NoResponse	0	0.259	n/a	4	22	ButtonPress	Neutral	True
221.464	1.45	Control	0.7391	n/a	No	2.784	n/a	5.0	NoResponse	0	0.022	220.486	4	22	Feedback	Neutral	True
222.919	2.784	Control	0.7391	n/a	No	2.784	n/a	n/a	NoResponse	0	0.0	n/a	4	22	ISIslide	Neutral	True
225.727	0.25	Control	0.7082999999999999	0.0	No	2.773	0.027	n/a	NoResponse	0	n/a	n/a	4	23	Cue	Neutral	False
225.978	3.9	Control	0.7082999999999999	0.0	No	2.773	0.001	2.0	NoResponse	0	1.217	226.195	4	23	Fixation	Neutral	False
227.195	0.3	Control	0.7082999999999999	0.0	No	2.773	0.001	2.0	NoResponse	0	1.217	n/a	4	23	ButtonPress	Neutral	False
229.873	0.17	Control	0.7082999999999999	0.004	No	2.773	-0.004	2.0	NoResponse	0	0.247	229.12	4	23	Target	Neutral	False
230.057	0.53	Control	0.7082999999999999	n/a	No	2.773	n/a	n/a	NoResponse	0	n/a	n/a	4	23	Blank	Neutral	False
230.12	0.3	Control	0.7082999999999999	0.004	No	2.773	-0.004	2.0	NoResponse	0	0.247	n/a	4	23	ButtonPress	Neutral	False
230.575	1.45	Control	0.7082999999999999	n/a	No	2.773	n/a	5.0	NoResponse	0	0.033	229.608	4	23	Feedback	Neutral	False
232.029	2.773	Control	0.7082999999999999	n/a	No	2.773	n/a	2.0	NoResponse	0	0.068	n/a	4	23	ISIslide	Neutral	False
234.804	0.25	Win2	0.68	0.0	No	3.146	0.004	n/a	NoResponse	0	n/a	n/a	4	24	Cue	MissedWin	False
235.055	3.95	Win2	0.68	0.0	No	3.146	0.001	2.0	NoResponse	0	2.385	236.44	4	24	Fixation	MissedWin	False
237.44	0.3	Win2	0.68	0.0	No	3.146	0.001	2.0	NoResponse	0	2.385	n/a	4	24	ButtonPress	MissedWin	False
239	0.16	Win2	0.68	0.004	No	3.146	-0.004	2.0	NoResponse	0	0.246	238.246	4	24	Target	MissedWin	False
239.167	0.54	Win2	0.68	n/a	No	3.146	n/a	n/a	NoResponse	0	n/a	n/a	4	24	Blank	MissedWin	False
239.246	0.3	Win2	0.68	0.004	No	3.146	-0.004	2.0	NoResponse	0	0.246	n/a	4	24	ButtonPress	MissedWin	False
239.702	1.45	Win2	0.68	n/a	No	3.146	n/a	5.0	NoResponse	0	0.028	238.73	4	24	Feedback	MissedWin	False
241.157	3.146	Win2	0.68	n/a	No	3.146	n/a	2.0	NoResponse	0	3.041	n/a	4	24	ISIslide	MissedWin	False
244.299	0.25	Win2	0.6537999999999999	0.0	No	3.101	-0.001	n/a	NoResponse	0	n/a	n/a	4	25	Cue	MissedWin	False
244.55	4.0	Win2	0.6537999999999999	0.0	No	3.101	0.001	2.0	NoResponse	0	1.75	245.3	4	25	Fixation	MissedWin	False
246.3	0.3	Win2	0.6537999999999999	0.0	No	3.101	0.001	2.0	NoResponse	0	1.75	n/a	4	25	ButtonPress	MissedWin	False
248.545	0.15	Win2	0.6537999999999999	0.004	No	3.101	-0.004	2.0	NoResponse	0	0.231	247.776	4	25	Target	MissedWin	False
248.696	0.55	Win2	0.6537999999999999	n/a	No	3.101	n/a	n/a	NoResponse	0	n/a	n/a	4	25	Blank	MissedWin	False
248.776	0.3	Win2	0.6537999999999999	0.004	No	3.101	-0.004	2.0	NoResponse	0	0.231	n/a	4	25	ButtonPress	MissedWin	False
249.248	1.45	Win2	0.6537999999999999	n/a	No	3.101	n/a	5.0	NoResponse	0	0.042	248.29	4	25	Feedback	MissedWin	False
250.702	3.101	Win2	0.6537999999999999	n/a	No	3.101	n/a	2.0	NoResponse	0	0.149	n/a	4	25	ISIslide	MissedWin	False
253.811	0.25	Win2	0.6296	0.0	No	2.939	0.011	n/a	NoResponse	0	n/a	n/a	4	26	Cue	MissedWin	False
254.062	3.95	Win2	0.6296	0.0	No	2.939	0.001	2.0	NoResponse	0	0.557	253.619	4	26	Fixation	MissedWin	False
254.619	0.3	Win2	0.6296	0.0	No	2.939	0.001	2.0	NoResponse	0	0.557	n/a	4	26	ButtonPress	MissedWin	False
258.007	0.16	Win2	0.6296	0.004	No	2.939	-0.004	2.0	NoResponse	0	0.175	257.182	4	26	Target	MissedWin	False
258.174	0.54	Win2	0.6296	n/a	No	2.939	n/a	n/a	NoResponse	0	n/a	n/a	4	26	Blank	MissedWin	False
258.182	0.3	Win2	0.6296	0.004	No	2.939	-0.004	2.0	NoResponse	0	0.175	n/a	4	26	ButtonPress	MissedWin	False
258.709	1.45	Win2	0.6296	n/a	No	2.939	n/a	5.0	NoResponse	0	0.045	257.754	4	26	Feedback	MissedWin	False
260.164	2.939	Win2	0.6296	n/a	No	2.939	n/a	n/a	NoResponse	0	0.0	n/a	4	26	ISIslide	MissedWin	False
263.122	0.25	Lose2	0.6071	0.0	No	2.828	0.022	n/a	PrematurePress	-1	n/a	n/a	3	27	Cue	Loss	False
263.373	4.05	Lose2	0.6071	0.0	No	2.828	0.001	2.0	PrematurePress	-1	1.346	263.719	3	27	Fixation	Loss	False
264.719	0.3	Lose2	0.6071	0.0	No	2.828	0.001	2.0	PrematurePress	-1	1.346	n/a	3	27	ButtonPress	Loss	False
267.419	0.17	Lose2	0.6071	0.003	No	2.828	-0.003	2.0	PrematurePress	-1	0.038	266.457	3	27	Target	Loss	False
267.457	0.3	Lose2	0.6071	0.003	No	2.828	-0.003	2.0	PrematurePress	-1	0.038	n/a	3	27	ButtonPress	Loss	False
267.602	0.53	Lose2	0.6071	n/a	No	2.828	n/a	n/a	PrematurePress	-1	n/a	n/a	3	27	Blank	Loss	False
268.121	1.45	Lose2	0.6071	n/a	No	2.828	n/a	5.0	PrematurePress	-1	0.048	267.169	3	27	Feedback	Loss	False
269.575	2.828	Lose2	0.6071	n/a	No	2.828	n/a	2.0	PrematurePress	-1	1.118	n/a	3	27	ISIslide	Loss	False
272.4	0.25	Control	0.5861999999999999	0.0	No	2.85	0.0	n/a	NoResponse	0	n/a	n/a	3	28	Cue	Neutral	False
272.651	4.05	Control	0.5861999999999999	0.0	No	2.85	0.001	2.0	NoResponse	0	0.179	271.83	3	28	Fixation	Neutral	False
272.83	0.3	Control	0.5861999999999999	0.0	No	2.85	0.001	2.0	NoResponse	0	0.179	n/a	3	28	ButtonPress	Neutral	False
276.696	0.18	Control	0.5861999999999999	0.004	No	2.85	-0.004	2.0	NoResponse	0	0.223	275.919	3	28	Target	Neutral	False
276.88	0.52	Control	0.5861999999999999	n/a	No	2.85	n/a	n/a	NoResponse	0	n/a	n/a	3	28	Blank	Neutral	False
276.919	0.3	Control	0.5861999999999999	0.004	No	2.85	-0.004	2.0	NoResponse	0	0.223	n/a	3	28	ButtonPress	Neutral	False
277.398	1.45	Control	0.5861999999999999	n/a	No	2.85	n/a	5.0	NoResponse	0	0.039	276.437	3	28	Feedback	Neutral	False
278.853	2.85	Control	0.5861999999999999	n/a	No	2.85	n/a	2.0	NoResponse	0	0.872	n/a	3	28	ISIslide	Neutral	False
281.711	0.25	Lose2	0.6	0.0	Yes	2.839	0.011	n/a	GoodResponse	0	n/a	n/a	3	29	Cue	AvoidedLoss	False
281.962	3.95	Lose2	0.6	0.0	Yes	2.839	0.001	2.0	GoodResponse	0	0.055	281.017	3	29	Fixation	AvoidedLoss	False
282.017	0.3	Lose2	0.6	0.0	Yes	2.839	0.001	2.0	GoodResponse	0	0.055	n/a	3	29	ButtonPress	AvoidedLoss	False
285.907	0.19	Lose2	0.6	0.004	Yes	2.839	-0.004	2.0	GoodResponse	0	0.137	285.044	3	29	Target	AvoidedLoss	False
286.044	0.3	Lose2	0.6	0.004	Yes	2.839	-0.004	2.0	GoodResponse	0	0.137	n/a	3	29	ButtonPress	AvoidedLoss	False
286.108	0.51	Lose2	0.6	n/a	Yes	2.839	n/a	n/a	GoodResponse	0	n/a	n/a	3	29	Blank	AvoidedLoss	False
286.609	1.45	Lose2	0.6	n/a	Yes	2.839	n/a	5.0	GoodResponse	0	0.048	285.657	3	29	Feedback	AvoidedLoss	False
288.064	2.839	Lose2	0.6	n/a	Yes	2.839	n/a	n/a	GoodResponse	0	0.0	n/a	3	29	ISIslide	AvoidedLoss	False
290.922	0.25	Win2	0.6129	0.0	Yes	2.778	0.022	n/a	GoodResponse	1	n/a	n/a	4	30	Cue	Win	False
291.173	3.9	Win2	0.6129	0.0	Yes	2.778	0.001	2.0	GoodResponse	1	0.221	290.394	4	30	Fixation	Win	False
291.394	0.3	Win2	0.6129	0.0	Yes	2.778	0.001	2.0	GoodResponse	1	0.221	n/a	4	30	ButtonPress	Win	False
295.068	0.2	Win2	0.6129	0.004	Yes	2.778	-0.004	2.0	GoodResponse	1	0.1	294.168	4	30	Target	Win	False
295.168	0.3	Win2	0.6129	0.004	Yes	2.778	-0.004	2.0	GoodResponse	1	0.1	n/a	4	30	ButtonPress	Win	False
295.269	0.5	Win2	0.6129	n/a	Yes	2.778	n/a	n/a	GoodResponse	1	n/a	n/a	4	30	Blank	Win	False
295.77	1.45	Win2	0.6129	n/a	Yes	2.778	n/a	5.0	GoodResponse	1	0.008	294.778	4	30	Feedback	Win	False
297.224	2.778	Win2	0.6129	n/a	Yes	2.778	n/a	n/a	GoodResponse	1	0.0	n/a	4	30	ISIslide	Win	False
300.016	0.25	Lose2	0.5938	0.0	No	2.834	0.016	n/a	PrematurePress	-1	n/a	n/a	3	31	Cue	Loss	False
300.267	4.05	Lose2	0.5938	0.0	No	2.834	0.001	2.0	PrematurePress	-1	0.355	299.622	3	31	Fixation	Loss	False
300.622	0.3	Lose2	0.5938	0.0	No	2.834	0.001	2.0	PrematurePress	-1	0.355	n/a	3	31	ButtonPress	Loss	False
304.312	0.21	Lose2	0.5938	0.004	No	2.834	-0.004	2.0	PrematurePress	-1	0.015	303.327	3	31	Target	Loss	False
304.327	0.3	Lose2	0.5938	0.004	No	2.834	-0.004	2.0	PrematurePress	-1	0.015	n/a	3	31	ButtonPress	Loss	False
304.53	0.49	Lose2	0.5938	n/a	No	2.834	n/a	n/a	PrematurePress	-1	n/a	n/a	3	31	Blank	Loss	False
305.014	1.45	Lose2	0.5938	n/a	No	2.834	n/a	5.0	PrematurePress	-1	0.032	304.046	3	31	Feedback	Loss	False
306.469	2.834	Lose2	0.5938	n/a	No	2.834	n/a	n/a	PrematurePress	-1	0.0	n/a	3	31	ISIslide	Loss	False
309.327	0.25	Lose2	0.5758	0.0	No	2.623	0.027	n/a	PrematurePress	-1	n/a	n/a	2	32	Cue	Loss	False
309.578	4.15	Lose2	0.5758	0.0	No	2.623	0.001	2.0	PrematurePress	-1	0.245	308.823	2	32	Fixation	Loss	False
309.823	0.3	Lose2	0.5758	0.0	No	2.623	0.001	2.0	PrematurePress	-1	0.245	n/a	2	32	ButtonPress	Loss	False
313.724	0.22	Lose2	0.5758	0.003	No	2.623	-0.003	2.0	PrematurePress	-1	0.027	312.751	2	32	Target	Loss	False
313.751	0.3	Lose2	0.5758	0.003	No	2.623	-0.003	2.0	PrematurePress	-1	0.027	n/a	2	32	ButtonPress	Loss	False
313.958	0.48	Lose2	0.5758	n/a	No	2.623	n/a	n/a	PrematurePress	-1	n/a	n/a	2	32	Blank	Loss	False
314.426	1.45	Lose2	0.5758	n/a	No	2.623	n/a	5.0	PrematurePress	-1	0.035	313.461	2	32	Feedback	Loss	False
315.88	2.623	Lose2	0.5758	n/a	No	2.623	n/a	2.0	PrematurePress	-1	0.07	n/a	2	32	ISIslide	Loss	False
318.505	0.25	Win2	0.5588000000000001	0.0	No	2.695	0.005	n/a	PrematurePress	0	n/a	n/a	2	33	Cue	MissedWin	False
318.756	4.0	Win2	0.5588000000000001	0.0	No	2.695	0.001	2.0	PrematurePress	0	0.217	317.973	2	33	Fixation	MissedWin	False
318.973	0.3	Win2	0.5588000000000001	0.0	No	2.695	0.001	2.0	PrematurePress	0	0.217	n/a	2	33	ButtonPress	MissedWin	False
322.751	0.23	Win2	0.5588000000000001	0.004	No	2.695	-0.004	2.0	PrematurePress	0	0.022	321.773	2	33	Target	MissedWin	False
322.773	0.3	Win2	0.5588000000000001	0.004	No	2.695	-0.004	2.0	PrematurePress	0	0.022	n/a	2	33	ButtonPress	MissedWin	False
322.985	0.47	Win2	0.5588000000000001	n/a	No	2.695	n/a	n/a	PrematurePress	0	n/a	n/a	2	33	Blank	MissedWin	False
323.453	1.45	Win2	0.5588000000000001	n/a	No	2.695	n/a	5.0	PrematurePress	0	0.032	322.485	2	33	Feedback	MissedWin	False
324.907	2.695	Win2	0.5588000000000001	n/a	No	2.695	n/a	2.0	PrematurePress	0	0.149	n/a	2	33	ISIslide	MissedWin	False
327.599	0.25	Lose2	0.5428999999999999	0.0	No	2.651	-0.001	n/a	PrematurePress	-1	n/a	n/a	1	34	Cue	Loss	False
327.849	4.05	Lose2	0.5428999999999999	0.001	No	2.651	0.0	2.0	PrematurePress	-1	0.804	327.653	1	34	Fixation	Loss	False
328.653	0.3	Lose2	0.5428999999999999	0.001	No	2.651	0.0	2.0	PrematurePress	-1	0.804	n/a	1	34	ButtonPress	Loss	False
331.895	0.24	Lose2	0.5428999999999999	0.004	No	2.651	-0.004	2.0	PrematurePress	-1	0.045	330.94	1	34	Target	Loss	False
331.94	0.3	Lose2	0.5428999999999999	0.004	No	2.651	-0.004	2.0	PrematurePress	-1	0.045	n/a	1	34	ButtonPress	Loss	False
332.146	0.46	Lose2	0.5428999999999999	n/a	No	2.651	n/a	n/a	PrematurePress	-1	n/a	n/a	1	34	Blank	Loss	False
332.597	1.45	Lose2	0.5428999999999999	n/a	No	2.651	n/a	5.0	PrematurePress	-1	0.01	331.607	1	34	Feedback	Loss	False
334.051	2.651	Lose2	0.5428999999999999	n/a	No	2.651	n/a	2.0	PrematurePress	-1	0.006	n/a	1	34	ISIslide	Loss	False
336.709	0.25	Lose2	0.5556	0.0	Yes	2.691	0.009	n/a	GoodResponse	0	n/a	n/a	1	35	Cue	AvoidedLoss	False
336.96	4.0	Lose2	0.5556	0.0	Yes	2.691	0.001	2.0	GoodResponse	0	0.348	336.308	1	35	Fixation	AvoidedLoss	False
337.308	0.3	Lose2	0.5556	0.0	Yes	2.691	0.001	2.0	GoodResponse	0	0.348	n/a	1	35	ButtonPress	AvoidedLoss	False
340.955	0.25	Lose2	0.5556	0.004	Yes	2.691	-0.004	2.0	GoodResponse	0	0.223	340.178	1	35	Target	AvoidedLoss	False
341.178	0.3	Lose2	0.5556	0.004	Yes	2.691	-0.004	2.0	GoodResponse	0	0.223	n/a	1	35	ButtonPress	AvoidedLoss	False
341.206	0.45	Lose2	0.5556	n/a	Yes	2.691	n/a	n/a	GoodResponse	0	n/a	n/a	1	35	Blank	AvoidedLoss	False
341.657	1.45	Lose2	0.5556	n/a	Yes	2.691	n/a	5.0	GoodResponse	0	0.023	340.68	1	35	Feedback	AvoidedLoss	False
343.112	2.691	Lose2	0.5556	n/a	Yes	2.691	n/a	n/a	GoodResponse	0	0.0	n/a	1	35	ISIslide	AvoidedLoss	False
345.82	0.25	Control	0.5676	0.0	Yes	2.68	0.02	n/a	GoodResponse	0	n/a	n/a	1	36	Cue	Neutral	True
346.071	4.0	Control	0.5676	0.0	Yes	2.68	0.001	n/a	GoodResponse	0	n/a	n/a	1	36	Fixation	Neutral	True
350.066	0.26	Control	0.5676	0.004	Yes	2.68	-0.004	2.0	GoodResponse	0	0.193	349.259	1	36	Target	Neutral	True
350.259	0.3	Control	0.5676	0.004	Yes	2.68	-0.004	2.0	GoodResponse	0	0.193	n/a	1	36	ButtonPress	Neutral	True
350.333	0.44	Control	0.5676	n/a	Yes	2.68	n/a	n/a	GoodResponse	0	n/a	n/a	1	36	Blank	Neutral	True
350.768	1.45	Control	0.5676	n/a	Yes	2.68	n/a	5.0	GoodResponse	0	0.034	349.802	1	36	Feedback	Neutral	True
352.222	2.68	Control	0.5676	n/a	Yes	2.68	n/a	n/a	GoodResponse	0	0.0	n/a	1	36	ISIslide	Neutral	True
354.931	0.25	Win2	0.5526	0.0	No	2.869	0.031	n/a	NoResponse	0	n/a	n/a	1	37	Cue	MissedWin	False
355.181	4.0	Win2	0.5526	0.0	No	2.869	0.0	2.0	NoResponse	0	1.526	355.707	1	37	Fixation	MissedWin	False
356.707	0.3	Win2	0.5526	0.0	No	2.869	0.0	2.0	NoResponse	0	1.526	n/a	1	37	ButtonPress	MissedWin	False
359.177	0.27	Win2	0.5526	0.004	No	2.869	-0.004	2.0	NoResponse	0	0.372	358.549	1	37	Target	MissedWin	False
359.461	0.43	Win2	0.5526	n/a	No	2.869	n/a	n/a	NoResponse	0	n/a	n/a	1	37	Blank	MissedWin	False
359.549	0.3	Win2	0.5526	0.004	No	2.869	-0.004	2.0	NoResponse	0	0.372	n/a	1	37	ButtonPress	MissedWin	False
359.879	1.45	Win2	0.5526	n/a	No	2.869	n/a	5.0	NoResponse	0	0.045	358.924	1	37	Feedback	MissedWin	False
361.333	2.869	Win2	0.5526	n/a	No	2.869	n/a	2.0	NoResponse	0	0.566	n/a	1	37	ISIslide	MissedWin	False
364.208	0.25	Lose2	0.5385	0.0	No	2.842	0.008	n/a	NoResponse	-1	n/a	n/a	0	38	Cue	Loss	False
364.459	3.95	Lose2	0.5385	0.0	No	2.842	0.001	2.0	NoResponse	-1	1.121	364.58	0	38	Fixation	Loss	False
365.58	0.3	Lose2	0.5385	0.0	No	2.842	0.001	2.0	NoResponse	-1	1.121	n/a	0	38	ButtonPress	Loss	False
368.404	0.28	Lose2	0.5385	0.004	No	2.842	-0.004	2.0	NoResponse	-1	0.449	367.853	0	38	Target	Loss	False
368.688	0.42	Lose2	0.5385	n/a	No	2.842	n/a	n/a	NoResponse	-1	n/a	n/a	0	38	Blank	Loss	False
368.853	0.3	Lose2	0.5385	0.004	No	2.842	-0.004	2.0	NoResponse	-1	0.449	n/a	0	38	ButtonPress	Loss	False
369.106	1.45	Lose2	0.5385	n/a	No	2.842	n/a	5.0	NoResponse	-1	0.037	368.143	0	38	Feedback	Loss	False
370.561	2.842	Lose2	0.5385	n/a	No	2.842	n/a	2.0	NoResponse	-1	0.793	n/a	0	38	ISIslide	Loss	False
373.402	0.25	Win2	0.55	0.001	Yes	2.998	0.002	n/a	GoodResponse	1	n/a	n/a	1	39	Cue	Win	False
373.653	4.1	Win2	0.55	0.0	Yes	2.998	0.001	2.0	GoodResponse	1	0.272	372.925	1	39	Fixation	Win	False
373.925	0.3	Win2	0.55	0.0	Yes	2.998	0.001	2.0	GoodResponse	1	0.272	n/a	1	39	ButtonPress	Win	False
377.749	0.29	Win2	0.55	0.003	Yes	2.998	-0.003	2.0	GoodResponse	1	0.237	376.986	1	39	Target	Win	False
377.986	0.3	Win2	0.55	0.003	Yes	2.998	-0.003	2.0	GoodResponse	1	0.237	n/a	1	39	ButtonPress	Win	False
378.05	0.41	Win2	0.55	n/a	Yes	2.998	n/a	n/a	GoodResponse	1	n/a	n/a	1	39	Blank	Win	False
378.451	1.45	Win2	0.55	n/a	Yes	2.998	n/a	5.0	GoodResponse	1	0.01	377.461	1	39	Feedback	Win	False
379.905	2.998	Win2	0.55	n/a	Yes	2.998	n/a	n/a	GoodResponse	1	0.0	n/a	1	39	ISIslide	Win	False
382.914	0.25	Win2	0.561	0.0	Yes	2.736	0.014	n/a	GoodResponse	1	n/a	n/a	2	40	Cue	Win	False
383.165	3.95	Win2	0.561	0.0	Yes	2.736	0.001	2.0	GoodResponse	1	0.089	382.254	2	40	Fixation	Win	False
383.254	0.3	Win2	0.561	0.0	Yes	2.736	0.001	2.0	GoodResponse	1	0.089	n/a	2	40	ButtonPress	Win	False
387.11	0.3	Win2	0.561	0.004	Yes	2.736	-0.004	2.0	GoodResponse	1	0.212	386.322	2	40	Target	Win	False
387.322	0.3	Win2	0.561	0.004	Yes	2.736	-0.004	2.0	GoodResponse	1	0.212	n/a	2	40	ButtonPress	Win	False
387.411	0.4	Win2	0.561	n/a	Yes	2.736	n/a	n/a	GoodResponse	1	n/a	n/a	2	40	Blank	Win	False
387.812	1.45	Win2	0.561	n/a	Yes	2.736	n/a	5.0	GoodResponse	1	0.015	386.827	2	40	Feedback	Win	False
389.267	2.736	Win2	0.561	n/a	Yes	2.736	n/a	n/a	GoodResponse	1	0.0	n/a	2	40	ISIslide	Win	False
392.025	0.25	Win2	0.5714	0.0	Yes	2.775	0.025	n/a	GoodResponse	1	n/a	n/a	3	41	Cue	Win	True
392.276	3.9	Win2	0.5714	0.0	Yes	2.775	0.001	n/a	GoodResponse	1	n/a	n/a	3	41	Fixation	Win	True
396.171	0.31	Win2	0.5714	0.004	Yes	2.775	-0.004	2.0	GoodResponse	1	0.206	395.377	3	41	Target	Win	True
396.377	0.3	Win2	0.5714	0.004	Yes	2.775	-0.004	2.0	GoodResponse	1	0.206	n/a	3	41	ButtonPress	Win	True
396.488	0.39	Win2	0.5714	n/a	Yes	2.775	n/a	n/a	GoodResponse	1	n/a	n/a	3	41	Blank	Win	True
396.873	1.45	Win2	0.5714	n/a	Yes	2.775	n/a	5.0	GoodResponse	1	0.026	395.899	3	41	Feedback	Win	True
398.327	2.775	Win2	0.5714	n/a	Yes	2.775	n/a	n/a	GoodResponse	1	0.0	n/a	3	41	ISIslide	Win	True
401.119	0.25	Control	0.5814	0.0	Yes	2.931	0.019	n/a	GoodResponse	0	n/a	n/a	3	42	Cue	Neutral	False
401.37	3.85	Control	0.5814	0.0	Yes	2.931	0.001	2.0	GoodResponse	0	2.686	403.056	3	42	Fixation	Neutral	False
404.056	0.3	Control	0.5814	0.0	Yes	2.931	0.001	2.0	GoodResponse	0	2.686	n/a	3	42	ButtonPress	Neutral	False
405.231	0.32	Control	0.5814	0.0	Yes	2.931	0.012	2.0	GoodResponse	0	0.213	404.444	3	42	Target	Neutral	False
405.444	0.3	Control	0.5814	0.0	Yes	2.931	0.012	2.0	GoodResponse	0	0.213	n/a	3	42	ButtonPress	Neutral	False
405.549	0.38	Control	0.5814	n/a	Yes	2.931	n/a	n/a	GoodResponse	0	n/a	n/a	3	42	Blank	Neutral	False
405.916	1.45	Control	0.5814	n/a	Yes	2.931	n/a	5.0	GoodResponse	0	0.009	404.925	3	42	Feedback	Neutral	False
407.371	2.931	Control	0.5814	n/a	Yes	2.931	n/a	n/a	GoodResponse	0	0.0	n/a	3	42	ISIslide	Neutral	False
410.33	0.25	Win2	0.5909	0.0	Yes	3.17	0.03	n/a	GoodResponse	1	n/a	n/a	4	43	Cue	Win	True
410.58	4.0	Win2	0.5909	0.001	Yes	3.17	0.0	n/a	GoodResponse	1	n/a	n/a	4	43	Fixation	Win	True
414.576	0.33	Win2	0.5909	0.004	Yes	3.17	-0.004	2.0	GoodResponse	1	0.176	413.752	4	43	Target	Win	True
414.752	0.3	Win2	0.5909	0.004	Yes	3.17	-0.004	2.0	GoodResponse	1	0.176	n/a	4	43	ButtonPress	Win	True
414.91	0.37	Win2	0.5909	n/a	Yes	3.17	n/a	n/a	GoodResponse	1	n/a	n/a	4	43	Blank	Win	True
415.278	1.45	Win2	0.5909	n/a	Yes	3.17	n/a	5.0	GoodResponse	1	0.011	414.289	4	43	Feedback	Win	True
416.732	3.17	Win2	0.5909	n/a	Yes	3.17	n/a	n/a	GoodResponse	1	0.0	n/a	4	43	ISIslide	Win	True
419.925	0.25	Win2	0.6	0.0	Yes	2.975	0.025	n/a	GoodResponse	1	n/a	n/a	5	44	Cue	Win	True
420.176	4.0	Win2	0.6	0.0	Yes	2.975	0.001	n/a	GoodResponse	1	n/a	n/a	5	44	Fixation	Win	True
424.171	0.34	Win2	0.6	0.004	Yes	2.975	-0.004	2.0	GoodResponse	1	0.199	423.37	5	44	Target	Win	True
424.37	0.3	Win2	0.6	0.004	Yes	2.975	-0.004	2.0	GoodResponse	1	0.199	n/a	5	44	ButtonPress	Win	True
424.522	0.36	Win2	0.6	n/a	Yes	2.975	n/a	n/a	GoodResponse	1	n/a	n/a	5	44	Blank	Win	True
424.873	1.45	Win2	0.6	n/a	Yes	2.975	n/a	5.0	GoodResponse	1	0.026	423.899	5	44	Feedback	Win	True
426.328	2.975	Win2	0.6	n/a	Yes	2.975	n/a	n/a	GoodResponse	1	0.0	n/a	5	44	ISIslide	Win	True
429.32	0.25	Control	0.6087	0.0	Yes	2.88	0.02	n/a	GoodResponse	0	n/a	n/a	5	45	Cue	Neutral	False
429.571	4.1	Control	0.6087	0.0	Yes	2.88	0.001	2.0	GoodResponse	0	2.256	430.827	5	45	Fixation	Neutral	False
431.827	0.3	Control	0.6087	0.0	Yes	2.88	0.001	2.0	GoodResponse	0	2.256	n/a	5	45	ButtonPress	Neutral	False
433.666	0.35	Control	0.6087	0.004	Yes	2.88	-0.004	2.0	GoodResponse	0	0.198	432.864	5	45	Target	Neutral	False
433.864	0.3	Control	0.6087	0.004	Yes	2.88	-0.004	2.0	GoodResponse	0	0.198	n/a	5	45	ButtonPress	Neutral	False
434.017	0.35	Control	0.6087	n/a	Yes	2.88	n/a	n/a	GoodResponse	0	n/a	n/a	5	45	Blank	Neutral	False
434.368	1.45	Control	0.6087	n/a	Yes	2.88	n/a	5.0	GoodResponse	0	0.043	433.411	5	45	Feedback	Neutral	False
435.823	2.88	Control	0.6087	n/a	Yes	2.88	n/a	n/a	GoodResponse	0	0.0	n/a	5	45	ISIslide	Neutral	False
438.731	0.25	Lose2	0.617	0.0	Yes	3.369	0.031	n/a	GoodResponse	0	n/a	n/a	5	46	Cue	AvoidedLoss	False
438.982	4.0	Lose2	0.617	0.0	Yes	3.369	0.001	2.0	GoodResponse	0	2.571	440.553	5	46	Fixation	AvoidedLoss	False
441.553	0.3	Lose2	0.617	0.0	Yes	3.369	0.001	2.0	GoodResponse	0	2.571	n/a	5	46	ButtonPress	AvoidedLoss	False
442.977	0.36	Lose2	0.617	0.004	Yes	3.369	-0.004	2.0	GoodResponse	0	0.196	442.173	5	46	Target	AvoidedLoss	False
443.173	0.3	Lose2	0.617	0.004	Yes	3.369	-0.004	2.0	GoodResponse	0	0.196	n/a	5	46	ButtonPress	AvoidedLoss	False
443.345	0.34	Lose2	0.617	n/a	Yes	3.369	n/a	n/a	GoodResponse	0	n/a	n/a	5	46	Blank	AvoidedLoss	False
443.679	1.45	Lose2	0.617	n/a	Yes	3.369	n/a	5.0	GoodResponse	0	0.049	442.728	5	46	Feedback	AvoidedLoss	False
445.134	3.369	Lose2	0.617	n/a	Yes	3.369	n/a	n/a	GoodResponse	0	0.0	n/a	5	46	ISIslide	AvoidedLoss	False
448.527	0.25	Lose2	0.625	0.0	Yes	2.673	0.027	n/a	GoodResponse	0	n/a	n/a	5	47	Cue	AvoidedLoss	False
448.778	4.0	Lose2	0.625	0.0	Yes	2.673	0.001	2.0	GoodResponse	0	1.432	449.21	5	47	Fixation	AvoidedLoss	False
450.21	0.3	Lose2	0.625	0.0	Yes	2.673	0.001	2.0	GoodResponse	0	1.432	n/a	5	47	ButtonPress	AvoidedLoss	False
452.773	0.37	Lose2	0.625	0.004	Yes	2.673	-0.004	2.0	GoodResponse	0	0.2	451.973	5	47	Target	AvoidedLoss	False
452.973	0.3	Lose2	0.625	0.004	Yes	2.673	-0.004	2.0	GoodResponse	0	0.2	n/a	5	47	ButtonPress	AvoidedLoss	False
453.158	0.33	Lose2	0.625	n/a	Yes	2.673	n/a	n/a	GoodResponse	0	n/a	n/a	5	47	Blank	AvoidedLoss	False
453.475	1.45	Lose2	0.625	n/a	Yes	2.673	n/a	5.0	GoodResponse	0	0.009	452.484	5	47	Feedback	AvoidedLoss	False
454.93	2.673	Lose2	0.625	n/a	Yes	2.673	n/a	n/a	GoodResponse	0	0.0	n/a	5	47	ISIslide	AvoidedLoss	False
457.621	0.25	Lose2	0.6327	0.0	Yes	3.029	0.021	n/a	GoodResponse	0	n/a	n/a	5	48	Cue	AvoidedLoss	False
457.872	3.95	Lose2	0.6327	0.0	Yes	3.029	0.001	2.0	GoodResponse	0	3.323	460.195	5	48	Fixation	AvoidedLoss	False
461.195	0.3	Lose2	0.6327	0.0	Yes	3.029	0.001	2.0	GoodResponse	0	3.323	n/a	5	48	ButtonPress	AvoidedLoss	False
461.817	0.38	Lose2	0.6327	0.004	Yes	3.029	-0.004	2.0	GoodResponse	0	0.227	461.044	5	48	Target	AvoidedLoss	False
462.044	0.3	Lose2	0.6327	0.004	Yes	3.029	-0.004	2.0	GoodResponse	0	0.227	n/a	5	48	ButtonPress	AvoidedLoss	False
462.202	0.32	Lose2	0.6327	n/a	Yes	3.029	n/a	n/a	GoodResponse	0	n/a	n/a	5	48	Blank	AvoidedLoss	False
462.519	1.45	Lose2	0.6327	n/a	Yes	3.029	n/a	5.0	GoodResponse	0	0.038	461.557	5	48	Feedback	AvoidedLoss	False
463.974	3.029	Lose2	0.6327	n/a	Yes	3.029	n/a	n/a	GoodResponse	0	0.0	n/a	5	48	ISIslide	AvoidedLoss	False
467.016	0.25	Control	0.64	0.0	Yes	2.884	0.016	n/a	GoodResponse	0	n/a	n/a	5	49	Cue	Neutral	True
467.267	4.0	Control	0.64	0.0	Yes	2.884	0.001	n/a	GoodResponse	0	n/a	n/a	5	49	Fixation	Neutral	True
471.262	0.39	Control	0.64	0.004	Yes	2.884	-0.004	2.0	GoodResponse	0	0.251	470.513	5	49	Target	Neutral	True
471.513	0.3	Control	0.64	0.004	Yes	2.884	-0.004	2.0	GoodResponse	0	0.251	n/a	5	49	ButtonPress	Neutral	True
471.663	0.31	Control	0.64	n/a	Yes	2.884	n/a	n/a	GoodResponse	0	n/a	n/a	5	49	Blank	Neutral	True
471.964	1.45	Control	0.64	n/a	Yes	2.884	n/a	5.0	GoodResponse	0	0.008	470.972	5	49	Feedback	Neutral	True
473.419	2.884	Control	0.64	n/a	Yes	2.884	n/a	n/a	GoodResponse	0	0.0	n/a	5	49	ISIslide	Neutral	True
476.327	0.25	Control	0.6470999999999999	0.0	Yes	2.773	0.027	n/a	GoodResponse	0	n/a	n/a	5	50	Cue	Neutral	True
476.578	4.0	Control	0.6470999999999999	0.0	Yes	2.773	0.001	n/a	GoodResponse	0	n/a	n/a	5	50	Fixation	Neutral	True
480.573	0.4	Control	0.6470999999999999	0.004	Yes	2.773	-0.004	2.0	GoodResponse	0	0.202	479.775	5	50	Target	Neutral	True
480.775	0.3	Control	0.6470999999999999	0.004	Yes	2.773	-0.004	2.0	GoodResponse	0	0.202	n/a	5	50	ButtonPress	Neutral	True
480.974	0.3	Control	0.6470999999999999	n/a	Yes	2.773	n/a	n/a	GoodResponse	0	n/a	n/a	5	50	Blank	Neutral	True
481.275	1.45	Control	0.6470999999999999	n/a	Yes	2.773	n/a	5.0	GoodResponse	0	0.014	480.289	5	50	Feedback	Neutral	True
482.73	2.773	Control	0.6470999999999999	n/a	Yes	2.773	n/a	n/a	GoodResponse	0	0.0	n/a	5	50	ISIslide	Neutral	True
485.521	0.25	Control	0.6537999999999999	0.0	Yes	2.729	0.021	n/a	GoodResponse	0	n/a	n/a	5	51	Cue	Neutral	True
485.772	3.95	Control	0.6537999999999999	0.0	Yes	2.729	0.001	n/a	GoodResponse	0	n/a	n/a	5	51	Fixation	Neutral	True
489.717	0.41	Control	0.6537999999999999	0.004	Yes	2.729	-0.004	2.0	GoodResponse	0	0.207	488.924	5	51	Target	Neutral	True
489.924	0.3	Control	0.6537999999999999	0.004	Yes	2.729	-0.004	2.0	GoodResponse	0	0.207	n/a	5	51	ButtonPress	Neutral	True
490.135	0.29	Control	0.6537999999999999	n/a	Yes	2.729	n/a	n/a	GoodResponse	0	n/a	n/a	5	51	Blank	Neutral	True
490.419	1.45	Control	0.6537999999999999	n/a	Yes	2.729	n/a	5.0	GoodResponse	0	0.041	489.46	5	51	Feedback	Neutral	True
491.874	2.729	Control	0.6537999999999999	n/a	Yes	2.729	n/a	n/a	GoodResponse	0	0.0	n/a	5	51	ISIslide	Neutral	True
494.615	0.25	Control	0.6604000000000001	0.0	Yes	2.635	0.015	n/a	GoodResponse	0	n/a	n/a	5	52	Cue	Neutral	True
494.866	4.05	Control	0.6604000000000001	0.0	Yes	2.635	0.001	n/a	GoodResponse	0	n/a	n/a	5	52	Fixation	Neutral	True
498.911	0.42	Control	0.6604000000000001	0.004	Yes	2.635	-0.004	2.0	GoodResponse	0	0.181	498.092	5	52	Target	Neutral	True
499.092	0.3	Control	0.6604000000000001	0.004	Yes	2.635	-0.004	2.0	GoodResponse	0	0.181	n/a	5	52	ButtonPress	Neutral	True
499.346	0.28	Control	0.6604000000000001	n/a	Yes	2.635	n/a	n/a	GoodResponse	0	n/a	n/a	5	52	Blank	Neutral	True
499.614	1.45	Control	0.6604000000000001	n/a	Yes	2.635	n/a	5.0	GoodResponse	0	0.016	498.63	5	52	Feedback	Neutral	True
501.068	2.635	Control	0.6604000000000001	n/a	Yes	2.635	n/a	n/a	GoodResponse	0	0.0	n/a	5	52	ISIslide	Neutral	True
503.726	0.25	Win2	0.6667000000000001	0.0	Yes	2.924	0.026	n/a	GoodResponse	1	n/a	n/a	6	53	Cue	Win	False
503.977	4.05	Win2	0.6667000000000001	0.0	Yes	2.924	0.001	2.0	GoodResponse	1	2.042	505.019	6	53	Fixation	Win	False
506.019	0.3	Win2	0.6667000000000001	0.0	Yes	2.924	0.001	2.0	GoodResponse	1	2.042	n/a	6	53	ButtonPress	Win	False
508.022	0.42	Win2	0.6667000000000001	0.004	Yes	2.924	-0.004	2.0	GoodResponse	1	0.224	507.246	6	53	Target	Win	False
508.246	0.3	Win2	0.6667000000000001	0.004	Yes	2.924	-0.004	2.0	GoodResponse	1	0.224	n/a	6	53	ButtonPress	Win	False
508.457	0.28	Win2	0.6667000000000001	n/a	Yes	2.924	n/a	n/a	GoodResponse	1	n/a	n/a	6	53	Blank	Win	False
508.724	1.45	Win2	0.6667000000000001	n/a	Yes	2.924	n/a	5.0	GoodResponse	1	0.028	507.752	6	53	Feedback	Win	False
510.179	2.924	Win2	0.6667000000000001	n/a	Yes	2.924	n/a	n/a	GoodResponse	1	0.0	n/a	6	53	ISIslide	Win	False
513.121	0.25	Win2	0.6727	0.0	Yes	2.729	0.021	n/a	GoodResponse	1	n/a	n/a	7	54	Cue	Win	True
513.371	3.95	Win2	0.6727	0.001	Yes	2.729	0.0	n/a	GoodResponse	1	n/a	n/a	7	54	Fixation	Win	True
517.317	0.41	Win2	0.6727	0.004	Yes	2.729	-0.004	2.0	GoodResponse	1	0.186	516.503	7	54	Target	Win	True
517.503	0.3	Win2	0.6727	0.004	Yes	2.729	-0.004	2.0	GoodResponse	1	0.186	n/a	7	54	ButtonPress	Win	True
517.735	0.29	Win2	0.6727	n/a	Yes	2.729	n/a	n/a	GoodResponse	1	n/a	n/a	7	54	Blank	Win	True
518.019	1.45	Win2	0.6727	n/a	Yes	2.729	n/a	5.0	GoodResponse	1	0.001	517.02	7	54	Feedback	Win	True
519.473	2.729	Win2	0.6727	n/a	Yes	2.729	n/a	n/a	GoodResponse	1	0.0	n/a	7	54	ISIslide	Win	True
522.215	0.25	Control	0.6786	0.0	Yes	3.035	0.015	n/a	GoodResponse	0	n/a	n/a	7	55	Cue	Neutral	True
522.465	3.95	Control	0.6786	0.0	Yes	3.035	0.0	n/a	GoodResponse	0	n/a	n/a	7	55	Fixation	Neutral	True
526.41	0.4	Control	0.6786	0.005	Yes	3.035	-0.005	2.0	GoodResponse	0	0.239	525.649	7	55	Target	Neutral	True
526.649	0.3	Control	0.6786	0.005	Yes	3.035	-0.005	2.0	GoodResponse	0	0.239	n/a	7	55	ButtonPress	Neutral	True
526.812	0.3	Control	0.6786	n/a	Yes	3.035	n/a	n/a	GoodResponse	0	n/a	n/a	7	55	Blank	Neutral	True
527.113	1.45	Control	0.6786	n/a	Yes	3.035	n/a	5.0	GoodResponse	0	0.029	526.142	7	55	Feedback	Neutral	True
528.567	3.035	Control	0.6786	n/a	Yes	3.035	n/a	n/a	GoodResponse	0	0.0	n/a	7	55	ISIslide	Neutral	True
531.626	0.25	Control	0.6842	0.0	Yes	2.824	0.026	n/a	GoodResponse	0	n/a	n/a	7	56	Cue	Neutral	False
531.877	3.95	Control	0.6842	0.0	Yes	2.824	0.001	2.0	GoodResponse	0	3.697	534.574	7	56	Fixation	Neutral	False
535.574	0.3	Control	0.6842	0.0	Yes	2.824	0.001	2.0	GoodResponse	0	3.697	n/a	7	56	ButtonPress	Neutral	False
535.822	0.39	Control	0.6842	0.004	Yes	2.824	-0.004	2.0	GoodResponse	0	0.239	535.061	7	56	Target	Neutral	False
536.061	0.3	Control	0.6842	0.004	Yes	2.824	-0.004	2.0	GoodResponse	0	0.239	n/a	7	56	ButtonPress	Neutral	False
536.223	0.31	Control	0.6842	n/a	Yes	2.824	n/a	n/a	GoodResponse	0	n/a	n/a	7	56	Blank	Neutral	False
536.524	1.45	Control	0.6842	n/a	Yes	2.824	n/a	5.0	GoodResponse	0	0.033	535.557	7	56	Feedback	Neutral	False
537.978	2.824	Control	0.6842	n/a	Yes	2.824	n/a	n/a	GoodResponse	0	0.0	n/a	7	56	ISIslide	Neutral	False
540.82	0.25	Control	0.6724	0.0	No	3.48	0.02	n/a	NoResponse	0	n/a	n/a	7	57	Cue	Neutral	True
541.071	4.0	Control	0.6724	0.0	No	3.48	0.001	2.0	NoResponse	0	3.005	543.076	7	57	Fixation	Neutral	True
544.076	0.3	Control	0.6724	0.0	No	3.48	0.001	2.0	NoResponse	0	3.005	n/a	7	57	ButtonPress	Neutral	True
545.066	0.38	Control	0.6724	0.004	No	3.48	-0.004	n/a	NoResponse	0	n/a	n/a	7	57	Target	Neutral	True
545.451	0.32	Control	0.6724	n/a	No	3.48	n/a	n/a	NoResponse	0	n/a	n/a	7	57	Blank	Neutral	True
545.768	1.45	Control	0.6724	n/a	No	3.48	n/a	5.0	NoResponse	0	0.008	544.776	7	57	Feedback	Neutral	True
547.223	3.48	Control	0.6724	n/a	No	3.48	n/a	n/a	NoResponse	0	0.0	n/a	7	57	ISIslide	Neutral	True
550.717	0.25	Win2	0.6779999999999999	0.0	Yes	2.733	0.017	n/a	GoodResponse	1	n/a	n/a	8	58	Cue	Win	False
550.967	4.05	Win2	0.6779999999999999	0.0	Yes	2.733	0.0	2.0	GoodResponse	1	0.86	550.827	8	58	Fixation	Win	False
551.827	0.3	Win2	0.6779999999999999	0.0	Yes	2.733	0.0	2.0	GoodResponse	1	0.86	n/a	8	58	ButtonPress	Win	False
555.013	0.37	Win2	0.6779999999999999	0.004	Yes	2.733	-0.004	2.0	GoodResponse	1	0.177	554.19	8	58	Target	Win	False
555.19	0.3	Win2	0.6779999999999999	0.004	Yes	2.733	-0.004	2.0	GoodResponse	1	0.177	n/a	8	58	ButtonPress	Win	False
555.397	0.33	Win2	0.6779999999999999	n/a	Yes	2.733	n/a	n/a	GoodResponse	1	n/a	n/a	8	58	Blank	Win	False
555.715	1.45	Win2	0.6779999999999999	n/a	Yes	2.733	n/a	5.0	GoodResponse	1	0.012	554.727	8	58	Feedback	Win	False
557.169	2.733	Win2	0.6779999999999999	n/a	Yes	2.733	n/a	n/a	GoodResponse	1	0.0	n/a	8	58	ISIslide	Win	False
559.927	0.25	Lose2	0.6833	0.001	Yes	2.673	0.027	2.0	GoodResponse	0	0.055	558.982	8	59	Cue	AvoidedLoss	False
559.982	0.3	Lose2	0.6833	0.001	Yes	2.673	0.027	2.0	GoodResponse	0	0.055	n/a	8	59	ButtonPress	AvoidedLoss	False
560.178	4.0	Lose2	0.6833	0.0	Yes	2.673	0.001	n/a	GoodResponse	0	n/a	n/a	8	59	Fixation	AvoidedLoss	False
564.174	0.36	Lose2	0.6833	0.003	Yes	2.673	-0.003	2.0	GoodResponse	0	0.293	563.467	8	59	Target	AvoidedLoss	False
564.467	0.3	Lose2	0.6833	0.003	Yes	2.673	-0.003	2.0	GoodResponse	0	0.293	n/a	8	59	ButtonPress	AvoidedLoss	False
564.541	0.34	Lose2	0.6833	n/a	Yes	2.673	n/a	n/a	GoodResponse	0	n/a	n/a	8	59	Blank	AvoidedLoss	False
564.876	1.45	Lose2	0.6833	n/a	Yes	2.673	n/a	5.0	GoodResponse	0	0.022	563.898	8	59	Feedback	AvoidedLoss	False
566.33	2.673	Lose2	0.6833	n/a	Yes	2.673	n/a	n/a	GoodResponse	0	0.0	n/a	8	59	ISIslide	AvoidedLoss	False
569.021	0.25	Control	0.6884999999999999	0.0	Yes	2.679	0.021	n/a	GoodResponse	0	n/a	n/a	8	60	Cue	Neutral	True
569.272	4.0	Control	0.6884999999999999	0.0	Yes	2.679	0.001	n/a	GoodResponse	0	n/a	n/a	8	60	Fixation	Neutral	True
573.267	0.35	Control	0.6884999999999999	0.004	Yes	2.679	-0.004	2.0	GoodResponse	0	0.195	572.462	8	60	Target	Neutral	True
573.462	0.3	Control	0.6884999999999999	0.004	Yes	2.679	-0.004	2.0	GoodResponse	0	0.195	n/a	8	60	ButtonPress	Neutral	True
573.618	0.35	Control	0.6884999999999999	n/a	Yes	2.679	n/a	n/a	GoodResponse	0	n/a	n/a	8	60	Blank	Neutral	True
573.969	1.45	Control	0.6884999999999999	n/a	Yes	2.679	n/a	5.0	GoodResponse	0	0.002	572.971	8	60	Feedback	Neutral	True
575.424	2.679	Control	0.6884999999999999	n/a	Yes	2.679	n/a	n/a	GoodResponse	0	0.0	n/a	8	60	ISIslide	Neutral	True
578.115	0.25	Lose2	0.6934999999999999	0.0	Yes	2.985	0.015	n/a	GoodResponse	0	n/a	n/a	8	61	Cue	AvoidedLoss	True
578.366	4.0	Lose2	0.6934999999999999	0.0	Yes	2.985	0.001	n/a	GoodResponse	0	n/a	n/a	8	61	Fixation	AvoidedLoss	True
582.361	0.34	Lose2	0.6934999999999999	0.004	Yes	2.985	-0.004	2.0	GoodResponse	0	0.164	581.525	8	61	Target	AvoidedLoss	True
582.525	0.3	Lose2	0.6934999999999999	0.004	Yes	2.985	-0.004	2.0	GoodResponse	0	0.164	n/a	8	61	ButtonPress	AvoidedLoss	True
582.712	0.36	Lose2	0.6934999999999999	n/a	Yes	2.985	n/a	n/a	GoodResponse	0	n/a	n/a	8	61	Blank	AvoidedLoss	True
583.063	1.45	Lose2	0.6934999999999999	n/a	Yes	2.985	n/a	5.0	GoodResponse	0	0.03	582.093	8	61	Feedback	AvoidedLoss	True
584.518	2.985	Lose2	0.6934999999999999	n/a	Yes	2.985	n/a	2.0	GoodResponse	0	1.767	n/a	8	61	ISIslide	AvoidedLoss	True
587.51	0.25	Lose2	0.6984	0.0	Yes	2.89	0.01	n/a	GoodResponse	0	n/a	n/a	8	62	Cue	AvoidedLoss	False
587.761	3.9	Lose2	0.6984	0.0	Yes	2.89	0.001	2.0	GoodResponse	0	2.733	589.494	8	62	Fixation	AvoidedLoss	False
590.494	0.3	Lose2	0.6984	0.0	Yes	2.89	0.001	2.0	GoodResponse	0	2.733	n/a	8	62	ButtonPress	AvoidedLoss	False
591.656	0.33	Lose2	0.6984	0.004	Yes	2.89	-0.004	2.0	GoodResponse	0	0.206	590.862	8	62	Target	AvoidedLoss	False
591.862	0.3	Lose2	0.6984	0.004	Yes	2.89	-0.004	2.0	GoodResponse	0	0.206	n/a	8	62	ButtonPress	AvoidedLoss	False
591.99	0.37	Lose2	0.6984	n/a	Yes	2.89	n/a	n/a	GoodResponse	0	n/a	n/a	8	62	Blank	AvoidedLoss	False
592.358	1.45	Lose2	0.6984	n/a	Yes	2.89	n/a	5.0	GoodResponse	0	0.007	591.365	8	62	Feedback	AvoidedLoss	False
593.812	2.89	Lose2	0.6984	n/a	Yes	2.89	n/a	n/a	GoodResponse	0	0.0	n/a	8	62	ISIslide	AvoidedLoss	False
596.721	0.25	Lose2	0.7031000000000001	0.0	Yes	2.629	0.021	n/a	GoodResponse	0	n/a	n/a	8	63	Cue	AvoidedLoss	True
596.972	4.05	Lose2	0.7031000000000001	0.0	Yes	2.629	0.001	n/a	GoodResponse	0	n/a	n/a	8	63	Fixation	AvoidedLoss	True
601.017	0.32	Lose2	0.7031000000000001	0.004	Yes	2.629	-0.004	2.0	GoodResponse	0	0.17	600.187	8	63	Target	AvoidedLoss	True
601.187	0.3	Lose2	0.7031000000000001	0.004	Yes	2.629	-0.004	2.0	GoodResponse	0	0.17	n/a	8	63	ButtonPress	AvoidedLoss	True
601.351	0.38	Lose2	0.7031000000000001	n/a	Yes	2.629	n/a	n/a	GoodResponse	0	n/a	n/a	8	63	Blank	AvoidedLoss	True
601.719	1.45	Lose2	0.7031000000000001	n/a	Yes	2.629	n/a	5.0	GoodResponse	0	0.007	600.726	8	63	Feedback	AvoidedLoss	True
603.174	2.629	Lose2	0.7031000000000001	n/a	Yes	2.629	n/a	n/a	GoodResponse	0	0.0	n/a	8	63	ISIslide	AvoidedLoss	True
605.815	0.25	Win2	0.7077	0.0	Yes	3.135	0.015	n/a	GoodResponse	1	n/a	n/a	9	64	Cue	Win	False
606.066	4.15	Win2	0.7077	0.0	Yes	3.135	0.001	2.0	GoodResponse	1	3.195	608.261	9	64	Fixation	Win	False
609.261	0.3	Win2	0.7077	0.0	Yes	3.135	0.001	2.0	GoodResponse	1	3.195	n/a	9	64	ButtonPress	Win	False
610.211	0.31	Win2	0.7077	0.004	Yes	3.135	-0.004	2.0	GoodResponse	1	0.203	609.414	9	64	Target	Win	False
610.414	0.3	Win2	0.7077	0.004	Yes	3.135	-0.004	2.0	GoodResponse	1	0.203	n/a	9	64	ButtonPress	Win	False
610.529	0.39	Win2	0.7077	n/a	Yes	3.135	n/a	n/a	GoodResponse	1	n/a	n/a	9	64	Blank	Win	False
610.913	1.45	Win2	0.7077	n/a	Yes	3.135	n/a	5.0	GoodResponse	1	0.033	609.946	9	64	Feedback	Win	False
612.368	3.135	Win2	0.7077	n/a	Yes	3.135	n/a	n/a	GoodResponse	1	0.0	n/a	9	64	ISIslide	Win	False
615.527	0.25	Control	0.7121	0.0	Yes	2.773	0.027	n/a	GoodResponse	0	n/a	n/a	9	65	Cue	Neutral	True
615.778	4.0	Control	0.7121	0.0	Yes	2.773	0.001	n/a	GoodResponse	0	n/a	n/a	9	65	Fixation	Neutral	True
619.773	0.3	Control	0.7121	0.004	Yes	2.773	-0.004	2.0	GoodResponse	0	0.219	618.992	9	65	Target	Neutral	True
619.992	0.3	Control	0.7121	0.004	Yes	2.773	-0.004	2.0	GoodResponse	0	0.219	n/a	9	65	ButtonPress	Neutral	True
620.074	0.4	Control	0.7121	n/a	Yes	2.773	n/a	n/a	GoodResponse	0	n/a	n/a	9	65	Blank	Neutral	True
620.475	1.45	Control	0.7121	n/a	Yes	2.773	n/a	5.0	GoodResponse	0	0.032	619.507	9	65	Feedback	Neutral	True
621.93	2.773	Control	0.7121	n/a	Yes	2.773	n/a	n/a	GoodResponse	0	0.0	n/a	9	65	ISIslide	Neutral	True
624.721	0.25	Win2	0.7164	0.0	Yes	2.779	0.021	n/a	GoodResponse	1	n/a	n/a	10	66	Cue	Win	True
624.972	3.9	Win2	0.7164	0.0	Yes	2.779	0.001	n/a	GoodResponse	1	n/a	n/a	10	66	Fixation	Win	True
628.867	0.29	Win2	0.7164	0.004	Yes	2.779	-0.004	2.0	GoodResponse	1	0.224	628.091	10	66	Target	Win	True
629.091	0.3	Win2	0.7164	0.004	Yes	2.779	-0.004	2.0	GoodResponse	1	0.224	n/a	10	66	ButtonPress	Win	True
629.168	0.41	Win2	0.7164	n/a	Yes	2.779	n/a	n/a	GoodResponse	1	n/a	n/a	10	66	Blank	Win	True
629.569	1.45	Win2	0.7164	n/a	Yes	2.779	n/a	5.0	GoodResponse	1	0.011	628.58	10	66	Feedback	Win	True
631.024	2.779	Win2	0.7164	n/a	Yes	2.779	n/a	n/a	GoodResponse	1	0.0	n/a	10	66	ISIslide	Win	True
633.815	0.25	Control	0.7206	0.0	Yes	2.735	0.015	n/a	GoodResponse	0	n/a	n/a	10	67	Cue	Neutral	True
634.066	3.95	Control	0.7206	0.0	Yes	2.735	0.001	n/a	GoodResponse	0	n/a	n/a	10	67	Fixation	Neutral	True
638.011	0.28	Control	0.7206	0.004	Yes	2.735	-0.004	2.0	GoodResponse	0	0.268	637.279	10	67	Target	Neutral	True
638.279	0.3	Control	0.7206	0.004	Yes	2.735	-0.004	2.0	GoodResponse	0	0.268	n/a	10	67	ButtonPress	Neutral	True
638.295	0.42	Control	0.7206	n/a	Yes	2.735	n/a	n/a	GoodResponse	0	n/a	n/a	10	67	Blank	Neutral	True
638.713	1.45	Control	0.7206	n/a	Yes	2.735	n/a	5.0	GoodResponse	0	0.038	637.751	10	67	Feedback	Neutral	True
640.168	2.735	Control	0.7206	n/a	Yes	2.735	n/a	n/a	GoodResponse	0	0.0	n/a	10	67	ISIslide	Neutral	True
642.926	0.25	Win2	0.7101000000000001	0.0	No	3.074	0.026	n/a	NoResponse	0	n/a	n/a	10	68	Cue	MissedWin	False
643.177	4.0	Win2	0.7101000000000001	0.0	No	3.074	0.001	n/a	NoResponse	0	n/a	n/a	10	68	Fixation	MissedWin	False
647.172	0.27	Win2	0.7101000000000001	0.004	No	3.074	-0.004	n/a	NoResponse	0	n/a	n/a	10	68	Target	MissedWin	False
647.456	0.43	Win2	0.7101000000000001	n/a	No	3.074	n/a	n/a	NoResponse	0	n/a	n/a	10	68	Blank	MissedWin	False
647.874	1.45	Win2	0.7101000000000001	n/a	No	3.074	n/a	5.0	NoResponse	0	0.047	646.921	10	68	Feedback	MissedWin	False
649.328	3.074	Win2	0.7101000000000001	n/a	No	3.074	n/a	n/a	NoResponse	0	0.0	n/a	10	68	ISIslide	MissedWin	False
652.421	0.25	Win2	0.7143	0.0	Yes	3.229	0.021	n/a	GoodResponse	1	n/a	n/a	11	69	Cue	Win	True
652.672	3.95	Win2	0.7143	0.0	Yes	3.229	0.001	n/a	GoodResponse	1	n/a	n/a	11	69	Fixation	Win	True
656.617	0.26	Win2	0.7143	0.004	Yes	3.229	-0.004	2.0	GoodResponse	1	0.206	655.823	11	69	Target	Win	True
656.823	0.3	Win2	0.7143	0.004	Yes	3.229	-0.004	2.0	GoodResponse	1	0.206	n/a	11	69	ButtonPress	Win	True
656.884	0.44	Win2	0.7143	n/a	Yes	3.229	n/a	n/a	GoodResponse	1	n/a	n/a	11	69	Blank	Win	True
657.319	1.45	Win2	0.7143	n/a	Yes	3.229	n/a	5.0	GoodResponse	1	0.017	656.336	11	69	Feedback	Win	True
658.773	3.229	Win2	0.7143	n/a	Yes	3.229	n/a	n/a	GoodResponse	1	0.0	n/a	11	69	ISIslide	Win	True
662.016	0.25	Lose2	0.7182999999999999	0.0	Yes	3.034	0.016	n/a	GoodResponse	0	n/a	n/a	11	70	Cue	AvoidedLoss	True
662.267	4.05	Lose2	0.7182999999999999	0.0	Yes	3.034	0.001	n/a	GoodResponse	0	n/a	n/a	11	70	Fixation	AvoidedLoss	True
666.313	0.25	Lose2	0.7182999999999999	0.003	Yes	3.034	-0.003	2.0	GoodResponse	0	0.179	665.492	11	70	Target	AvoidedLoss	True
666.492	0.3	Lose2	0.7182999999999999	0.003	Yes	3.034	-0.003	2.0	GoodResponse	0	0.179	n/a	11	70	ButtonPress	AvoidedLoss	True
666.563	0.45	Lose2	0.7182999999999999	n/a	Yes	3.034	n/a	n/a	GoodResponse	0	n/a	n/a	11	70	Blank	AvoidedLoss	True
667.015	1.45	Lose2	0.7182999999999999	n/a	Yes	3.034	n/a	5.0	GoodResponse	0	0.028	666.043	11	70	Feedback	AvoidedLoss	True
668.469	3.034	Lose2	0.7182999999999999	n/a	Yes	3.034	n/a	n/a	GoodResponse	0	0.0	n/a	11	70	ISIslide	AvoidedLoss	True
671.528	0.25	Win2	0.7222	0.0	Yes	2.722	0.028	n/a	GoodResponse	1	n/a	n/a	12	71	Cue	Win	True
671.779	4.05	Win2	0.7222	0.0	Yes	2.722	0.001	n/a	GoodResponse	1	n/a	n/a	12	71	Fixation	Win	True
675.824	0.24	Win2	0.7222	0.004	Yes	2.722	-0.004	2.0	GoodResponse	1	0.211	675.035	12	71	Target	Win	True
676.035	0.3	Win2	0.7222	0.004	Yes	2.722	-0.004	2.0	GoodResponse	1	0.211	n/a	12	71	ButtonPress	Win	True
676.075	0.46	Win2	0.7222	n/a	Yes	2.722	n/a	n/a	GoodResponse	1	n/a	n/a	12	71	Blank	Win	True
676.526	1.45	Win2	0.7222	n/a	Yes	2.722	n/a	5.0	GoodResponse	1	0.029	675.555	12	71	Feedback	Win	True
677.981	2.722	Win2	0.7222	n/a	Yes	2.722	n/a	n/a	GoodResponse	1	0.0	n/a	12	71	ISIslide	Win	True
680.722	0.25	Win2	0.726	0.0	Yes	2.778	0.022	n/a	GoodResponse	1	n/a	n/a	13	72	Cue	Win	True
680.973	4.1	Win2	0.726	0.0	Yes	2.778	0.001	n/a	GoodResponse	1	n/a	n/a	13	72	Fixation	Win	True
685.069	0.23	Win2	0.726	0.003	Yes	2.778	-0.003	2.0	GoodResponse	1	0.187	684.256	13	72	Target	Win	True
685.256	0.3	Win2	0.726	0.003	Yes	2.778	-0.003	2.0	GoodResponse	1	0.187	n/a	13	72	ButtonPress	Win	True
685.303	0.47	Win2	0.726	n/a	Yes	2.778	n/a	n/a	GoodResponse	1	n/a	n/a	13	72	Blank	Win	True
685.771	1.45	Win2	0.726	n/a	Yes	2.778	n/a	5.0	GoodResponse	1	0.006	684.777	13	72	Feedback	Win	True
687.225	2.778	Win2	0.726	n/a	Yes	2.778	n/a	n/a	GoodResponse	1	0.0	n/a	13	72	ISIslide	Win	True
690.017	0.25	Win2	0.7162000000000001	0.0	No	2.683	0.017	n/a	NoResponse	0	n/a	n/a	13	73	Cue	MissedWin	True
690.268	4.0	Win2	0.7162000000000001	0.0	No	2.683	0.001	n/a	NoResponse	0	n/a	n/a	13	73	Fixation	MissedWin	True
694.263	0.22	Win2	0.7162000000000001	0.004	No	2.683	-0.004	2.0	NoResponse	0	0.277	693.54	13	73	Target	MissedWin	True
694.497	0.48	Win2	0.7162000000000001	n/a	No	2.683	n/a	n/a	NoResponse	0	n/a	n/a	13	73	Blank	MissedWin	True
694.54	0.3	Win2	0.7162000000000001	0.004	No	2.683	-0.004	2.0	NoResponse	0	0.277	n/a	13	73	ButtonPress	MissedWin	True
694.965	1.45	Win2	0.7162000000000001	n/a	No	2.683	n/a	5.0	NoResponse	0	0.028	693.993	13	73	Feedback	MissedWin	True
696.419	2.683	Win2	0.7162000000000001	n/a	No	2.683	n/a	n/a	NoResponse	0	0.0	n/a	13	73	ISIslide	MissedWin	True
699.127	0.25	Lose2	0.7067	0.001	No	2.623	0.027	n/a	NoResponse	-1	n/a	n/a	12	74	Cue	Loss	False
699.378	4.05	Lose2	0.7067	0.0	No	2.623	0.001	2.0	NoResponse	-1	3.225	701.603	12	74	Fixation	Loss	False
702.603	0.3	Lose2	0.7067	0.0	No	2.623	0.001	2.0	NoResponse	-1	3.225	n/a	12	74	ButtonPress	Loss	False
703.424	0.21	Lose2	0.7067	0.003	No	2.623	-0.003	2.0	NoResponse	-1	0.265	702.689	12	74	Target	Loss	False
703.641	0.49	Lose2	0.7067	n/a	No	2.623	n/a	n/a	NoResponse	-1	n/a	n/a	12	74	Blank	Loss	False
703.689	0.3	Lose2	0.7067	0.003	No	2.623	-0.003	2.0	NoResponse	-1	0.265	n/a	12	74	ButtonPress	Loss	False
704.126	1.45	Lose2	0.7067	n/a	No	2.623	n/a	5.0	NoResponse	-1	0.038	703.164	12	74	Feedback	Loss	False
705.58	2.623	Lose2	0.7067	n/a	No	2.623	n/a	n/a	NoResponse	-1	0.0	n/a	12	74	ISIslide	Loss	False
708.221	0.25	Lose2	0.6973999999999999	0.0	No	2.929	0.021	n/a	NoResponse	-1	n/a	n/a	11	75	Cue	Loss	True
708.472	3.95	Lose2	0.6973999999999999	0.0	No	2.929	0.001	n/a	NoResponse	-1	n/a	n/a	11	75	Fixation	Loss	True
712.417	0.2	Lose2	0.6973999999999999	0.004	No	2.929	-0.004	2.0	NoResponse	-1	0.217	711.634	11	75	Target	Loss	True
712.618	0.5	Lose2	0.6973999999999999	n/a	No	2.929	n/a	n/a	NoResponse	-1	n/a	n/a	11	75	Blank	Loss	True
712.634	0.3	Lose2	0.6973999999999999	0.004	No	2.929	-0.004	2.0	NoResponse	-1	0.217	n/a	11	75	ButtonPress	Loss	True
713.119	1.45	Lose2	0.6973999999999999	n/a	No	2.929	n/a	5.0	NoResponse	-1	0.021	712.14	11	75	Feedback	Loss	True
714.574	2.929	Lose2	0.6973999999999999	n/a	No	2.929	n/a	n/a	NoResponse	-1	0.0	n/a	11	75	ISIslide	Loss	True
717.516	0.25	Control	0.6883	0.0	No	3.234	0.016	n/a	LatePress	0	n/a	n/a	11	76	Cue	Neutral	False
717.767	4.05	Control	0.6883	0.0	No	3.234	0.001	2.0	LatePress	0	2.252	719.019	11	76	Fixation	Neutral	False
720.019	0.3	Control	0.6883	0.0	No	3.234	0.001	2.0	LatePress	0	2.252	n/a	11	76	ButtonPress	Neutral	False
721.812	0.19	Control	0.6883	0.004	No	3.234	-0.004	2.0	LatePress	0	0.198	721.01	11	76	Target	Neutral	False
722.01	0.3	Control	0.6883	0.004	No	3.234	-0.004	2.0	LatePress	0	0.198	n/a	11	76	ButtonPress	Neutral	False
722.013	0.51	Control	0.6883	n/a	No	3.234	n/a	n/a	LatePress	0	n/a	n/a	11	76	Blank	Neutral	False
722.514	1.45	Control	0.6883	n/a	No	3.234	n/a	5.0	LatePress	0	0.041	721.555	11	76	Feedback	Neutral	False
723.968	3.234	Control	0.6883	n/a	No	3.234	n/a	2.0	LatePress	0	0.751	n/a	11	76	ISIslide	Neutral	False
727.212	0.25	Lose2	0.6795	0.0	No	2.588	0.012	n/a	NoResponse	-1	n/a	n/a	10	77	Cue	Loss	False
727.462	3.95	Lose2	0.6795	0.0	No	2.588	0.0	2.0	NoResponse	-1	1.516	727.978	10	77	Fixation	Loss	False
728.978	0.3	Lose2	0.6795	0.0	No	2.588	0.0	2.0	NoResponse	-1	1.516	n/a	10	77	ButtonPress	Loss	False
731.424	0.18	Lose2	0.6795	0.0	No	2.588	0.012	2.0	NoResponse	-1	0.21	730.634	10	77	Target	Loss	False
731.591	0.52	Lose2	0.6795	n/a	No	2.588	n/a	n/a	NoResponse	-1	n/a	n/a	10	77	Blank	Loss	False
731.634	0.3	Lose2	0.6795	0.0	No	2.588	0.012	2.0	NoResponse	-1	0.21	n/a	10	77	ButtonPress	Loss	False
732.11	1.45	Lose2	0.6795	n/a	No	2.588	n/a	5.0	NoResponse	-1	0.008	731.118	10	77	Feedback	Loss	False
733.564	2.588	Lose2	0.6795	n/a	No	2.588	n/a	n/a	NoResponse	-1	0.0	n/a	10	77	ISIslide	Loss	False
