onset	duration	cue_type	current_mean_accuracy	duration_error	is_hit	isi_adjusted	onset_delay	response	response_type	reward	rt	rt_time	total_reward	trial_number	trial_phase	trial_type	one_press
11.096	0.25	Control	0.0	0.0	No	2.954	-0.004	n/a	NoResponse	0	n/a	n/a	0	0	Cue	Neutral	True
11.347	3.85	Control	0.0	0.0	No	2.954	0.001	n/a	NoResponse	0	n/a	n/a	0	0	Fixation	Neutral	True
15.208	0.4	Control	0.0	0.0	No	2.954	0.012	4.0	NoResponse	0	0.572	14.78	0	0	Target	Neutral	True
15.593	0.3	Control	0.0	n/a	No	2.954	n/a	n/a	NoResponse	0	n/a	n/a	0	0	Blank	Neutral	True
15.78	0.3	Control	0.0	0.0	No	2.954	0.012	4.0	NoResponse	0	0.572	n/a	0	0	ButtonPress	Neutral	True
15.893	1.45	Control	0.0	n/a	No	2.954	n/a	5.0	NoResponse	0	0.033	14.926	0	0	Feedback	Neutral	True
17.348	2.954	Control	0.0	n/a	No	2.954	n/a	n/a	NoResponse	0	0.0	n/a	0	0	ISIslide	Neutral	True
20.323	0.25	Lose2	0.5	0.0	Yes	2.777	0.023	4.0	GoodResponse	0	0.248	19.571	0	1	Cue	AvoidedLoss	False
20.571	0.3	Lose2	0.5	0.0	Yes	2.777	0.023	4.0	GoodResponse	0	0.248	n/a	0	1	ButtonPress	AvoidedLoss	False
20.574	4.0	Lose2	0.5	0.0	Yes	2.777	0.001	4.0	GoodResponse	0	0.94	20.514	0	1	Fixation	AvoidedLoss	False
21.514	0.3	Lose2	0.5	0.0	Yes	2.777	0.001	4.0	GoodResponse	0	0.94	n/a	0	1	ButtonPress	AvoidedLoss	False
24.569	0.41	Lose2	0.5	0.004	Yes	2.777	-0.004	4.0	GoodResponse	0	0.196	23.765	0	1	Target	AvoidedLoss	False
24.765	0.3	Lose2	0.5	0.004	Yes	2.777	-0.004	4.0	GoodResponse	0	0.196	n/a	0	1	ButtonPress	AvoidedLoss	False
24.987	0.29	Lose2	0.5	n/a	Yes	2.777	n/a	n/a	GoodResponse	0	n/a	n/a	0	1	Blank	AvoidedLoss	False
25.271	1.45	Lose2	0.5	n/a	Yes	2.777	n/a	5.0	GoodResponse	0	0.021	24.292	0	1	Feedback	AvoidedLoss	False
26.726	2.777	Lose2	0.5	n/a	Yes	2.777	n/a	n/a	GoodResponse	0	0.0	n/a	0	1	ISIslide	AvoidedLoss	False
29.517	0.25	Control	0.3333	0.001	No	2.583	0.017	n/a	NoResponse	0	n/a	n/a	0	2	Cue	Neutral	True
29.768	4.1	Control	0.3333	0.0	No	2.583	0.001	4.0	NoResponse	0	0.255	29.023	0	2	Fixation	Neutral	True
30.023	0.3	Control	0.3333	0.0	No	2.583	0.001	4.0	NoResponse	0	0.255	n/a	0	2	ButtonPress	Neutral	True
33.864	0.42	Control	0.3333	0.003	No	2.583	-0.003	n/a	NoResponse	0	n/a	n/a	0	2	Target	Neutral	True
34.298	0.28	Control	0.3333	n/a	No	2.583	n/a	n/a	NoResponse	0	n/a	n/a	0	2	Blank	Neutral	True
34.566	1.45	Control	0.3333	n/a	No	2.583	n/a	5.0	NoResponse	0	0.043	33.609	0	2	Feedback	Neutral	True
36.02	2.583	Control	0.3333	n/a	No	2.583	n/a	n/a	NoResponse	0	0.0	n/a	0	2	ISIslide	Neutral	True
38.628	0.25	Win2	0.5	0.0	Yes	2.822	0.028	n/a	GoodResponse	1	n/a	n/a	1	3	Cue	Win	True
38.879	3.95	Win2	0.5	0.0	Yes	2.822	0.001	n/a	GoodResponse	1	n/a	n/a	1	3	Fixation	Win	True
42.824	0.43	Win2	0.5	0.004	Yes	2.822	-0.004	4.0	GoodResponse	1	0.225	42.049	1	3	Target	Win	True
43.049	0.3	Win2	0.5	0.004	Yes	2.822	-0.004	4.0	GoodResponse	1	0.225	n/a	1	3	ButtonPress	Win	True
43.258	0.27	Win2	0.5	n/a	Yes	2.822	n/a	n/a	GoodResponse	1	n/a	n/a	1	3	Blank	Win	True
43.526	1.45	Win2	0.5	n/a	Yes	2.822	n/a	5.0	GoodResponse	1	0.01	42.536	1	3	Feedback	Win	True
44.98	2.822	Win2	0.5	n/a	Yes	2.822	n/a	n/a	GoodResponse	1	0.0	n/a	1	3	ISIslide	Win	True
47.822	0.25	Win2	0.6	0.0	Yes	3.278	0.022	n/a	GoodResponse	1	n/a	n/a	2	4	Cue	Win	True
48.073	4.0	Win2	0.6	0.0	Yes	3.278	0.001	n/a	GoodResponse	1	n/a	n/a	2	4	Fixation	Win	True
52.068	0.44	Win2	0.6	0.004	Yes	3.278	-0.004	4.0	GoodResponse	1	0.211	51.279	2	4	Target	Win	True
52.279	0.3	Win2	0.6	0.004	Yes	3.278	-0.004	4.0	GoodResponse	1	0.211	n/a	2	4	ButtonPress	Win	True
52.519	0.26	Win2	0.6	n/a	Yes	3.278	n/a	n/a	GoodResponse	1	n/a	n/a	2	4	Blank	Win	True
52.77	1.45	Win2	0.6	n/a	Yes	3.278	n/a	5.0	GoodResponse	1	0.034	51.804	2	4	Feedback	Win	True
54.225	3.278	Win2	0.6	n/a	Yes	3.278	n/a	n/a	GoodResponse	1	0.0	n/a	2	4	ISIslide	Win	True
57.518	0.25	Win2	0.6667000000000001	0.0	Yes	2.782	0.018	n/a	GoodResponse	1	n/a	n/a	3	5	Cue	Win	True
57.768	4.0	Win2	0.6667000000000001	0.001	Yes	2.782	0.0	n/a	GoodResponse	1	n/a	n/a	3	5	Fixation	Win	True
61.764	0.45	Win2	0.6667000000000001	0.004	Yes	2.782	-0.004	4.0	GoodResponse	1	0.25	61.014	3	5	Target	Win	True
62.014	0.3	Win2	0.6667000000000001	0.004	Yes	2.782	-0.004	4.0	GoodResponse	1	0.25	n/a	3	5	ButtonPress	Win	True
62.215	0.25	Win2	0.6667000000000001	n/a	Yes	2.782	n/a	n/a	GoodResponse	1	n/a	n/a	3	5	Blank	Win	True
62.466	1.45	Win2	0.6667000000000001	n/a	Yes	2.782	n/a	5.0	GoodResponse	1	0.045	61.511	3	5	Feedback	Win	True
63.92	2.782	Win2	0.6667000000000001	n/a	Yes	2.782	n/a	n/a	GoodResponse	1	0.0	n/a	3	5	ISIslide	Win	True
66.729	0.25	Lose2	0.7143	0.0	Yes	2.721	0.029	n/a	GoodResponse	0	n/a	n/a	3	6	Cue	AvoidedLoss	True
66.979	3.95	Lose2	0.7143	0.0	Yes	2.721	0.0	n/a	GoodResponse	0	n/a	n/a	3	6	Fixation	AvoidedLoss	True
70.924	0.44	Lose2	0.7143	0.005	Yes	2.721	-0.005	4.0	GoodResponse	0	0.179	70.103	3	6	Target	AvoidedLoss	True
71.103	0.3	Lose2	0.7143	0.005	Yes	2.721	-0.005	4.0	GoodResponse	0	0.179	n/a	3	6	ButtonPress	AvoidedLoss	True
71.376	0.26	Lose2	0.7143	n/a	Yes	2.721	n/a	n/a	GoodResponse	0	n/a	n/a	3	6	Blank	AvoidedLoss	True
71.627	1.45	Lose2	0.7143	n/a	Yes	2.721	n/a	5.0	GoodResponse	0	0.006	70.633	3	6	Feedback	AvoidedLoss	True
73.081	2.721	Lose2	0.7143	n/a	Yes	2.721	n/a	n/a	GoodResponse	0	0.0	n/a	3	6	ISIslide	AvoidedLoss	True
75.822	0.25	Lose2	0.75	0.001	Yes	4.028	0.022	n/a	GoodResponse	0	n/a	n/a	3	7	Cue	AvoidedLoss	True
76.073	4.05	Lose2	0.75	0.0	Yes	4.028	0.001	n/a	GoodResponse	0	n/a	n/a	3	7	Fixation	AvoidedLoss	True
80.119	0.43	Lose2	0.75	0.003	Yes	4.028	-0.003	4.0	GoodResponse	0	0.194	79.313	3	7	Target	AvoidedLoss	True
80.313	0.3	Lose2	0.75	0.003	Yes	4.028	-0.003	4.0	GoodResponse	0	0.194	n/a	3	7	ButtonPress	AvoidedLoss	True
80.553	0.27	Lose2	0.75	n/a	Yes	4.028	n/a	n/a	GoodResponse	0	n/a	n/a	3	7	Blank	AvoidedLoss	True
80.821	1.45	Lose2	0.75	n/a	Yes	4.028	n/a	5.0	GoodResponse	0	0.032	79.853	3	7	Feedback	AvoidedLoss	True
82.275	4.028	Lose2	0.75	n/a	Yes	4.028	n/a	n/a	GoodResponse	0	0.0	n/a	3	7	ISIslide	AvoidedLoss	True
86.32	0.25	Lose2	0.7778	0.001	Yes	3.03	0.02	n/a	GoodResponse	0	n/a	n/a	3	8	Cue	AvoidedLoss	True
86.571	3.95	Lose2	0.7778	0.0	Yes	3.03	0.001	n/a	GoodResponse	0	n/a	n/a	3	8	Fixation	AvoidedLoss	True
90.516	0.42	Lose2	0.7778	0.004	Yes	3.03	-0.004	4.0	GoodResponse	0	0.242	89.758	3	8	Target	AvoidedLoss	True
90.758	0.3	Lose2	0.7778	0.004	Yes	3.03	-0.004	4.0	GoodResponse	0	0.242	n/a	3	8	ButtonPress	AvoidedLoss	True
90.951	0.28	Lose2	0.7778	n/a	Yes	3.03	n/a	n/a	GoodResponse	0	n/a	n/a	3	8	Blank	AvoidedLoss	True
91.218	1.45	Lose2	0.7778	n/a	Yes	3.03	n/a	5.0	GoodResponse	0	0.024	90.242	3	8	Feedback	AvoidedLoss	True
92.673	3.03	Lose2	0.7778	n/a	Yes	3.03	n/a	n/a	GoodResponse	0	0.0	n/a	3	8	ISIslide	AvoidedLoss	True
95.715	0.25	Lose2	0.8	0.0	Yes	3.135	0.015	n/a	GoodResponse	0	n/a	n/a	3	9	Cue	AvoidedLoss	True
95.966	3.95	Lose2	0.8	0.0	Yes	3.135	0.001	n/a	GoodResponse	0	n/a	n/a	3	9	Fixation	AvoidedLoss	True
99.911	0.41	Lose2	0.8	0.004	Yes	3.135	-0.004	4.0	GoodResponse	0	0.248	99.159	3	9	Target	AvoidedLoss	True
100.159	0.3	Lose2	0.8	0.004	Yes	3.135	-0.004	4.0	GoodResponse	0	0.248	n/a	3	9	ButtonPress	AvoidedLoss	True
100.329	0.29	Lose2	0.8	n/a	Yes	3.135	n/a	n/a	GoodResponse	0	n/a	n/a	3	9	Blank	AvoidedLoss	True
100.613	1.45	Lose2	0.8	n/a	Yes	3.135	n/a	5.0	GoodResponse	0	0.044	99.657	3	9	Feedback	AvoidedLoss	True
102.067	3.135	Lose2	0.8	n/a	Yes	3.135	n/a	n/a	GoodResponse	0	0.0	n/a	3	9	ISIslide	AvoidedLoss	True
105.227	0.25	Control	0.7273000000000001	0.0	No	3.273	0.027	n/a	NoResponse	0	n/a	n/a	3	10	Cue	Neutral	False
105.478	4.0	Control	0.7273000000000001	0.0	No	3.273	0.001	n/a	NoResponse	0	n/a	n/a	3	10	Fixation	Neutral	False
109.473	0.4	Control	0.7273000000000001	0.004	No	3.273	-0.004	n/a	NoResponse	0	n/a	n/a	3	10	Target	Neutral	False
109.874	0.3	Control	0.7273000000000001	n/a	No	3.273	n/a	n/a	NoResponse	0	n/a	n/a	3	10	Blank	Neutral	False
110.175	1.45	Control	0.7273000000000001	n/a	No	3.273	n/a	5.0	NoResponse	0	0.043	109.218	3	10	Feedback	Neutral	False
111.629	3.273	Control	0.7273000000000001	n/a	No	3.273	n/a	n/a	NoResponse	0	0.0	n/a	3	10	ISIslide	Neutral	False
114.923	0.25	Lose2	0.75	0.0	Yes	2.727	0.023	n/a	GoodResponse	0	n/a	n/a	3	11	Cue	AvoidedLoss	True
115.173	4.05	Lose2	0.75	0.0	Yes	2.727	0.0	n/a	GoodResponse	0	n/a	n/a	3	11	Fixation	AvoidedLoss	True
119.219	0.39	Lose2	0.75	0.004	Yes	2.727	-0.004	4.0	GoodResponse	0	0.235	118.454	3	11	Target	AvoidedLoss	True
119.454	0.3	Lose2	0.75	0.004	Yes	2.727	-0.004	4.0	GoodResponse	0	0.235	n/a	3	11	ButtonPress	AvoidedLoss	True
119.62	0.31	Lose2	0.75	n/a	Yes	2.727	n/a	n/a	GoodResponse	0	n/a	n/a	3	11	Blank	AvoidedLoss	True
119.921	1.45	Lose2	0.75	n/a	Yes	2.727	n/a	5.0	GoodResponse	0	0.005	118.926	3	11	Feedback	AvoidedLoss	True
121.375	2.727	Lose2	0.75	n/a	Yes	2.727	n/a	n/a	GoodResponse	0	0.0	n/a	3	11	ISIslide	AvoidedLoss	True
124.117	0.25	Control	0.6923	0.0	No	2.983	0.017	n/a	NoResponse	0	n/a	n/a	3	12	Cue	Neutral	False
124.367	3.9	Control	0.6923	0.001	No	2.983	0.0	n/a	NoResponse	0	n/a	n/a	3	12	Fixation	Neutral	False
128.279	0.38	Control	0.6923	0.0	No	2.983	0.012	n/a	NoResponse	0	n/a	n/a	3	12	Target	Neutral	False
128.647	0.32	Control	0.6923	n/a	No	2.983	n/a	n/a	NoResponse	0	n/a	n/a	3	12	Blank	Neutral	False
128.964	1.45	Control	0.6923	n/a	No	2.983	n/a	5.0	NoResponse	0	0.033	127.997	3	12	Feedback	Neutral	False
130.419	2.983	Control	0.6923	n/a	No	2.983	n/a	n/a	NoResponse	0	0.0	n/a	3	12	ISIslide	Neutral	False
133.428	0.25	Control	0.6429	0.0	No	2.772	0.028	n/a	NoResponse	0	n/a	n/a	3	13	Cue	Neutral	False
133.679	4.0	Control	0.6429	0.0	No	2.772	0.001	n/a	NoResponse	0	n/a	n/a	3	13	Fixation	Neutral	False
137.674	0.37	Control	0.6429	0.004	No	2.772	-0.004	n/a	NoResponse	0	n/a	n/a	3	13	Target	Neutral	False
138.058	0.33	Control	0.6429	n/a	No	2.772	n/a	n/a	NoResponse	0	n/a	n/a	3	13	Blank	Neutral	False
138.376	1.45	Control	0.6429	n/a	No	2.772	n/a	5.0	NoResponse	0	0.036	137.412	3	13	Feedback	Neutral	False
139.83	2.772	Control	0.6429	n/a	No	2.772	n/a	n/a	NoResponse	0	0.0	n/a	3	13	ISIslide	Neutral	False
142.622	0.25	Win2	0.6667000000000001	0.0	Yes	2.678	0.022	n/a	GoodResponse	1	n/a	n/a	4	14	Cue	Win	True
142.873	4.1	Win2	0.6667000000000001	0.0	Yes	2.678	0.001	n/a	GoodResponse	1	n/a	n/a	4	14	Fixation	Win	True
146.968	0.38	Win2	0.6667000000000001	0.004	Yes	2.678	-0.004	4.0	GoodResponse	1	0.212	146.18	4	14	Target	Win	True
147.18	0.3	Win2	0.6667000000000001	0.004	Yes	2.678	-0.004	4.0	GoodResponse	1	0.212	n/a	4	14	ButtonPress	Win	True
147.353	0.32	Win2	0.6667000000000001	n/a	Yes	2.678	n/a	n/a	GoodResponse	1	n/a	n/a	4	14	Blank	Win	True
147.67	1.45	Win2	0.6667000000000001	n/a	Yes	2.678	n/a	5.0	GoodResponse	1	0.011	146.681	4	14	Feedback	Win	True
149.125	2.678	Win2	0.6667000000000001	n/a	Yes	2.678	n/a	n/a	GoodResponse	1	0.0	n/a	4	14	ISIslide	Win	True
151.816	0.25	Control	0.625	0.0	No	2.984	0.016	n/a	NoResponse	0	n/a	n/a	4	15	Cue	Neutral	False
152.067	4.0	Control	0.625	0.0	No	2.984	0.001	n/a	NoResponse	0	n/a	n/a	4	15	Fixation	Neutral	False
156.062	0.37	Control	0.625	0.004	No	2.984	-0.004	n/a	NoResponse	0	n/a	n/a	4	15	Target	Neutral	False
156.447	0.33	Control	0.625	n/a	No	2.984	n/a	n/a	NoResponse	0	n/a	n/a	4	15	Blank	Neutral	False
156.764	1.45	Control	0.625	n/a	No	2.984	n/a	5.0	NoResponse	0	0.038	155.802	4	15	Feedback	Neutral	False
158.218	2.984	Control	0.625	n/a	No	2.984	n/a	n/a	NoResponse	0	0.0	n/a	4	15	ISIslide	Neutral	False
161.227	0.25	Win2	0.6470999999999999	0.001	Yes	2.873	0.027	n/a	GoodResponse	1	n/a	n/a	5	16	Cue	Win	True
161.478	4.0	Win2	0.6470999999999999	0.0	Yes	2.873	0.001	n/a	GoodResponse	1	n/a	n/a	5	16	Fixation	Win	True
165.473	0.38	Win2	0.6470999999999999	0.004	Yes	2.873	-0.004	4.0	GoodResponse	1	0.253	164.726	5	16	Target	Win	True
165.726	0.3	Win2	0.6470999999999999	0.004	Yes	2.873	-0.004	4.0	GoodResponse	1	0.253	n/a	5	16	ButtonPress	Win	True
165.858	0.32	Win2	0.6470999999999999	n/a	Yes	2.873	n/a	n/a	GoodResponse	1	n/a	n/a	5	16	Blank	Win	True
166.176	1.45	Win2	0.6470999999999999	n/a	Yes	2.873	n/a	5.0	GoodResponse	1	0.04	165.216	5	16	Feedback	Win	True
167.63	2.873	Win2	0.6470999999999999	n/a	Yes	2.873	n/a	n/a	GoodResponse	1	0.0	n/a	5	16	ISIslide	Win	True
170.522	0.25	Lose2	0.6667000000000001	0.0	Yes	2.728	0.022	n/a	GoodResponse	0	n/a	n/a	5	17	Cue	AvoidedLoss	True
170.773	3.95	Lose2	0.6667000000000001	0.0	Yes	2.728	0.001	n/a	GoodResponse	0	n/a	n/a	5	17	Fixation	AvoidedLoss	True
174.718	0.39	Lose2	0.6667000000000001	0.004	Yes	2.728	-0.004	4.0	GoodResponse	0	0.212	173.93	5	17	Target	AvoidedLoss	True
174.93	0.3	Lose2	0.6667000000000001	0.004	Yes	2.728	-0.004	4.0	GoodResponse	0	0.212	n/a	5	17	ButtonPress	AvoidedLoss	True
175.119	0.31	Lose2	0.6667000000000001	n/a	Yes	2.728	n/a	n/a	GoodResponse	0	n/a	n/a	5	17	Blank	AvoidedLoss	True
175.42	1.45	Lose2	0.6667000000000001	n/a	Yes	2.728	n/a	5.0	GoodResponse	0	0.016	174.436	5	17	Feedback	AvoidedLoss	True
176.874	2.728	Lose2	0.6667000000000001	n/a	Yes	2.728	n/a	n/a	GoodResponse	0	0.0	n/a	5	17	ISIslide	AvoidedLoss	True
179.616	0.25	Lose2	0.6842	0.0	Yes	2.734	0.016	n/a	GoodResponse	0	n/a	n/a	5	18	Cue	AvoidedLoss	True
179.866	4.05	Lose2	0.6842	0.001	Yes	2.734	0.0	n/a	GoodResponse	0	n/a	n/a	5	18	Fixation	AvoidedLoss	True
183.912	0.38	Lose2	0.6842	0.004	Yes	2.734	-0.004	4.0	GoodResponse	0	0.257	183.169	5	18	Target	AvoidedLoss	True
184.169	0.3	Lose2	0.6842	0.004	Yes	2.734	-0.004	4.0	GoodResponse	0	0.257	n/a	5	18	ButtonPress	AvoidedLoss	True
184.296	0.32	Lose2	0.6842	n/a	Yes	2.734	n/a	n/a	GoodResponse	0	n/a	n/a	5	18	Blank	AvoidedLoss	True
184.614	1.45	Lose2	0.6842	n/a	Yes	2.734	n/a	5.0	GoodResponse	0	0.042	183.656	5	18	Feedback	AvoidedLoss	True
186.068	2.734	Lose2	0.6842	n/a	Yes	2.734	n/a	n/a	GoodResponse	0	0.0	n/a	5	18	ISIslide	AvoidedLoss	True
188.827	0.25	Control	0.65	0.0	No	2.923	0.027	n/a	NoResponse	0	n/a	n/a	5	19	Cue	Neutral	False
189.077	3.95	Control	0.65	0.0	No	2.923	0.0	n/a	NoResponse	0	n/a	n/a	5	19	Fixation	Neutral	False
193.039	0.37	Control	0.65	0.0	No	2.923	0.012	n/a	NoResponse	0	n/a	n/a	5	19	Target	Neutral	False
193.407	0.33	Control	0.65	n/a	No	2.923	n/a	n/a	NoResponse	0	n/a	n/a	5	19	Blank	Neutral	False
193.725	1.45	Control	0.65	n/a	No	2.923	n/a	5.0	NoResponse	0	0.005	192.73	5	19	Feedback	Neutral	False
195.179	2.923	Control	0.65	n/a	No	2.923	n/a	n/a	NoResponse	0	0.0	n/a	5	19	ISIslide	Neutral	False
198.121	0.25	Control	0.619	0.0	No	2.629	0.021	n/a	NoResponse	0	n/a	n/a	5	20	Cue	Neutral	False
198.372	4.05	Control	0.619	0.0	No	2.629	0.001	n/a	NoResponse	0	n/a	n/a	5	20	Fixation	Neutral	False
202.417	0.38	Control	0.619	0.004	No	2.629	-0.004	n/a	NoResponse	0	n/a	n/a	5	20	Target	Neutral	False
202.802	0.32	Control	0.619	n/a	No	2.629	n/a	n/a	NoResponse	0	n/a	n/a	5	20	Blank	Neutral	False
203.119	1.45	Control	0.619	n/a	No	2.629	n/a	5.0	NoResponse	0	0.024	202.143	5	20	Feedback	Neutral	False
204.574	2.629	Control	0.619	n/a	No	2.629	n/a	n/a	NoResponse	0	0.0	n/a	5	20	ISIslide	Neutral	False
207.215	0.25	Control	0.5909	0.0	No	2.785	0.015	n/a	NoResponse	0	n/a	n/a	5	21	Cue	Neutral	False
207.466	4.1	Control	0.5909	0.0	No	2.785	0.001	n/a	NoResponse	0	n/a	n/a	5	21	Fixation	Neutral	False
211.561	0.39	Control	0.5909	0.004	No	2.785	-0.004	n/a	NoResponse	0	n/a	n/a	5	21	Target	Neutral	False
211.962	0.31	Control	0.5909	n/a	No	2.785	n/a	n/a	NoResponse	0	n/a	n/a	5	21	Blank	Neutral	False
212.263	1.45	Control	0.5909	n/a	No	2.785	n/a	5.0	NoResponse	0	0.002	211.265	5	21	Feedback	Neutral	False
213.718	2.785	Control	0.5909	n/a	No	2.785	n/a	n/a	NoResponse	0	0.0	n/a	5	21	ISIslide	Neutral	False
216.526	0.25	Control	0.5652	0.0	No	2.774	0.026	n/a	NoResponse	0	n/a	n/a	5	22	Cue	Neutral	False
216.777	4.0	Control	0.5652	0.0	No	2.774	0.001	n/a	NoResponse	0	n/a	n/a	5	22	Fixation	Neutral	False
220.772	0.4	Control	0.5652	0.004	No	2.774	-0.004	n/a	NoResponse	0	n/a	n/a	5	22	Target	Neutral	False
221.173	0.3	Control	0.5652	n/a	No	2.774	n/a	n/a	NoResponse	0	n/a	n/a	5	22	Blank	Neutral	False
221.474	1.45	Control	0.5652	n/a	No	2.774	n/a	5.0	NoResponse	0	0.01	220.484	5	22	Feedback	Neutral	False
222.928	2.774	Control	0.5652	n/a	No	2.774	n/a	n/a	NoResponse	0	0.0	n/a	5	22	ISIslide	Neutral	False
225.72	0.25	Control	0.5417000000000001	0.0	No	2.78	0.02	n/a	NoResponse	0	n/a	n/a	5	23	Cue	Neutral	False
225.971	3.9	Control	0.5417000000000001	0.0	No	2.78	0.001	n/a	NoResponse	0	n/a	n/a	5	23	Fixation	Neutral	False
229.866	0.41	Control	0.5417000000000001	0.004	No	2.78	-0.004	n/a	NoResponse	0	n/a	n/a	5	23	Target	Neutral	False
230.284	0.29	Control	0.5417000000000001	n/a	No	2.78	n/a	n/a	NoResponse	0	n/a	n/a	5	23	Blank	Neutral	False
230.568	1.45	Control	0.5417000000000001	n/a	No	2.78	n/a	5.0	NoResponse	0	0.038	229.606	5	23	Feedback	Neutral	False
232.022	2.78	Control	0.5417000000000001	n/a	No	2.78	n/a	n/a	NoResponse	0	0.0	n/a	5	23	ISIslide	Neutral	False
234.814	0.25	Win2	0.56	0.0	Yes	3.136	0.014	n/a	GoodResponse	1	n/a	n/a	6	24	Cue	Win	False
235.065	3.95	Win2	0.56	0.0	Yes	3.136	0.001	4.0	GoodResponse	1	0.1	234.165	6	24	Fixation	Win	False
235.165	0.3	Win2	0.56	0.0	Yes	3.136	0.001	4.0	GoodResponse	1	0.1	n/a	6	24	ButtonPress	Win	False
239.01	0.42	Win2	0.56	0.004	Yes	3.136	-0.004	4.0	GoodResponse	1	0.239	238.249	6	24	Target	Win	False
239.249	0.3	Win2	0.56	0.004	Yes	3.136	-0.004	4.0	GoodResponse	1	0.239	n/a	6	24	ButtonPress	Win	False
239.444	0.28	Win2	0.56	n/a	Yes	3.136	n/a	n/a	GoodResponse	1	n/a	n/a	6	24	Blank	Win	False
239.712	1.45	Win2	0.56	n/a	Yes	3.136	n/a	5.0	GoodResponse	1	0.015	238.727	6	24	Feedback	Win	False
241.166	3.136	Win2	0.56	n/a	Yes	3.136	n/a	n/a	GoodResponse	1	0.0	n/a	6	24	ISIslide	Win	False
244.326	0.25	Win2	0.5769	0.0	Yes	3.074	0.026	n/a	GoodResponse	1	n/a	n/a	7	25	Cue	Win	True
244.576	4.0	Win2	0.5769	0.0	Yes	3.074	0.0	n/a	GoodResponse	1	n/a	n/a	7	25	Fixation	Win	True
248.572	0.43	Win2	0.5769	0.004	Yes	3.074	-0.004	4.0	GoodResponse	1	0.203	247.775	7	25	Target	Win	True
248.775	0.3	Win2	0.5769	0.004	Yes	3.074	-0.004	4.0	GoodResponse	1	0.203	n/a	7	25	ButtonPress	Win	True
249.006	0.27	Win2	0.5769	n/a	Yes	3.074	n/a	n/a	GoodResponse	1	n/a	n/a	7	25	Blank	Win	True
249.274	1.45	Win2	0.5769	n/a	Yes	3.074	n/a	5.0	GoodResponse	1	0.014	248.288	7	25	Feedback	Win	True
250.728	3.074	Win2	0.5769	n/a	Yes	3.074	n/a	n/a	GoodResponse	1	0.0	n/a	7	25	ISIslide	Win	True
253.821	0.25	Win2	0.5926	0.0	Yes	2.929	0.021	n/a	GoodResponse	1	n/a	n/a	8	26	Cue	Win	True
254.071	3.95	Win2	0.5926	0.001	Yes	2.929	0.0	n/a	GoodResponse	1	n/a	n/a	8	26	Fixation	Win	True
258.017	0.44	Win2	0.5926	0.004	Yes	2.929	-0.004	4.0	GoodResponse	1	0.224	257.241	8	26	Target	Win	True
258.241	0.3	Win2	0.5926	0.004	Yes	2.929	-0.004	4.0	GoodResponse	1	0.224	n/a	8	26	ButtonPress	Win	True
258.468	0.26	Win2	0.5926	n/a	Yes	2.929	n/a	n/a	GoodResponse	1	n/a	n/a	8	26	Blank	Win	True
258.719	1.45	Win2	0.5926	n/a	Yes	2.929	n/a	5.0	GoodResponse	1	0.033	257.752	8	26	Feedback	Win	True
260.173	2.929	Win2	0.5926	n/a	Yes	2.929	n/a	n/a	GoodResponse	1	0.0	n/a	8	26	ISIslide	Win	True
263.115	0.25	Lose2	0.6071	0.0	Yes	2.835	0.015	n/a	GoodResponse	0	n/a	n/a	8	27	Cue	AvoidedLoss	True
263.366	4.05	Lose2	0.6071	0.0	Yes	2.835	0.001	n/a	GoodResponse	0	n/a	n/a	8	27	Fixation	AvoidedLoss	True
267.411	0.45	Lose2	0.6071	0.004	Yes	2.835	-0.004	4.0	GoodResponse	0	0.189	266.6	8	27	Target	AvoidedLoss	True
267.6	0.3	Lose2	0.6071	0.004	Yes	2.835	-0.004	4.0	GoodResponse	0	0.189	n/a	8	27	ButtonPress	AvoidedLoss	True
267.863	0.25	Lose2	0.6071	n/a	Yes	2.835	n/a	n/a	GoodResponse	0	n/a	n/a	8	27	Blank	AvoidedLoss	True
268.113	1.45	Lose2	0.6071	n/a	Yes	2.835	n/a	5.0	GoodResponse	0	0.005	267.118	8	27	Feedback	AvoidedLoss	True
269.568	2.835	Lose2	0.6071	n/a	Yes	2.835	n/a	n/a	GoodResponse	0	0.0	n/a	8	27	ISIslide	AvoidedLoss	True
272.426	0.25	Control	0.5861999999999999	0.0	No	2.824	0.026	n/a	NoResponse	0	n/a	n/a	8	28	Cue	Neutral	False
272.677	4.05	Control	0.5861999999999999	0.0	No	2.824	0.001	n/a	NoResponse	0	n/a	n/a	8	28	Fixation	Neutral	False
276.722	0.46	Control	0.5861999999999999	0.004	No	2.824	-0.004	n/a	NoResponse	0	n/a	n/a	8	28	Target	Neutral	False
277.19	0.24	Control	0.5861999999999999	n/a	No	2.824	n/a	n/a	NoResponse	0	n/a	n/a	8	28	Blank	Neutral	False
277.425	1.45	Control	0.5861999999999999	n/a	No	2.824	n/a	5.0	NoResponse	0	0.009	276.434	8	28	Feedback	Neutral	False
278.879	2.824	Control	0.5861999999999999	n/a	No	2.824	n/a	n/a	NoResponse	0	0.0	n/a	8	28	ISIslide	Neutral	False
281.721	0.25	Lose2	0.6	0.0	Yes	2.829	0.021	n/a	GoodResponse	0	n/a	n/a	8	29	Cue	AvoidedLoss	True
281.971	3.95	Lose2	0.6	0.001	Yes	2.829	0.0	n/a	GoodResponse	0	n/a	n/a	8	29	Fixation	AvoidedLoss	True
285.917	0.47	Lose2	0.6	0.004	Yes	2.829	-0.004	4.0	GoodResponse	0	0.253	285.17	8	29	Target	AvoidedLoss	True
286.17	0.3	Lose2	0.6	0.004	Yes	2.829	-0.004	4.0	GoodResponse	0	0.253	n/a	8	29	ButtonPress	AvoidedLoss	True
286.401	0.23	Lose2	0.6	n/a	Yes	2.829	n/a	n/a	GoodResponse	0	n/a	n/a	8	29	Blank	AvoidedLoss	True
286.619	1.45	Lose2	0.6	n/a	Yes	2.829	n/a	5.0	GoodResponse	0	0.035	285.654	8	29	Feedback	AvoidedLoss	True
288.073	2.829	Lose2	0.6	n/a	Yes	2.829	n/a	n/a	GoodResponse	0	0.0	n/a	8	29	ISIslide	AvoidedLoss	True
290.915	0.25	Win2	0.6129	0.0	Yes	2.785	0.015	n/a	GoodResponse	1	n/a	n/a	9	30	Cue	Win	True
291.166	3.9	Win2	0.6129	0.0	Yes	2.785	0.001	n/a	GoodResponse	1	n/a	n/a	9	30	Fixation	Win	True
295.061	0.48	Win2	0.6129	0.004	Yes	2.785	-0.004	4.0	GoodResponse	1	0.209	294.27	9	30	Target	Win	True
295.27	0.3	Win2	0.6129	0.004	Yes	2.785	-0.004	4.0	GoodResponse	1	0.209	n/a	9	30	ButtonPress	Win	True
295.545	0.22	Win2	0.6129	n/a	Yes	2.785	n/a	n/a	GoodResponse	1	n/a	n/a	9	30	Blank	Win	True
295.763	1.45	Win2	0.6129	n/a	Yes	2.785	n/a	5.0	GoodResponse	1	0.013	294.776	9	30	Feedback	Win	True
297.217	2.785	Win2	0.6129	n/a	Yes	2.785	n/a	n/a	GoodResponse	1	0.0	n/a	9	30	ISIslide	Win	True
300.025	0.25	Lose2	0.625	0.0	Yes	2.825	0.025	n/a	GoodResponse	0	n/a	n/a	9	31	Cue	AvoidedLoss	True
300.276	4.05	Lose2	0.625	0.0	Yes	2.825	0.001	n/a	GoodResponse	0	n/a	n/a	9	31	Fixation	AvoidedLoss	True
304.321	0.49	Lose2	0.625	0.004	Yes	2.825	-0.004	4.0	GoodResponse	0	0.224	303.545	9	31	Target	AvoidedLoss	True
304.545	0.3	Lose2	0.625	0.004	Yes	2.825	-0.004	4.0	GoodResponse	0	0.224	n/a	9	31	ButtonPress	AvoidedLoss	True
304.823	0.21	Lose2	0.625	n/a	Yes	2.825	n/a	n/a	GoodResponse	0	n/a	n/a	9	31	Blank	AvoidedLoss	True
305.024	1.45	Lose2	0.625	n/a	Yes	2.825	n/a	5.0	GoodResponse	0	0.02	304.044	9	31	Feedback	AvoidedLoss	True
306.478	2.825	Lose2	0.625	n/a	Yes	2.825	n/a	n/a	GoodResponse	0	0.0	n/a	9	31	ISIslide	AvoidedLoss	True
309.32	0.25	Lose2	0.6364	0.0	Yes	2.63	0.02	n/a	GoodResponse	0	n/a	n/a	9	32	Cue	AvoidedLoss	True
309.571	4.15	Lose2	0.6364	0.0	Yes	2.63	0.001	n/a	GoodResponse	0	n/a	n/a	9	32	Fixation	AvoidedLoss	True
313.716	0.5	Lose2	0.6364	0.004	Yes	2.63	-0.004	4.0	GoodResponse	0	0.247	312.963	9	32	Target	AvoidedLoss	True
313.963	0.3	Lose2	0.6364	0.004	Yes	2.63	-0.004	4.0	GoodResponse	0	0.247	n/a	9	32	ButtonPress	AvoidedLoss	True
314.218	0.2	Lose2	0.6364	n/a	Yes	2.63	n/a	n/a	GoodResponse	0	n/a	n/a	9	32	Blank	AvoidedLoss	True
314.418	1.45	Lose2	0.6364	n/a	Yes	2.63	n/a	5.0	GoodResponse	0	0.04	313.458	9	32	Feedback	AvoidedLoss	True
315.873	2.63	Lose2	0.6364	n/a	Yes	2.63	n/a	n/a	GoodResponse	0	0.0	n/a	9	32	ISIslide	AvoidedLoss	True
318.514	0.25	Win2	0.6470999999999999	0.0	Yes	2.686	0.014	n/a	GoodResponse	1	n/a	n/a	10	33	Cue	Win	True
318.765	4.0	Win2	0.6470999999999999	0.0	Yes	2.686	0.001	n/a	GoodResponse	1	n/a	n/a	10	33	Fixation	Win	True
322.76	0.5	Win2	0.6470999999999999	0.004	Yes	2.686	-0.004	4.0	GoodResponse	1	0.265	322.025	10	33	Target	Win	True
323.025	0.3	Win2	0.6470999999999999	0.004	Yes	2.686	-0.004	4.0	GoodResponse	1	0.265	n/a	10	33	ButtonPress	Win	True
323.261	0.2	Win2	0.6470999999999999	n/a	Yes	2.686	n/a	n/a	GoodResponse	1	n/a	n/a	10	33	Blank	Win	True
323.462	1.45	Win2	0.6470999999999999	n/a	Yes	2.686	n/a	5.0	GoodResponse	1	0.02	322.482	10	33	Feedback	Win	True
324.916	2.686	Win2	0.6470999999999999	n/a	Yes	2.686	n/a	n/a	GoodResponse	1	0.0	n/a	10	33	ISIslide	Win	True
327.624	0.25	Lose2	0.6570999999999999	0.001	Yes	2.626	0.024	n/a	GoodResponse	0	n/a	n/a	10	34	Cue	AvoidedLoss	True
327.875	4.05	Lose2	0.6570999999999999	0.0	Yes	2.626	0.001	n/a	GoodResponse	0	n/a	n/a	10	34	Fixation	AvoidedLoss	True
331.921	0.5	Lose2	0.6570999999999999	0.003	Yes	2.626	-0.003	4.0	GoodResponse	0	0.357	331.278	10	34	Target	AvoidedLoss	True
332.278	0.3	Lose2	0.6570999999999999	0.003	Yes	2.626	-0.003	4.0	GoodResponse	0	0.357	n/a	10	34	ButtonPress	AvoidedLoss	True
332.422	0.2	Lose2	0.6570999999999999	n/a	Yes	2.626	n/a	n/a	GoodResponse	0	n/a	n/a	10	34	Blank	AvoidedLoss	True
332.623	1.45	Lose2	0.6570999999999999	n/a	Yes	2.626	n/a	5.0	GoodResponse	0	0.03	331.653	10	34	Feedback	AvoidedLoss	True
334.077	2.626	Lose2	0.6570999999999999	n/a	Yes	2.626	n/a	n/a	GoodResponse	0	0.0	n/a	10	34	ISIslide	AvoidedLoss	True
336.718	0.25	Lose2	0.6667000000000001	0.0	Yes	2.682	0.018	n/a	GoodResponse	0	n/a	n/a	10	35	Cue	AvoidedLoss	True
336.969	4.0	Lose2	0.6667000000000001	0.0	Yes	2.682	0.001	n/a	GoodResponse	0	n/a	n/a	10	35	Fixation	AvoidedLoss	True
340.964	0.5	Lose2	0.6667000000000001	0.004	Yes	2.682	-0.004	4.0	GoodResponse	0	0.306	340.27	10	35	Target	AvoidedLoss	True
341.27	0.3	Lose2	0.6667000000000001	0.004	Yes	2.682	-0.004	4.0	GoodResponse	0	0.306	n/a	10	35	ButtonPress	AvoidedLoss	True
341.466	0.2	Lose2	0.6667000000000001	n/a	Yes	2.682	n/a	n/a	GoodResponse	0	n/a	n/a	10	35	Blank	AvoidedLoss	True
341.666	1.45	Lose2	0.6667000000000001	n/a	Yes	2.682	n/a	5.0	GoodResponse	0	0.012	340.678	10	35	Feedback	AvoidedLoss	True
343.121	2.682	Lose2	0.6667000000000001	n/a	Yes	2.682	n/a	n/a	GoodResponse	0	0.0	n/a	10	35	ISIslide	AvoidedLoss	True
345.829	0.25	Control	0.6486	0.0	No	2.671	0.029	n/a	NoResponse	0	n/a	n/a	10	36	Cue	Neutral	False
346.08	4.0	Control	0.6486	0.0	No	2.671	0.001	n/a	NoResponse	0	n/a	n/a	10	36	Fixation	Neutral	False
350.075	0.49	Control	0.6486	0.004	No	2.671	-0.004	n/a	NoResponse	0	n/a	n/a	10	36	Target	Neutral	False
350.576	0.21	Control	0.6486	n/a	No	2.671	n/a	n/a	NoResponse	0	n/a	n/a	10	36	Blank	Neutral	False
350.777	1.45	Control	0.6486	n/a	No	2.671	n/a	5.0	NoResponse	0	0.022	349.799	10	36	Feedback	Neutral	False
352.231	2.671	Control	0.6486	n/a	No	2.671	n/a	n/a	NoResponse	0	0.0	n/a	10	36	ISIslide	Neutral	False
354.923	0.25	Win2	0.6579	0.0	Yes	2.877	0.023	n/a	GoodResponse	1	n/a	n/a	11	37	Cue	Win	True
355.173	4.0	Win2	0.6579	0.0	Yes	2.877	0.0	n/a	GoodResponse	1	n/a	n/a	11	37	Fixation	Win	True
359.169	0.5	Win2	0.6579	0.004	Yes	2.877	-0.004	4.0	GoodResponse	1	0.198	358.367	11	37	Target	Win	True
359.367	0.3	Win2	0.6579	0.004	Yes	2.877	-0.004	4.0	GoodResponse	1	0.198	n/a	11	37	ButtonPress	Win	True
359.67	0.2	Win2	0.6579	n/a	Yes	2.877	n/a	n/a	GoodResponse	1	n/a	n/a	11	37	Blank	Win	True
359.871	1.45	Win2	0.6579	n/a	Yes	2.877	n/a	5.0	GoodResponse	1	0.001	358.872	11	37	Feedback	Win	True
361.325	2.877	Win2	0.6579	n/a	Yes	2.877	n/a	n/a	GoodResponse	1	0.0	n/a	11	37	ISIslide	Win	True
364.217	0.25	Lose2	0.6667000000000001	0.0	Yes	2.833	0.017	n/a	GoodResponse	0	n/a	n/a	11	38	Cue	AvoidedLoss	True
364.468	3.95	Lose2	0.6667000000000001	0.0	Yes	2.833	0.001	n/a	GoodResponse	0	n/a	n/a	11	38	Fixation	AvoidedLoss	True
368.413	0.5	Lose2	0.6667000000000001	0.004	Yes	2.833	-0.004	4.0	GoodResponse	0	0.218	367.631	11	38	Target	AvoidedLoss	True
368.631	0.3	Lose2	0.6667000000000001	0.004	Yes	2.833	-0.004	4.0	GoodResponse	0	0.218	n/a	11	38	ButtonPress	AvoidedLoss	True
368.914	0.2	Lose2	0.6667000000000001	n/a	Yes	2.833	n/a	n/a	GoodResponse	0	n/a	n/a	11	38	Blank	AvoidedLoss	True
369.115	1.45	Lose2	0.6667000000000001	n/a	Yes	2.833	n/a	5.0	GoodResponse	0	0.025	368.14	11	38	Feedback	AvoidedLoss	True
370.569	2.833	Lose2	0.6667000000000001	n/a	Yes	2.833	n/a	n/a	GoodResponse	0	0.0	n/a	11	38	ISIslide	AvoidedLoss	True
373.428	0.25	Win2	0.675	0.0	Yes	2.972	0.028	n/a	GoodResponse	1	n/a	n/a	12	39	Cue	Win	True
373.679	4.1	Win2	0.675	0.0	Yes	2.972	0.001	n/a	GoodResponse	1	n/a	n/a	12	39	Fixation	Win	True
377.774	0.49	Win2	0.675	0.004	Yes	2.972	-0.004	4.0	GoodResponse	1	0.253	377.027	12	39	Target	Win	True
378.027	0.3	Win2	0.675	0.004	Yes	2.972	-0.004	4.0	GoodResponse	1	0.253	n/a	12	39	ButtonPress	Win	True
378.276	0.21	Win2	0.675	n/a	Yes	2.972	n/a	n/a	GoodResponse	1	n/a	n/a	12	39	Blank	Win	True
378.476	1.45	Win2	0.675	n/a	Yes	2.972	n/a	5.0	GoodResponse	1	0.03	377.506	12	39	Feedback	Win	True
379.931	2.972	Win2	0.675	n/a	Yes	2.972	n/a	n/a	GoodResponse	1	0.0	n/a	12	39	ISIslide	Win	True
382.923	0.25	Win2	0.6829000000000001	0.0	Yes	2.727	0.023	n/a	GoodResponse	1	n/a	n/a	13	40	Cue	Win	True
383.174	3.95	Win2	0.6829000000000001	0.0	Yes	2.727	0.001	n/a	GoodResponse	1	n/a	n/a	13	40	Fixation	Win	True
387.119	0.48	Win2	0.6829000000000001	0.004	Yes	2.727	-0.004	4.0	GoodResponse	1	0.222	386.341	13	40	Target	Win	True
387.341	0.3	Win2	0.6829000000000001	0.004	Yes	2.727	-0.004	4.0	GoodResponse	1	0.222	n/a	13	40	ButtonPress	Win	True
387.604	0.22	Win2	0.6829000000000001	n/a	Yes	2.727	n/a	n/a	GoodResponse	1	n/a	n/a	13	40	Blank	Win	True
387.821	1.45	Win2	0.6829000000000001	n/a	Yes	2.727	n/a	5.0	GoodResponse	1	0.005	386.826	13	40	Feedback	Win	True
389.275	2.727	Win2	0.6829000000000001	n/a	Yes	2.727	n/a	n/a	GoodResponse	1	0.0	n/a	13	40	ISIslide	Win	True
392.017	0.25	Win2	0.6905	0.0	Yes	2.783	0.017	n/a	GoodResponse	1	n/a	n/a	14	41	Cue	Win	True
392.267	3.9	Win2	0.6905	0.001	Yes	2.783	0.0	n/a	GoodResponse	1	n/a	n/a	14	41	Fixation	Win	True
396.179	0.47	Win2	0.6905	0.0	Yes	2.783	0.012	4.0	GoodResponse	1	0.178	395.357	14	41	Target	Win	True
396.357	0.3	Win2	0.6905	0.0	Yes	2.783	0.012	4.0	GoodResponse	1	0.178	n/a	14	41	ButtonPress	Win	True
396.647	0.23	Win2	0.6905	n/a	Yes	2.783	n/a	n/a	GoodResponse	1	n/a	n/a	14	41	Blank	Win	True
396.865	1.45	Win2	0.6905	n/a	Yes	2.783	n/a	5.0	GoodResponse	1	0.031	395.896	14	41	Feedback	Win	True
398.319	2.783	Win2	0.6905	n/a	Yes	2.783	n/a	n/a	GoodResponse	1	0.0	n/a	14	41	ISIslide	Win	True
401.127	0.25	Control	0.6744	0.0	No	2.923	0.027	n/a	NoResponse	0	n/a	n/a	14	42	Cue	Neutral	False
401.378	3.85	Control	0.6744	0.0	No	2.923	0.001	n/a	NoResponse	0	n/a	n/a	14	42	Fixation	Neutral	False
405.223	0.46	Control	0.6744	0.004	No	2.923	-0.004	n/a	NoResponse	0	n/a	n/a	14	42	Target	Neutral	False
405.691	0.24	Control	0.6744	n/a	No	2.923	n/a	n/a	NoResponse	0	n/a	n/a	14	42	Blank	Neutral	False
405.925	1.45	Control	0.6744	n/a	No	2.923	n/a	5.0	NoResponse	0	0.044	404.969	14	42	Feedback	Neutral	False
407.379	2.923	Control	0.6744	n/a	No	2.923	n/a	n/a	NoResponse	0	0.0	n/a	14	42	ISIslide	Neutral	False
410.321	0.25	Win2	0.6818000000000001	0.0	Yes	3.179	0.021	n/a	GoodResponse	1	n/a	n/a	15	43	Cue	Win	True
410.572	4.0	Win2	0.6818000000000001	0.0	Yes	3.179	0.001	n/a	GoodResponse	1	n/a	n/a	15	43	Fixation	Win	True
414.567	0.45	Win2	0.6818000000000001	0.004	Yes	3.179	-0.004	4.0	GoodResponse	1	0.176	413.743	15	43	Target	Win	True
414.743	0.3	Win2	0.6818000000000001	0.004	Yes	3.179	-0.004	4.0	GoodResponse	1	0.176	n/a	15	43	ButtonPress	Win	True
415.019	0.25	Win2	0.6818000000000001	n/a	Yes	3.179	n/a	n/a	GoodResponse	1	n/a	n/a	15	43	Blank	Win	True
415.27	1.45	Win2	0.6818000000000001	n/a	Yes	3.179	n/a	5.0	GoodResponse	1	0.016	414.286	15	43	Feedback	Win	True
416.724	3.179	Win2	0.6818000000000001	n/a	Yes	3.179	n/a	n/a	GoodResponse	1	0.0	n/a	15	43	ISIslide	Win	True
419.917	0.25	Win2	0.6889	0.0	Yes	2.983	0.017	n/a	GoodResponse	1	n/a	n/a	16	44	Cue	Win	True
420.167	4.0	Win2	0.6889	0.001	Yes	2.983	0.0	n/a	GoodResponse	1	n/a	n/a	16	44	Fixation	Win	True
424.163	0.44	Win2	0.6889	0.004	Yes	2.983	-0.004	4.0	GoodResponse	1	0.227	423.39	16	44	Target	Win	True
424.39	0.3	Win2	0.6889	0.004	Yes	2.983	-0.004	4.0	GoodResponse	1	0.227	n/a	16	44	ButtonPress	Win	True
424.614	0.26	Win2	0.6889	n/a	Yes	2.983	n/a	n/a	GoodResponse	1	n/a	n/a	16	44	Blank	Win	True
424.865	1.45	Win2	0.6889	n/a	Yes	2.983	n/a	5.0	GoodResponse	1	0.03	423.895	16	44	Feedback	Win	True
426.319	2.983	Win2	0.6889	n/a	Yes	2.983	n/a	n/a	GoodResponse	1	0.0	n/a	16	44	ISIslide	Win	True
429.328	0.25	Control	0.6739	0.0	No	2.872	0.028	n/a	NoResponse	0	n/a	n/a	16	45	Cue	Neutral	False
429.579	4.1	Control	0.6739	0.0	No	2.872	0.001	n/a	NoResponse	0	n/a	n/a	16	45	Fixation	Neutral	False
433.674	0.43	Control	0.6739	0.004	No	2.872	-0.004	n/a	NoResponse	0	n/a	n/a	16	45	Target	Neutral	False
434.109	0.27	Control	0.6739	n/a	No	2.872	n/a	n/a	NoResponse	0	n/a	n/a	16	45	Blank	Neutral	False
434.377	1.45	Control	0.6739	n/a	No	2.872	n/a	5.0	NoResponse	0	0.03	433.407	16	45	Feedback	Neutral	False
435.831	2.872	Control	0.6739	n/a	No	2.872	n/a	n/a	NoResponse	0	0.0	n/a	16	45	ISIslide	Neutral	False
438.723	0.25	Lose2	0.6809000000000001	0.0	Yes	3.377	0.023	n/a	GoodResponse	0	n/a	n/a	16	46	Cue	AvoidedLoss	True
438.974	4.0	Lose2	0.6809000000000001	0.0	Yes	3.377	0.001	n/a	GoodResponse	0	n/a	n/a	16	46	Fixation	AvoidedLoss	True
442.969	0.42	Lose2	0.6809000000000001	0.004	Yes	3.377	-0.004	4.0	GoodResponse	0	0.193	442.162	16	46	Target	AvoidedLoss	True
443.162	0.3	Lose2	0.6809000000000001	0.004	Yes	3.377	-0.004	4.0	GoodResponse	0	0.193	n/a	16	46	ButtonPress	AvoidedLoss	True
443.404	0.28	Lose2	0.6809000000000001	n/a	Yes	3.377	n/a	n/a	GoodResponse	0	n/a	n/a	16	46	Blank	AvoidedLoss	True
443.671	1.45	Lose2	0.6809000000000001	n/a	Yes	3.377	n/a	5.0	GoodResponse	0	0.005	442.676	16	46	Feedback	AvoidedLoss	True
445.125	3.377	Lose2	0.6809000000000001	n/a	Yes	3.377	n/a	n/a	GoodResponse	0	0.0	n/a	16	46	ISIslide	AvoidedLoss	True
448.519	0.25	Lose2	0.6875	0.0	Yes	2.681	0.019	n/a	GoodResponse	0	n/a	n/a	16	47	Cue	AvoidedLoss	True
448.77	4.0	Lose2	0.6875	0.0	Yes	2.681	0.001	n/a	GoodResponse	0	n/a	n/a	16	47	Fixation	AvoidedLoss	True
452.765	0.41	Lose2	0.6875	0.004	Yes	2.681	-0.004	4.0	GoodResponse	0	0.205	451.97	16	47	Target	AvoidedLoss	True
452.97	0.3	Lose2	0.6875	0.004	Yes	2.681	-0.004	4.0	GoodResponse	0	0.205	n/a	16	47	ButtonPress	AvoidedLoss	True
453.183	0.29	Lose2	0.6875	n/a	Yes	2.681	n/a	n/a	GoodResponse	0	n/a	n/a	16	47	Blank	AvoidedLoss	True
453.467	1.45	Lose2	0.6875	n/a	Yes	2.681	n/a	5.0	GoodResponse	0	0.014	452.481	16	47	Feedback	AvoidedLoss	True
454.921	2.681	Lose2	0.6875	n/a	Yes	2.681	n/a	n/a	GoodResponse	0	0.0	n/a	16	47	ISIslide	AvoidedLoss	True
457.629	0.25	Lose2	0.6939	0.0	Yes	3.021	0.029	n/a	GoodResponse	0	n/a	n/a	16	48	Cue	AvoidedLoss	False
457.88	3.95	Lose2	0.6939	0.0	Yes	3.021	0.001	4.0	GoodResponse	0	0.06	456.94	16	48	Fixation	AvoidedLoss	False
457.94	0.3	Lose2	0.6939	0.0	Yes	3.021	0.001	4.0	GoodResponse	0	0.06	n/a	16	48	ButtonPress	AvoidedLoss	False
461.825	0.4	Lose2	0.6939	0.004	Yes	3.021	-0.004	4.0	GoodResponse	0	0.287	461.112	16	48	Target	AvoidedLoss	False
462.112	0.3	Lose2	0.6939	0.004	Yes	3.021	-0.004	4.0	GoodResponse	0	0.287	n/a	16	48	ButtonPress	AvoidedLoss	False
462.226	0.3	Lose2	0.6939	n/a	Yes	3.021	n/a	n/a	GoodResponse	0	n/a	n/a	16	48	Blank	AvoidedLoss	False
462.527	1.45	Lose2	0.6939	n/a	Yes	3.021	n/a	5.0	GoodResponse	0	0.026	461.553	16	48	Feedback	AvoidedLoss	False
463.982	3.021	Lose2	0.6939	n/a	Yes	3.021	n/a	n/a	GoodResponse	0	0.0	n/a	16	48	ISIslide	AvoidedLoss	False
467.024	0.25	Control	0.68	0.0	No	2.876	0.024	n/a	NoResponse	0	n/a	n/a	16	49	Cue	Neutral	False
467.275	4.0	Control	0.68	0.0	No	2.876	0.001	n/a	NoResponse	0	n/a	n/a	16	49	Fixation	Neutral	False
471.27	0.39	Control	0.68	0.004	No	2.876	-0.004	n/a	NoResponse	0	n/a	n/a	16	49	Target	Neutral	False
471.671	0.31	Control	0.68	n/a	No	2.876	n/a	n/a	NoResponse	0	n/a	n/a	16	49	Blank	Neutral	False
471.972	1.45	Control	0.68	n/a	No	2.876	n/a	5.0	NoResponse	0	0.045	471.017	16	49	Feedback	Neutral	False
473.427	2.876	Control	0.68	n/a	No	2.876	n/a	n/a	NoResponse	0	0.0	n/a	16	49	ISIslide	Neutral	False
476.319	0.25	Control	0.6667000000000001	0.0	No	2.781	0.019	n/a	NoResponse	0	n/a	n/a	16	50	Cue	Neutral	False
476.569	4.0	Control	0.6667000000000001	0.0	No	2.781	0.0	n/a	NoResponse	0	n/a	n/a	16	50	Fixation	Neutral	False
480.565	0.38	Control	0.6667000000000001	0.004	No	2.781	-0.004	n/a	NoResponse	0	n/a	n/a	16	50	Target	Neutral	False
480.949	0.32	Control	0.6667000000000001	n/a	No	2.781	n/a	n/a	NoResponse	0	n/a	n/a	16	50	Blank	Neutral	False
481.267	1.45	Control	0.6667000000000001	n/a	No	2.781	n/a	5.0	NoResponse	0	0.018	480.285	16	50	Feedback	Neutral	False
482.721	2.781	Control	0.6667000000000001	n/a	No	2.781	n/a	n/a	NoResponse	0	0.0	n/a	16	50	ISIslide	Neutral	False
485.513	0.25	Control	0.6537999999999999	0.0	No	2.737	0.013	n/a	NoResponse	0	n/a	n/a	16	51	Cue	Neutral	False
485.763	3.95	Control	0.6537999999999999	0.0	No	2.737	0.0	n/a	NoResponse	0	n/a	n/a	16	51	Fixation	Neutral	False
489.708	0.37	Control	0.6537999999999999	0.005	No	2.737	-0.005	n/a	NoResponse	0	n/a	n/a	16	51	Target	Neutral	False
490.093	0.33	Control	0.6537999999999999	n/a	No	2.737	n/a	n/a	NoResponse	0	n/a	n/a	16	51	Blank	Neutral	False
490.411	1.45	Control	0.6537999999999999	n/a	No	2.737	n/a	5.0	NoResponse	0	0.045	489.456	16	51	Feedback	Neutral	False
491.865	2.737	Control	0.6537999999999999	n/a	No	2.737	n/a	n/a	NoResponse	0	0.0	n/a	16	51	ISIslide	Neutral	False
494.623	0.25	Control	0.6415000000000001	0.0	No	2.627	0.023	n/a	NoResponse	0	n/a	n/a	16	52	Cue	Neutral	False
494.874	4.05	Control	0.6415000000000001	0.0	No	2.627	0.001	n/a	NoResponse	0	n/a	n/a	16	52	Fixation	Neutral	False
498.919	0.38	Control	0.6415000000000001	0.004	No	2.627	-0.004	n/a	NoResponse	0	n/a	n/a	16	52	Target	Neutral	False
499.304	0.32	Control	0.6415000000000001	n/a	No	2.627	n/a	n/a	NoResponse	0	n/a	n/a	16	52	Blank	Neutral	False
499.621	1.45	Control	0.6415000000000001	n/a	No	2.627	n/a	5.0	NoResponse	0	0.005	498.626	16	52	Feedback	Neutral	False
501.076	2.627	Control	0.6415000000000001	n/a	No	2.627	n/a	n/a	NoResponse	0	0.0	n/a	16	52	ISIslide	Neutral	False
503.717	0.25	Win2	0.6481	0.0	Yes	2.933	0.017	n/a	GoodResponse	1	n/a	n/a	17	53	Cue	Win	True
503.968	4.05	Win2	0.6481	0.0	Yes	2.933	0.001	n/a	GoodResponse	1	n/a	n/a	17	53	Fixation	Win	True
508.013	0.39	Win2	0.6481	0.004	Yes	2.933	-0.004	4.0	GoodResponse	1	0.224	507.237	17	53	Target	Win	True
508.237	0.3	Win2	0.6481	0.004	Yes	2.933	-0.004	4.0	GoodResponse	1	0.224	n/a	17	53	ButtonPress	Win	True
508.414	0.31	Win2	0.6481	n/a	Yes	2.933	n/a	n/a	GoodResponse	1	n/a	n/a	17	53	Blank	Win	True
508.715	1.45	Win2	0.6481	n/a	Yes	2.933	n/a	5.0	GoodResponse	1	0.033	507.748	17	53	Feedback	Win	True
510.17	2.933	Win2	0.6481	n/a	Yes	2.933	n/a	n/a	GoodResponse	1	0.0	n/a	17	53	ISIslide	Win	True
513.128	0.25	Win2	0.6545000000000001	0.001	Yes	2.722	0.028	n/a	GoodResponse	1	n/a	n/a	18	54	Cue	Win	True
513.379	3.95	Win2	0.6545000000000001	0.0	Yes	2.722	0.001	n/a	GoodResponse	1	n/a	n/a	18	54	Fixation	Win	True
517.324	0.4	Win2	0.6545000000000001	0.004	Yes	2.722	-0.004	4.0	GoodResponse	1	0.307	516.631	18	54	Target	Win	True
517.631	0.3	Win2	0.6545000000000001	0.004	Yes	2.722	-0.004	4.0	GoodResponse	1	0.307	n/a	18	54	ButtonPress	Win	True
517.725	0.3	Win2	0.6545000000000001	n/a	Yes	2.722	n/a	n/a	GoodResponse	1	n/a	n/a	18	54	Blank	Win	True
518.026	1.45	Win2	0.6545000000000001	n/a	Yes	2.722	n/a	5.0	GoodResponse	1	0.039	517.065	18	54	Feedback	Win	True
519.481	2.722	Win2	0.6545000000000001	n/a	Yes	2.722	n/a	n/a	GoodResponse	1	0.0	n/a	18	54	ISIslide	Win	True
522.222	0.25	Control	0.6429	0.0	No	3.028	0.022	n/a	NoResponse	0	n/a	n/a	18	55	Cue	Neutral	False
522.473	3.95	Control	0.6429	0.0	No	3.028	0.001	n/a	NoResponse	0	n/a	n/a	18	55	Fixation	Neutral	False
526.418	0.41	Control	0.6429	0.004	No	3.028	-0.004	n/a	NoResponse	0	n/a	n/a	18	55	Target	Neutral	False
526.836	0.29	Control	0.6429	n/a	No	3.028	n/a	n/a	NoResponse	0	n/a	n/a	18	55	Blank	Neutral	False
527.12	1.45	Control	0.6429	n/a	No	3.028	n/a	5.0	NoResponse	0	0.018	526.138	18	55	Feedback	Neutral	False
528.575	3.028	Control	0.6429	n/a	No	3.028	n/a	n/a	NoResponse	0	0.0	n/a	18	55	ISIslide	Neutral	False
531.617	0.25	Control	0.6315999999999999	0.0	No	2.833	0.017	n/a	NoResponse	0	n/a	n/a	18	56	Cue	Neutral	False
531.868	3.95	Control	0.6315999999999999	0.0	No	2.833	0.001	n/a	NoResponse	0	n/a	n/a	18	56	Fixation	Neutral	False
535.813	0.42	Control	0.6315999999999999	0.004	No	2.833	-0.004	n/a	NoResponse	0	n/a	n/a	18	56	Target	Neutral	False
536.247	0.28	Control	0.6315999999999999	n/a	No	2.833	n/a	n/a	NoResponse	0	n/a	n/a	18	56	Blank	Neutral	False
536.515	1.45	Control	0.6315999999999999	n/a	No	2.833	n/a	5.0	NoResponse	0	0.037	535.552	18	56	Feedback	Neutral	False
537.969	2.833	Control	0.6315999999999999	n/a	No	2.833	n/a	n/a	NoResponse	0	0.0	n/a	18	56	ISIslide	Neutral	False
540.828	0.25	Control	0.6207	0.0	No	3.472	0.028	n/a	NoResponse	0	n/a	n/a	18	57	Cue	Neutral	False
541.079	4.0	Control	0.6207	0.0	No	3.472	0.001	n/a	NoResponse	0	n/a	n/a	18	57	Fixation	Neutral	False
545.074	0.43	Control	0.6207	0.004	No	3.472	-0.004	n/a	NoResponse	0	n/a	n/a	18	57	Target	Neutral	False
545.508	0.27	Control	0.6207	n/a	No	3.472	n/a	n/a	NoResponse	0	n/a	n/a	18	57	Blank	Neutral	False
545.776	1.45	Control	0.6207	n/a	No	3.472	n/a	5.0	NoResponse	0	0.044	544.82	18	57	Feedback	Neutral	False
547.23	3.472	Control	0.6207	n/a	No	3.472	n/a	n/a	NoResponse	0	0.0	n/a	18	57	ISIslide	Neutral	False
550.724	0.25	Win2	0.6271	0.0	Yes	2.726	0.024	n/a	GoodResponse	1	n/a	n/a	19	58	Cue	Win	False
550.975	4.05	Win2	0.6271	0.0	Yes	2.726	0.001	4.0	GoodResponse	1	0.154	550.129	19	58	Fixation	Win	False
551.129	0.3	Win2	0.6271	0.0	Yes	2.726	0.001	4.0	GoodResponse	1	0.154	n/a	19	58	ButtonPress	Win	False
555.02	0.44	Win2	0.6271	0.004	Yes	2.726	-0.004	4.0	GoodResponse	1	0.23	554.25	19	58	Target	Win	False
555.25	0.3	Win2	0.6271	0.004	Yes	2.726	-0.004	4.0	GoodResponse	1	0.23	n/a	19	58	ButtonPress	Win	False
555.472	0.26	Win2	0.6271	n/a	Yes	2.726	n/a	n/a	GoodResponse	1	n/a	n/a	19	58	Blank	Win	False
555.722	1.45	Win2	0.6271	n/a	Yes	2.726	n/a	5.0	GoodResponse	1	0.001	554.723	19	58	Feedback	Win	False
557.177	2.726	Win2	0.6271	n/a	Yes	2.726	n/a	n/a	GoodResponse	1	0.0	n/a	19	58	ISIslide	Win	False
559.918	0.25	Lose2	0.6333	0.0	Yes	2.682	0.018	n/a	GoodResponse	0	n/a	n/a	19	59	Cue	AvoidedLoss	True
560.169	4.0	Lose2	0.6333	0.0	Yes	2.682	0.001	n/a	GoodResponse	0	n/a	n/a	19	59	Fixation	AvoidedLoss	True
564.164	0.45	Lose2	0.6333	0.004	Yes	2.682	-0.004	4.0	GoodResponse	0	0.229	563.393	19	59	Target	AvoidedLoss	True
564.393	0.3	Lose2	0.6333	0.004	Yes	2.682	-0.004	4.0	GoodResponse	0	0.229	n/a	19	59	ButtonPress	AvoidedLoss	True
564.616	0.25	Lose2	0.6333	n/a	Yes	2.682	n/a	n/a	GoodResponse	0	n/a	n/a	19	59	Blank	AvoidedLoss	True
564.866	1.45	Lose2	0.6333	n/a	Yes	2.682	n/a	5.0	GoodResponse	0	0.028	563.894	19	59	Feedback	AvoidedLoss	True
566.321	2.682	Lose2	0.6333	n/a	Yes	2.682	n/a	n/a	GoodResponse	0	0.0	n/a	19	59	ISIslide	AvoidedLoss	True
569.029	0.25	Control	0.623	0.0	No	2.671	0.029	n/a	NoResponse	0	n/a	n/a	19	60	Cue	Neutral	False
569.279	4.0	Control	0.623	0.001	No	2.671	0.0	n/a	NoResponse	0	n/a	n/a	19	60	Fixation	Neutral	False
573.275	0.46	Control	0.623	0.004	No	2.671	-0.004	n/a	NoResponse	0	n/a	n/a	19	60	Target	Neutral	False
573.743	0.24	Control	0.623	n/a	No	2.671	n/a	n/a	NoResponse	0	n/a	n/a	19	60	Blank	Neutral	False
573.977	1.45	Control	0.623	n/a	No	2.671	n/a	5.0	NoResponse	0	0.038	573.015	19	60	Feedback	Neutral	False
575.431	2.671	Control	0.623	n/a	No	2.671	n/a	n/a	NoResponse	0	0.0	n/a	19	60	ISIslide	Neutral	False
578.123	0.25	Lose2	0.629	0.0	Yes	2.977	0.023	n/a	GoodResponse	0	n/a	n/a	19	61	Cue	AvoidedLoss	True
578.373	4.0	Lose2	0.629	0.0	Yes	2.977	0.0	n/a	GoodResponse	0	n/a	n/a	19	61	Fixation	AvoidedLoss	True
582.369	0.47	Lose2	0.629	0.004	Yes	2.977	-0.004	4.0	GoodResponse	0	0.339	581.708	19	61	Target	AvoidedLoss	True
582.708	0.3	Lose2	0.629	0.004	Yes	2.977	-0.004	4.0	GoodResponse	0	0.339	n/a	19	61	ButtonPress	AvoidedLoss	True
582.853	0.23	Lose2	0.629	n/a	Yes	2.977	n/a	n/a	GoodResponse	0	n/a	n/a	19	61	Blank	AvoidedLoss	True
583.071	1.45	Lose2	0.629	n/a	Yes	2.977	n/a	5.0	GoodResponse	0	0.017	582.088	19	61	Feedback	AvoidedLoss	True
584.525	2.977	Lose2	0.629	n/a	Yes	2.977	n/a	n/a	GoodResponse	0	0.0	n/a	19	61	ISIslide	AvoidedLoss	True
587.517	0.25	Lose2	0.619	0.0	No	2.883	0.017	n/a	NoResponse	-1	n/a	n/a	18	62	Cue	Loss	True
587.768	3.9	Lose2	0.619	0.0	No	2.883	0.001	n/a	NoResponse	-1	n/a	n/a	18	62	Fixation	Loss	True
591.663	0.48	Lose2	0.619	0.004	No	2.883	-0.004	4.0	NoResponse	-1	0.617	591.28	18	62	Target	Loss	True
592.148	0.22	Lose2	0.619	n/a	No	2.883	n/a	n/a	NoResponse	-1	n/a	n/a	18	62	Blank	Loss	True
592.28	0.3	Lose2	0.619	0.004	No	2.883	-0.004	4.0	NoResponse	-1	0.617	n/a	18	62	ButtonPress	Loss	True
592.365	1.45	Lose2	0.619	n/a	No	2.883	n/a	5.0	NoResponse	-1	0.04	591.405	18	62	Feedback	Loss	True
593.819	2.883	Lose2	0.619	n/a	No	2.883	n/a	n/a	NoResponse	-1	0.0	n/a	18	62	ISIslide	Loss	True
596.728	0.25	Lose2	0.625	0.0	Yes	2.622	0.028	n/a	GoodResponse	0	n/a	n/a	18	63	Cue	AvoidedLoss	True
596.979	4.05	Lose2	0.625	0.0	Yes	2.622	0.001	n/a	GoodResponse	0	n/a	n/a	18	63	Fixation	AvoidedLoss	True
601.024	0.49	Lose2	0.625	0.004	Yes	2.622	-0.004	4.0	GoodResponse	0	0.201	600.225	18	63	Target	AvoidedLoss	True
601.225	0.3	Lose2	0.625	0.004	Yes	2.622	-0.004	4.0	GoodResponse	0	0.201	n/a	18	63	ButtonPress	AvoidedLoss	True
601.526	0.21	Lose2	0.625	n/a	Yes	2.622	n/a	n/a	GoodResponse	0	n/a	n/a	18	63	Blank	AvoidedLoss	True
601.726	1.45	Lose2	0.625	n/a	Yes	2.622	n/a	5.0	GoodResponse	0	0.045	600.771	18	63	Feedback	AvoidedLoss	True
603.181	2.622	Lose2	0.625	n/a	Yes	2.622	n/a	n/a	GoodResponse	0	0.0	n/a	18	63	ISIslide	AvoidedLoss	True
605.822	0.25	Win2	0.6308	0.0	Yes	3.128	0.022	n/a	GoodResponse	1	n/a	n/a	19	64	Cue	Win	True
606.073	4.15	Win2	0.6308	0.0	Yes	3.128	0.001	n/a	GoodResponse	1	n/a	n/a	19	64	Fixation	Win	True
610.218	0.5	Win2	0.6308	0.004	Yes	3.128	-0.004	4.0	GoodResponse	1	0.161	609.379	19	64	Target	Win	True
610.379	0.3	Win2	0.6308	0.004	Yes	3.128	-0.004	4.0	GoodResponse	1	0.161	n/a	19	64	ButtonPress	Win	True
610.72	0.2	Win2	0.6308	n/a	Yes	3.128	n/a	n/a	GoodResponse	1	n/a	n/a	19	64	Blank	Win	True
610.92	1.45	Win2	0.6308	n/a	Yes	3.128	n/a	5.0	GoodResponse	1	0.021	609.941	19	64	Feedback	Win	True
612.375	3.128	Win2	0.6308	n/a	Yes	3.128	n/a	n/a	GoodResponse	1	0.0	n/a	19	64	ISIslide	Win	True
615.518	0.25	Control	0.6212	0.0	No	2.782	0.018	n/a	NoResponse	0	n/a	n/a	19	65	Cue	Neutral	False
615.768	4.0	Control	0.6212	0.0	No	2.782	0.0	n/a	NoResponse	0	n/a	n/a	19	65	Fixation	Neutral	False
619.764	0.5	Control	0.6212	0.004	No	2.782	-0.004	n/a	NoResponse	0	n/a	n/a	19	65	Target	Neutral	False
620.265	0.2	Control	0.6212	n/a	No	2.782	n/a	n/a	NoResponse	0	n/a	n/a	19	65	Blank	Neutral	False
620.466	1.45	Control	0.6212	n/a	No	2.782	n/a	5.0	NoResponse	0	0.036	619.502	19	65	Feedback	Neutral	False
621.92	2.782	Control	0.6212	n/a	No	2.782	n/a	n/a	NoResponse	0	0.0	n/a	19	65	ISIslide	Neutral	False
624.728	0.25	Win2	0.6269	0.0	Yes	2.772	0.028	n/a	GoodResponse	1	n/a	n/a	20	66	Cue	Win	True
624.979	3.9	Win2	0.6269	0.0	Yes	2.772	0.001	n/a	GoodResponse	1	n/a	n/a	20	66	Fixation	Win	True
628.874	0.5	Win2	0.6269	0.004	Yes	2.772	-0.004	4.0	GoodResponse	1	0.183	628.057	20	66	Target	Win	True
629.057	0.3	Win2	0.6269	0.004	Yes	2.772	-0.004	4.0	GoodResponse	1	0.183	n/a	20	66	ButtonPress	Win	True
629.376	0.2	Win2	0.6269	n/a	Yes	2.772	n/a	n/a	GoodResponse	1	n/a	n/a	20	66	Blank	Win	True
629.576	1.45	Win2	0.6269	n/a	Yes	2.772	n/a	5.0	GoodResponse	1	0.048	628.624	20	66	Feedback	Win	True
631.031	2.772	Win2	0.6269	n/a	Yes	2.772	n/a	n/a	GoodResponse	1	0.0	n/a	20	66	ISIslide	Win	True
633.822	0.25	Control	0.6175999999999999	0.0	No	2.728	0.022	n/a	NoResponse	0	n/a	n/a	20	67	Cue	Neutral	False
634.073	3.95	Control	0.6175999999999999	0.0	No	2.728	0.001	n/a	NoResponse	0	n/a	n/a	20	67	Fixation	Neutral	False
638.018	0.5	Control	0.6175999999999999	0.004	No	2.728	-0.004	n/a	NoResponse	0	n/a	n/a	20	67	Target	Neutral	False
638.52	0.2	Control	0.6175999999999999	n/a	No	2.728	n/a	n/a	NoResponse	0	n/a	n/a	20	67	Blank	Neutral	False
638.72	1.45	Control	0.6175999999999999	n/a	No	2.728	n/a	5.0	NoResponse	0	0.026	637.746	20	67	Feedback	Neutral	False
640.175	2.728	Control	0.6175999999999999	n/a	No	2.728	n/a	n/a	NoResponse	0	0.0	n/a	20	67	ISIslide	Neutral	False
642.916	0.25	Win2	0.6232	0.0	Yes	3.084	0.016	n/a	GoodResponse	1	n/a	n/a	21	68	Cue	Win	True
643.167	4.0	Win2	0.6232	0.0	Yes	3.084	0.001	n/a	GoodResponse	1	n/a	n/a	21	68	Fixation	Win	True
647.162	0.5	Win2	0.6232	0.004	Yes	3.084	-0.004	4.0	GoodResponse	1	0.294	646.456	21	68	Target	Win	True
647.456	0.3	Win2	0.6232	0.004	Yes	3.084	-0.004	4.0	GoodResponse	1	0.294	n/a	21	68	ButtonPress	Win	True
647.664	0.2	Win2	0.6232	n/a	Yes	3.084	n/a	n/a	GoodResponse	1	n/a	n/a	21	68	Blank	Win	True
647.864	1.45	Win2	0.6232	n/a	Yes	3.084	n/a	5.0	GoodResponse	1	0.007	646.871	21	68	Feedback	Win	True
649.318	3.084	Win2	0.6232	n/a	Yes	3.084	n/a	n/a	GoodResponse	1	0.0	n/a	21	68	ISIslide	Win	True
652.428	0.25	Win2	0.6286	0.0	Yes	3.222	0.028	n/a	GoodResponse	1	n/a	n/a	22	69	Cue	Win	True
652.679	3.95	Win2	0.6286	0.0	Yes	3.222	0.001	n/a	GoodResponse	1	n/a	n/a	22	69	Fixation	Win	True
656.624	0.5	Win2	0.6286	0.004	Yes	3.222	-0.004	4.0	GoodResponse	1	0.214	655.838	22	69	Target	Win	True
656.838	0.3	Win2	0.6286	0.004	Yes	3.222	-0.004	4.0	GoodResponse	1	0.214	n/a	22	69	ButtonPress	Win	True
657.125	0.2	Win2	0.6286	n/a	Yes	3.222	n/a	n/a	GoodResponse	1	n/a	n/a	22	69	Blank	Win	True
657.326	1.45	Win2	0.6286	n/a	Yes	3.222	n/a	5.0	GoodResponse	1	0.006	656.332	22	69	Feedback	Win	True
658.78	3.222	Win2	0.6286	n/a	Yes	3.222	n/a	n/a	GoodResponse	1	0.0	n/a	22	69	ISIslide	Win	True
662.023	0.25	Lose2	0.6338	0.0	Yes	3.027	0.023	n/a	GoodResponse	0	n/a	n/a	22	70	Cue	AvoidedLoss	True
662.274	4.05	Lose2	0.6338	0.0	Yes	3.027	0.001	n/a	GoodResponse	0	n/a	n/a	22	70	Fixation	AvoidedLoss	True
666.319	0.5	Lose2	0.6338	0.004	Yes	3.027	-0.004	4.0	GoodResponse	0	0.186	665.505	22	70	Target	AvoidedLoss	True
666.505	0.3	Lose2	0.6338	0.004	Yes	3.027	-0.004	4.0	GoodResponse	0	0.186	n/a	22	70	ButtonPress	AvoidedLoss	True
666.821	0.2	Lose2	0.6338	n/a	Yes	3.027	n/a	n/a	GoodResponse	0	n/a	n/a	22	70	Blank	AvoidedLoss	True
667.021	1.45	Lose2	0.6338	n/a	Yes	3.027	n/a	5.0	GoodResponse	0	0.017	666.038	22	70	Feedback	AvoidedLoss	True
668.476	3.027	Lose2	0.6338	n/a	Yes	3.027	n/a	n/a	GoodResponse	0	0.0	n/a	22	70	ISIslide	AvoidedLoss	True
671.518	0.25	Win2	0.6389	0.0	Yes	2.732	0.018	n/a	GoodResponse	1	n/a	n/a	23	71	Cue	Win	True
671.769	4.05	Win2	0.6389	0.0	Yes	2.732	0.001	n/a	GoodResponse	1	n/a	n/a	23	71	Fixation	Win	True
675.814	0.5	Win2	0.6389	0.004	Yes	2.732	-0.004	4.0	GoodResponse	1	0.19	675.004	23	71	Target	Win	True
676.004	0.3	Win2	0.6389	0.004	Yes	2.732	-0.004	4.0	GoodResponse	1	0.19	n/a	23	71	ButtonPress	Win	True
676.316	0.2	Win2	0.6389	n/a	Yes	2.732	n/a	n/a	GoodResponse	1	n/a	n/a	23	71	Blank	Win	True
676.516	1.45	Win2	0.6389	n/a	Yes	2.732	n/a	5.0	GoodResponse	1	0.034	675.55	23	71	Feedback	Win	True
677.971	2.732	Win2	0.6389	n/a	Yes	2.732	n/a	n/a	GoodResponse	1	0.0	n/a	23	71	ISIslide	Win	True
680.729	0.25	Win2	0.6437999999999999	0.0	Yes	2.771	0.029	n/a	GoodResponse	1	n/a	n/a	24	72	Cue	Win	True
680.98	4.1	Win2	0.6437999999999999	0.0	Yes	2.771	0.001	n/a	GoodResponse	1	n/a	n/a	24	72	Fixation	Win	True
685.075	0.5	Win2	0.6437999999999999	0.004	Yes	2.771	-0.004	4.0	GoodResponse	1	0.2	684.275	24	72	Target	Win	True
685.275	0.3	Win2	0.6437999999999999	0.004	Yes	2.771	-0.004	4.0	GoodResponse	1	0.2	n/a	24	72	ButtonPress	Win	True
685.577	0.2	Win2	0.6437999999999999	n/a	Yes	2.771	n/a	n/a	GoodResponse	1	n/a	n/a	24	72	Blank	Win	True
685.777	1.45	Win2	0.6437999999999999	n/a	Yes	2.771	n/a	5.0	GoodResponse	1	0.041	684.818	24	72	Feedback	Win	True
687.232	2.771	Win2	0.6437999999999999	n/a	Yes	2.771	n/a	n/a	GoodResponse	1	0.0	n/a	24	72	ISIslide	Win	True
690.023	0.25	Win2	0.6486	0.0	Yes	2.677	0.023	n/a	GoodResponse	1	n/a	n/a	25	73	Cue	Win	True
690.274	4.0	Win2	0.6486	0.0	Yes	2.677	0.001	n/a	GoodResponse	1	n/a	n/a	25	73	Fixation	Win	True
694.269	0.5	Win2	0.6486	0.004	Yes	2.677	-0.004	4.0	GoodResponse	1	0.227	693.496	25	73	Target	Win	True
694.496	0.3	Win2	0.6486	0.004	Yes	2.677	-0.004	4.0	GoodResponse	1	0.227	n/a	25	73	ButtonPress	Win	True
694.771	0.2	Win2	0.6486	n/a	Yes	2.677	n/a	n/a	GoodResponse	1	n/a	n/a	25	73	Blank	Win	True
694.972	1.45	Win2	0.6486	n/a	Yes	2.677	n/a	5.0	GoodResponse	1	0.017	693.989	25	73	Feedback	Win	True
696.426	2.677	Win2	0.6486	n/a	Yes	2.677	n/a	n/a	GoodResponse	1	0.0	n/a	25	73	ISIslide	Win	True
699.117	0.25	Lose2	0.6533	0.0	Yes	2.633	0.017	n/a	GoodResponse	0	n/a	n/a	25	74	Cue	AvoidedLoss	True
699.368	4.05	Lose2	0.6533	0.0	Yes	2.633	0.001	n/a	GoodResponse	0	n/a	n/a	25	74	Fixation	AvoidedLoss	True
703.413	0.5	Lose2	0.6533	0.004	Yes	2.633	-0.004	4.0	GoodResponse	0	0.186	702.599	25	74	Target	AvoidedLoss	True
703.599	0.3	Lose2	0.6533	0.004	Yes	2.633	-0.004	4.0	GoodResponse	0	0.186	n/a	25	74	ButtonPress	AvoidedLoss	True
703.915	0.2	Lose2	0.6533	n/a	Yes	2.633	n/a	n/a	GoodResponse	0	n/a	n/a	25	74	Blank	AvoidedLoss	True
704.115	1.45	Lose2	0.6533	n/a	Yes	2.633	n/a	5.0	GoodResponse	0	0.044	703.159	25	74	Feedback	AvoidedLoss	True
705.57	2.633	Lose2	0.6533	n/a	Yes	2.633	n/a	n/a	GoodResponse	0	0.0	n/a	25	74	ISIslide	AvoidedLoss	True
708.228	0.25	Lose2	0.6579	0.0	Yes	2.922	0.028	n/a	GoodResponse	0	n/a	n/a	25	75	Cue	AvoidedLoss	True
708.479	3.95	Lose2	0.6579	0.0	Yes	2.922	0.001	n/a	GoodResponse	0	n/a	n/a	25	75	Fixation	AvoidedLoss	True
712.424	0.5	Lose2	0.6579	0.004	Yes	2.922	-0.004	4.0	GoodResponse	0	0.265	711.689	25	75	Target	AvoidedLoss	True
712.689	0.3	Lose2	0.6579	0.004	Yes	2.922	-0.004	4.0	GoodResponse	0	0.265	n/a	25	75	ButtonPress	AvoidedLoss	True
712.925	0.2	Lose2	0.6579	n/a	Yes	2.922	n/a	n/a	GoodResponse	0	n/a	n/a	25	75	Blank	AvoidedLoss	True
713.126	1.45	Lose2	0.6579	n/a	Yes	2.922	n/a	5.0	GoodResponse	0	0.009	712.135	25	75	Feedback	AvoidedLoss	True
714.58	2.922	Lose2	0.6579	n/a	Yes	2.922	n/a	n/a	GoodResponse	0	0.0	n/a	25	75	ISIslide	AvoidedLoss	True
717.522	0.25	Control	0.6494	0.0	No	3.228	0.022	n/a	NoResponse	0	n/a	n/a	25	76	Cue	Neutral	False
717.773	4.05	Control	0.6494	0.0	No	3.228	0.001	n/a	NoResponse	0	n/a	n/a	25	76	Fixation	Neutral	False
721.818	0.5	Control	0.6494	0.004	No	3.228	-0.004	n/a	NoResponse	0	n/a	n/a	25	76	Target	Neutral	False
722.32	0.2	Control	0.6494	n/a	No	3.228	n/a	n/a	NoResponse	0	n/a	n/a	25	76	Blank	Neutral	False
722.52	1.45	Control	0.6494	n/a	No	3.228	n/a	5.0	NoResponse	0	0.029	721.549	25	76	Feedback	Neutral	False
723.975	3.228	Control	0.6494	n/a	No	3.228	n/a	n/a	NoResponse	0	0.0	n/a	25	76	ISIslide	Neutral	False
727.218	0.25	Lose2	0.6537999999999999	0.0	Yes	2.582	0.018	n/a	GoodResponse	0	n/a	n/a	25	77	Cue	AvoidedLoss	True
727.469	3.95	Lose2	0.6537999999999999	0.0	Yes	2.582	0.001	n/a	GoodResponse	0	n/a	n/a	25	77	Fixation	AvoidedLoss	True
731.414	0.5	Lose2	0.6537999999999999	0.004	Yes	2.582	-0.004	4.0	GoodResponse	0	0.196	730.61	25	77	Target	AvoidedLoss	True
731.61	0.3	Lose2	0.6537999999999999	0.004	Yes	2.582	-0.004	4.0	GoodResponse	0	0.196	n/a	25	77	ButtonPress	AvoidedLoss	True
731.915	0.2	Lose2	0.6537999999999999	n/a	Yes	2.582	n/a	n/a	GoodResponse	0	n/a	n/a	25	77	Blank	AvoidedLoss	True
732.116	1.45	Lose2	0.6537999999999999	n/a	Yes	2.582	n/a	5.0	GoodResponse	0	0.043	731.159	25	77	Feedback	AvoidedLoss	True
733.57	2.582	Lose2	0.6537999999999999	n/a	Yes	2.582	n/a	n/a	GoodResponse	0	0.0	n/a	25	77	ISIslide	AvoidedLoss	True
