onset	duration	cue_type	current_mean_accuracy	duration_error	is_hit	isi_adjusted	onset_delay	response	response_type	reward	rt	rt_time	total_reward	trial_number	trial_phase	trial_type	one_press
11.105	0.25	Control	1.0	0.0	Yes	2.945	0.005	n/a	GoodResponse	0	n/a	n/a	0	0	Cue	Neutral	True
11.356	3.85	Control	1.0	0.0	Yes	2.945	0.001	n/a	GoodResponse	0	n/a	n/a	0	0	Fixation	Neutral	True
15.201	0.4	Control	1.0	0.004	Yes	2.945	-0.004	2.0	GoodResponse	0	0.252	14.453	0	0	Target	Neutral	True
15.453	0.3	Control	1.0	0.004	Yes	2.945	-0.004	2.0	GoodResponse	0	0.252	n/a	0	0	ButtonPress	Neutral	True
15.602	0.3	Control	1.0	n/a	Yes	2.945	n/a	n/a	GoodResponse	0	n/a	n/a	0	0	Blank	Neutral	True
15.903	1.45	Control	1.0	n/a	Yes	2.945	n/a	5.0	GoodResponse	0	0.024	14.927	0	0	Feedback	Neutral	True
17.357	2.945	Control	1.0	n/a	Yes	2.945	n/a	n/a	GoodResponse	0	0.0	n/a	0	0	ISIslide	Neutral	True
20.316	0.25	Lose2	1.0	0.0	Yes	2.784	0.016	n/a	GoodResponse	0	n/a	n/a	0	1	Cue	AvoidedLoss	True
20.567	4.0	Lose2	1.0	0.0	Yes	2.784	0.001	n/a	GoodResponse	0	n/a	n/a	0	1	Fixation	AvoidedLoss	True
24.562	0.39	Lose2	1.0	0.004	Yes	2.784	-0.004	2.0	GoodResponse	0	0.212	23.774	0	1	Target	AvoidedLoss	True
24.774	0.3	Lose2	1.0	0.004	Yes	2.784	-0.004	2.0	GoodResponse	0	0.212	n/a	0	1	ButtonPress	AvoidedLoss	True
24.963	0.31	Lose2	1.0	n/a	Yes	2.784	n/a	n/a	GoodResponse	0	n/a	n/a	0	1	Blank	AvoidedLoss	True
25.264	1.45	Lose2	1.0	n/a	Yes	2.784	n/a	5.0	GoodResponse	0	0.029	24.293	0	1	Feedback	AvoidedLoss	True
26.718	2.784	Lose2	1.0	n/a	Yes	2.784	n/a	n/a	GoodResponse	0	0.0	n/a	0	1	ISIslide	AvoidedLoss	True
29.527	0.25	Control	1.0	0.0	Yes	2.573	0.027	n/a	GoodResponse	0	n/a	n/a	0	2	Cue	Neutral	True
29.778	4.1	Control	1.0	0.0	Yes	2.573	0.001	n/a	GoodResponse	0	n/a	n/a	0	2	Fixation	Neutral	True
33.873	0.38	Control	1.0	0.004	Yes	2.573	-0.004	2.0	GoodResponse	0	0.218	33.091	0	2	Target	Neutral	True
34.091	0.3	Control	1.0	0.004	Yes	2.573	-0.004	2.0	GoodResponse	0	0.218	n/a	0	2	ButtonPress	Neutral	True
34.258	0.32	Control	1.0	n/a	Yes	2.573	n/a	n/a	GoodResponse	0	n/a	n/a	0	2	Blank	Neutral	True
34.575	1.45	Control	1.0	n/a	Yes	2.573	n/a	5.0	GoodResponse	0	0.034	33.609	0	2	Feedback	Neutral	True
36.03	2.573	Control	1.0	n/a	Yes	2.573	n/a	n/a	GoodResponse	0	0.0	n/a	0	2	ISIslide	Neutral	True
38.621	0.25	Win2	1.0	0.0	Yes	2.829	0.021	n/a	GoodResponse	1	n/a	n/a	1	3	Cue	Win	True
38.871	3.95	Win2	1.0	0.001	Yes	2.829	0.0	n/a	GoodResponse	1	n/a	n/a	1	3	Fixation	Win	True
42.817	0.37	Win2	1.0	0.004	Yes	2.829	-0.004	2.0	GoodResponse	1	0.215	42.032	1	3	Target	Win	True
43.032	0.3	Win2	1.0	0.004	Yes	2.829	-0.004	2.0	GoodResponse	1	0.215	n/a	1	3	ButtonPress	Win	True
43.201	0.33	Win2	1.0	n/a	Yes	2.829	n/a	n/a	GoodResponse	1	n/a	n/a	1	3	Blank	Win	True
43.519	1.45	Win2	1.0	n/a	Yes	2.829	n/a	5.0	GoodResponse	1	0.017	42.536	1	3	Feedback	Win	True
44.973	2.829	Win2	1.0	n/a	Yes	2.829	n/a	n/a	GoodResponse	1	0.0	n/a	1	3	ISIslide	Win	True
47.815	0.25	Win2	1.0	0.0	Yes	3.285	0.015	n/a	GoodResponse	1	n/a	n/a	2	4	Cue	Win	True
48.066	4.0	Win2	1.0	0.0	Yes	3.285	0.001	n/a	GoodResponse	1	n/a	n/a	2	4	Fixation	Win	True
52.061	0.36	Win2	1.0	0.004	Yes	3.285	-0.004	2.0	GoodResponse	1	0.215	51.276	2	4	Target	Win	True
52.276	0.3	Win2	1.0	0.004	Yes	3.285	-0.004	2.0	GoodResponse	1	0.215	n/a	2	4	ButtonPress	Win	True
52.429	0.34	Win2	1.0	n/a	Yes	3.285	n/a	n/a	GoodResponse	1	n/a	n/a	2	4	Blank	Win	True
52.763	1.45	Win2	1.0	n/a	Yes	3.285	n/a	5.0	GoodResponse	1	0.041	51.804	2	4	Feedback	Win	True
54.217	3.285	Win2	1.0	n/a	Yes	3.285	n/a	n/a	GoodResponse	1	0.0	n/a	2	4	ISIslide	Win	True
57.527	0.25	Win2	1.0	0.0	Yes	2.773	0.027	n/a	GoodResponse	1	n/a	n/a	3	5	Cue	Win	True
57.778	4.0	Win2	1.0	0.0	Yes	2.773	0.001	n/a	GoodResponse	1	n/a	n/a	3	5	Fixation	Win	True
61.773	0.35	Win2	1.0	0.004	Yes	2.773	-0.004	2.0	GoodResponse	1	0.221	60.994	3	5	Target	Win	True
61.994	0.3	Win2	1.0	0.004	Yes	2.773	-0.004	2.0	GoodResponse	1	0.221	n/a	3	5	ButtonPress	Win	True
62.124	0.35	Win2	1.0	n/a	Yes	2.773	n/a	n/a	GoodResponse	1	n/a	n/a	3	5	Blank	Win	True
62.475	1.45	Win2	1.0	n/a	Yes	2.773	n/a	5.0	GoodResponse	1	0.037	61.512	3	5	Feedback	Win	True
63.93	2.773	Win2	1.0	n/a	Yes	2.773	n/a	n/a	GoodResponse	1	0.0	n/a	3	5	ISIslide	Win	True
66.721	0.25	Lose2	1.0	0.0	Yes	2.729	0.021	n/a	GoodResponse	0	n/a	n/a	3	6	Cue	AvoidedLoss	True
66.972	3.95	Lose2	1.0	0.0	Yes	2.729	0.001	n/a	GoodResponse	0	n/a	n/a	3	6	Fixation	AvoidedLoss	True
70.917	0.34	Lose2	1.0	0.004	Yes	2.729	-0.004	2.0	GoodResponse	0	0.233	70.15	3	6	Target	AvoidedLoss	True
71.15	0.3	Lose2	1.0	0.004	Yes	2.729	-0.004	2.0	GoodResponse	0	0.233	n/a	3	6	ButtonPress	AvoidedLoss	True
71.268	0.36	Lose2	1.0	n/a	Yes	2.729	n/a	n/a	GoodResponse	0	n/a	n/a	3	6	Blank	AvoidedLoss	True
71.619	1.45	Lose2	1.0	n/a	Yes	2.729	n/a	5.0	GoodResponse	0	0.015	70.634	3	6	Feedback	AvoidedLoss	True
73.074	2.729	Lose2	1.0	n/a	Yes	2.729	n/a	n/a	GoodResponse	0	0.0	n/a	3	6	ISIslide	AvoidedLoss	True
75.815	0.25	Lose2	1.0	0.0	Yes	4.035	0.015	n/a	GoodResponse	0	n/a	n/a	3	7	Cue	AvoidedLoss	True
76.066	4.05	Lose2	1.0	0.0	Yes	4.035	0.001	n/a	GoodResponse	0	n/a	n/a	3	7	Fixation	AvoidedLoss	True
80.111	0.33	Lose2	1.0	0.004	Yes	4.035	-0.004	2.0	GoodResponse	0	0.195	79.306	3	7	Target	AvoidedLoss	True
80.306	0.3	Lose2	1.0	0.004	Yes	4.035	-0.004	2.0	GoodResponse	0	0.195	n/a	3	7	ButtonPress	AvoidedLoss	True
80.446	0.37	Lose2	1.0	n/a	Yes	4.035	n/a	n/a	GoodResponse	0	n/a	n/a	3	7	Blank	AvoidedLoss	True
80.814	1.45	Lose2	1.0	n/a	Yes	4.035	n/a	5.0	GoodResponse	0	0.039	79.853	3	7	Feedback	AvoidedLoss	True
82.268	4.035	Lose2	1.0	n/a	Yes	4.035	n/a	n/a	GoodResponse	0	0.0	n/a	3	7	ISIslide	AvoidedLoss	True
86.33	0.25	Lose2	1.0	0.0	Yes	3.02	0.03	n/a	GoodResponse	0	n/a	n/a	3	8	Cue	AvoidedLoss	True
86.581	3.95	Lose2	1.0	0.0	Yes	3.02	0.001	n/a	GoodResponse	0	n/a	n/a	3	8	Fixation	AvoidedLoss	True
90.526	0.32	Lose2	1.0	0.004	Yes	3.02	-0.004	2.0	GoodResponse	0	0.284	89.81	3	8	Target	AvoidedLoss	True
90.81	0.3	Lose2	1.0	0.004	Yes	3.02	-0.004	2.0	GoodResponse	0	0.284	n/a	3	8	ButtonPress	AvoidedLoss	True
90.86	0.38	Lose2	1.0	n/a	Yes	3.02	n/a	n/a	GoodResponse	0	n/a	n/a	3	8	Blank	AvoidedLoss	True
91.228	1.45	Lose2	1.0	n/a	Yes	3.02	n/a	5.0	GoodResponse	0	0.015	90.243	3	8	Feedback	AvoidedLoss	True
92.682	3.02	Lose2	1.0	n/a	Yes	3.02	n/a	n/a	GoodResponse	0	0.0	n/a	3	8	ISIslide	AvoidedLoss	True
95.725	0.25	Lose2	1.0	0.0	Yes	3.125	0.025	n/a	GoodResponse	0	n/a	n/a	3	9	Cue	AvoidedLoss	True
95.976	3.95	Lose2	1.0	0.0	Yes	3.125	0.001	n/a	GoodResponse	0	n/a	n/a	3	9	Fixation	AvoidedLoss	True
99.921	0.31	Lose2	1.0	0.004	Yes	3.125	-0.004	2.0	GoodResponse	0	0.237	99.158	3	9	Target	AvoidedLoss	True
100.158	0.3	Lose2	1.0	0.004	Yes	3.125	-0.004	2.0	GoodResponse	0	0.237	n/a	3	9	ButtonPress	AvoidedLoss	True
100.238	0.39	Lose2	1.0	n/a	Yes	3.125	n/a	n/a	GoodResponse	0	n/a	n/a	3	9	Blank	AvoidedLoss	True
100.623	1.45	Lose2	1.0	n/a	Yes	3.125	n/a	5.0	GoodResponse	0	0.035	99.658	3	9	Feedback	AvoidedLoss	True
102.077	3.125	Lose2	1.0	n/a	Yes	3.125	n/a	n/a	GoodResponse	0	0.0	n/a	3	9	ISIslide	AvoidedLoss	True
105.22	0.25	Control	1.0	0.0	Yes	3.28	0.02	n/a	GoodResponse	0	n/a	n/a	3	10	Cue	Neutral	True
105.471	4.0	Control	1.0	0.0	Yes	3.28	0.001	n/a	GoodResponse	0	n/a	n/a	3	10	Fixation	Neutral	True
109.466	0.3	Control	1.0	0.004	Yes	3.28	-0.004	2.0	GoodResponse	0	0.189	108.655	3	10	Target	Neutral	True
109.655	0.3	Control	1.0	0.004	Yes	3.28	-0.004	2.0	GoodResponse	0	0.189	n/a	3	10	ButtonPress	Neutral	True
109.767	0.4	Control	1.0	n/a	Yes	3.28	n/a	n/a	GoodResponse	0	n/a	n/a	3	10	Blank	Neutral	True
110.168	1.45	Control	1.0	n/a	Yes	3.28	n/a	5.0	GoodResponse	0	0.002	109.17	3	10	Feedback	Neutral	True
111.622	3.28	Control	1.0	n/a	Yes	3.28	n/a	n/a	GoodResponse	0	0.0	n/a	3	10	ISIslide	Neutral	True
114.916	0.25	Lose2	1.0	0.0	Yes	2.734	0.016	n/a	GoodResponse	0	n/a	n/a	3	11	Cue	AvoidedLoss	True
115.166	4.05	Lose2	1.0	0.0	Yes	2.734	0.0	n/a	GoodResponse	0	n/a	n/a	3	11	Fixation	AvoidedLoss	True
119.212	0.29	Lose2	1.0	0.004	Yes	2.734	-0.004	2.0	GoodResponse	0	0.213	118.425	3	11	Target	AvoidedLoss	True
119.425	0.3	Lose2	1.0	0.004	Yes	2.734	-0.004	2.0	GoodResponse	0	0.213	n/a	3	11	ButtonPress	AvoidedLoss	True
119.513	0.41	Lose2	1.0	n/a	Yes	2.734	n/a	n/a	GoodResponse	0	n/a	n/a	3	11	Blank	AvoidedLoss	True
119.914	1.45	Lose2	1.0	n/a	Yes	2.734	n/a	5.0	GoodResponse	0	0.011	118.925	3	11	Feedback	AvoidedLoss	True
121.368	2.734	Lose2	1.0	n/a	Yes	2.734	n/a	n/a	GoodResponse	0	0.0	n/a	3	11	ISIslide	AvoidedLoss	True
124.126	0.25	Control	1.0	0.0	Yes	2.974	0.026	n/a	GoodResponse	0	n/a	n/a	3	12	Cue	Neutral	True
124.377	3.9	Control	1.0	0.0	Yes	2.974	0.001	n/a	GoodResponse	0	n/a	n/a	3	12	Fixation	Neutral	True
128.272	0.28	Control	1.0	0.004	Yes	2.974	-0.004	2.0	GoodResponse	0	0.216	127.488	3	12	Target	Neutral	True
128.488	0.3	Control	1.0	0.004	Yes	2.974	-0.004	2.0	GoodResponse	0	0.216	n/a	3	12	ButtonPress	Neutral	True
128.556	0.42	Control	1.0	n/a	Yes	2.974	n/a	n/a	GoodResponse	0	n/a	n/a	3	12	Blank	Neutral	True
128.974	1.45	Control	1.0	n/a	Yes	2.974	n/a	5.0	GoodResponse	0	0.024	127.998	3	12	Feedback	Neutral	True
130.429	2.974	Control	1.0	n/a	Yes	2.974	n/a	n/a	GoodResponse	0	0.0	n/a	3	12	ISIslide	Neutral	True
133.421	0.25	Control	0.9286	0.0	No	2.779	0.021	n/a	NoResponse	0	n/a	n/a	3	13	Cue	Neutral	True
133.672	4.0	Control	0.9286	0.0	No	2.779	0.001	n/a	NoResponse	0	n/a	n/a	3	13	Fixation	Neutral	True
137.667	0.27	Control	0.9286	0.004	No	2.779	-0.004	2.0	NoResponse	0	0.439	137.106	3	13	Target	Neutral	True
137.951	0.43	Control	0.9286	n/a	No	2.779	n/a	n/a	NoResponse	0	n/a	n/a	3	13	Blank	Neutral	True
138.106	0.3	Control	0.9286	0.004	No	2.779	-0.004	2.0	NoResponse	0	0.439	n/a	3	13	ButtonPress	Neutral	True
138.369	1.45	Control	0.9286	n/a	No	2.779	n/a	5.0	NoResponse	0	0.044	137.413	3	13	Feedback	Neutral	True
139.823	2.779	Control	0.9286	n/a	No	2.779	n/a	n/a	NoResponse	0	0.0	n/a	3	13	ISIslide	Neutral	True
142.615	0.25	Win2	0.9333	0.0	Yes	2.685	0.015	n/a	GoodResponse	1	n/a	n/a	4	14	Cue	Win	True
142.866	4.1	Win2	0.9333	0.0	Yes	2.685	0.001	n/a	GoodResponse	1	n/a	n/a	4	14	Fixation	Win	True
146.961	0.26	Win2	0.9333	0.004	Yes	2.685	-0.004	2.0	GoodResponse	1	0.221	146.182	4	14	Target	Win	True
147.182	0.3	Win2	0.9333	0.004	Yes	2.685	-0.004	2.0	GoodResponse	1	0.221	n/a	4	14	ButtonPress	Win	True
147.229	0.44	Win2	0.9333	n/a	Yes	2.685	n/a	n/a	GoodResponse	1	n/a	n/a	4	14	Blank	Win	True
147.663	1.45	Win2	0.9333	n/a	Yes	2.685	n/a	5.0	GoodResponse	1	0.018	146.681	4	14	Feedback	Win	True
149.118	2.685	Win2	0.9333	n/a	Yes	2.685	n/a	n/a	GoodResponse	1	0.0	n/a	4	14	ISIslide	Win	True
151.826	0.25	Control	0.875	0.0	No	2.974	0.026	n/a	NoResponse	0	n/a	n/a	4	15	Cue	Neutral	True
152.077	4.0	Control	0.875	0.0	No	2.974	0.001	n/a	NoResponse	0	n/a	n/a	4	15	Fixation	Neutral	True
156.072	0.25	Control	0.875	0.004	No	2.974	-0.004	2.0	NoResponse	0	0.263	155.335	4	15	Target	Neutral	True
156.323	0.45	Control	0.875	n/a	No	2.974	n/a	n/a	NoResponse	0	n/a	n/a	4	15	Blank	Neutral	True
156.335	0.3	Control	0.875	0.004	No	2.974	-0.004	2.0	NoResponse	0	0.263	n/a	4	15	ButtonPress	Neutral	True
156.774	1.45	Control	0.875	n/a	No	2.974	n/a	5.0	NoResponse	0	0.029	155.803	4	15	Feedback	Neutral	True
158.228	2.974	Control	0.875	n/a	No	2.974	n/a	n/a	NoResponse	0	0.0	n/a	4	15	ISIslide	Neutral	True
161.221	0.25	Win2	0.8234999999999999	0.0	No	2.879	0.021	n/a	LatePress	0	n/a	n/a	4	16	Cue	MissedWin	True
161.471	4.0	Win2	0.8234999999999999	0.0	No	2.879	0.0	n/a	LatePress	0	n/a	n/a	4	16	Fixation	MissedWin	True
165.467	0.24	Win2	0.8234999999999999	0.004	No	2.879	-0.004	2.0	LatePress	0	0.25	164.717	4	16	Target	MissedWin	True
165.717	0.46	Win2	0.8234999999999999	n/a	No	2.879	n/a	n/a	LatePress	0	n/a	n/a	4	16	Blank	MissedWin	True
165.717	0.3	Win2	0.8234999999999999	0.004	No	2.879	-0.004	2.0	LatePress	0	0.25	n/a	4	16	ButtonPress	MissedWin	True
166.169	1.45	Win2	0.8234999999999999	n/a	No	2.879	n/a	5.0	LatePress	0	0.048	165.217	4	16	Feedback	MissedWin	True
167.623	2.879	Win2	0.8234999999999999	n/a	No	2.879	n/a	n/a	LatePress	0	0.0	n/a	4	16	ISIslide	MissedWin	True
170.515	0.25	Lose2	0.8332999999999999	0.0	Yes	2.735	0.015	n/a	GoodResponse	0	n/a	n/a	4	17	Cue	AvoidedLoss	True
170.766	3.95	Lose2	0.8332999999999999	0.0	Yes	2.735	0.001	n/a	GoodResponse	0	n/a	n/a	4	17	Fixation	AvoidedLoss	True
174.711	0.23	Lose2	0.8332999999999999	0.004	Yes	2.735	-0.004	2.0	GoodResponse	0	0.213	173.924	4	17	Target	AvoidedLoss	True
174.924	0.3	Lose2	0.8332999999999999	0.004	Yes	2.735	-0.004	2.0	GoodResponse	0	0.213	n/a	4	17	ButtonPress	AvoidedLoss	True
174.945	0.47	Lose2	0.8332999999999999	n/a	Yes	2.735	n/a	n/a	GoodResponse	0	n/a	n/a	4	17	Blank	AvoidedLoss	True
175.413	1.45	Lose2	0.8332999999999999	n/a	Yes	2.735	n/a	5.0	GoodResponse	0	0.024	174.437	4	17	Feedback	AvoidedLoss	True
176.867	2.735	Lose2	0.8332999999999999	n/a	Yes	2.735	n/a	n/a	GoodResponse	0	0.0	n/a	4	17	ISIslide	AvoidedLoss	True
179.626	0.25	Lose2	0.8421	0.0	Yes	2.724	0.026	n/a	GoodResponse	0	n/a	n/a	4	18	Cue	AvoidedLoss	True
179.876	4.05	Lose2	0.8421	0.0	Yes	2.724	0.0	n/a	GoodResponse	0	n/a	n/a	4	18	Fixation	AvoidedLoss	True
183.922	0.22	Lose2	0.8421	0.004	Yes	2.724	-0.004	2.0	GoodResponse	0	0.215	183.137	4	18	Target	AvoidedLoss	True
184.137	0.3	Lose2	0.8421	0.004	Yes	2.724	-0.004	2.0	GoodResponse	0	0.215	n/a	4	18	ButtonPress	AvoidedLoss	True
184.156	0.48	Lose2	0.8421	n/a	Yes	2.724	n/a	n/a	GoodResponse	0	n/a	n/a	4	18	Blank	AvoidedLoss	True
184.624	1.45	Lose2	0.8421	n/a	Yes	2.724	n/a	5.0	GoodResponse	0	0.032	183.656	4	18	Feedback	AvoidedLoss	True
186.078	2.724	Lose2	0.8421	n/a	Yes	2.724	n/a	n/a	GoodResponse	0	0.0	n/a	4	18	ISIslide	AvoidedLoss	True
188.82	0.25	Control	0.8	0.0	No	2.93	0.02	n/a	NoResponse	0	n/a	n/a	4	19	Cue	Neutral	True
189.071	3.95	Control	0.8	0.0	No	2.93	0.001	n/a	NoResponse	0	n/a	n/a	4	19	Fixation	Neutral	True
193.016	0.21	Control	0.8	0.004	No	2.93	-0.004	2.0	NoResponse	0	0.261	192.277	4	19	Target	Neutral	True
193.233	0.49	Control	0.8	n/a	No	2.93	n/a	n/a	NoResponse	0	n/a	n/a	4	19	Blank	Neutral	True
193.277	0.3	Control	0.8	0.004	No	2.93	-0.004	2.0	NoResponse	0	0.261	n/a	4	19	ButtonPress	Neutral	True
193.718	1.45	Control	0.8	n/a	No	2.93	n/a	5.0	NoResponse	0	0.012	192.73	4	19	Feedback	Neutral	True
195.172	2.93	Control	0.8	n/a	No	2.93	n/a	n/a	NoResponse	0	0.0	n/a	4	19	ISIslide	Neutral	True
198.131	0.25	Control	0.7619	0.0	No	2.619	0.031	n/a	NoResponse	0	n/a	n/a	4	20	Cue	Neutral	True
198.382	4.05	Control	0.7619	0.0	No	2.619	0.001	n/a	NoResponse	0	n/a	n/a	4	20	Fixation	Neutral	True
202.427	0.2	Control	0.7619	0.004	No	2.619	-0.004	2.0	NoResponse	0	0.326	201.753	4	20	Target	Neutral	True
202.628	0.5	Control	0.7619	n/a	No	2.619	n/a	n/a	NoResponse	0	n/a	n/a	4	20	Blank	Neutral	True
202.753	0.3	Control	0.7619	0.004	No	2.619	-0.004	2.0	NoResponse	0	0.326	n/a	4	20	ButtonPress	Neutral	True
203.129	1.45	Control	0.7619	n/a	No	2.619	n/a	5.0	NoResponse	0	0.015	202.144	4	20	Feedback	Neutral	True
204.584	2.619	Control	0.7619	n/a	No	2.619	n/a	n/a	NoResponse	0	0.0	n/a	4	20	ISIslide	Neutral	True
207.225	0.25	Control	0.7273000000000001	0.0	No	2.775	0.025	n/a	NoResponse	0	n/a	n/a	4	21	Cue	Neutral	True
207.476	4.1	Control	0.7273000000000001	0.0	No	2.775	0.001	n/a	NoResponse	0	n/a	n/a	4	21	Fixation	Neutral	True
211.571	0.19	Control	0.7273000000000001	0.004	No	2.775	-0.004	2.0	NoResponse	0	0.243	210.814	4	21	Target	Neutral	True
211.772	0.51	Control	0.7273000000000001	n/a	No	2.775	n/a	n/a	NoResponse	0	n/a	n/a	4	21	Blank	Neutral	True
211.814	0.3	Control	0.7273000000000001	0.004	No	2.775	-0.004	2.0	NoResponse	0	0.243	n/a	4	21	ButtonPress	Neutral	True
212.273	1.45	Control	0.7273000000000001	n/a	No	2.775	n/a	5.0	NoResponse	0	0.041	211.314	4	21	Feedback	Neutral	True
213.728	2.775	Control	0.7273000000000001	n/a	No	2.775	n/a	n/a	NoResponse	0	0.0	n/a	4	21	ISIslide	Neutral	True
216.519	0.25	Control	0.6957	0.0	No	2.781	0.019	n/a	NoResponse	0	n/a	n/a	4	22	Cue	Neutral	True
216.77	4.0	Control	0.6957	0.0	No	2.781	0.001	n/a	NoResponse	0	n/a	n/a	4	22	Fixation	Neutral	True
220.765	0.18	Control	0.6957	0.004	No	2.781	-0.004	2.0	NoResponse	0	0.272	220.037	4	22	Target	Neutral	True
220.949	0.52	Control	0.6957	n/a	No	2.781	n/a	n/a	NoResponse	0	n/a	n/a	4	22	Blank	Neutral	True
221.037	0.3	Control	0.6957	0.004	No	2.781	-0.004	2.0	NoResponse	0	0.272	n/a	4	22	ButtonPress	Neutral	True
221.467	1.45	Control	0.6957	n/a	No	2.781	n/a	5.0	NoResponse	0	0.018	220.485	4	22	Feedback	Neutral	True
222.922	2.781	Control	0.6957	n/a	No	2.781	n/a	n/a	NoResponse	0	0.0	n/a	4	22	ISIslide	Neutral	True
225.73	0.25	Control	0.6667000000000001	0.0	No	2.77	0.03	n/a	NoResponse	0	n/a	n/a	4	23	Cue	Neutral	True
225.981	3.9	Control	0.6667000000000001	0.0	No	2.77	0.001	n/a	NoResponse	0	n/a	n/a	4	23	Fixation	Neutral	True
229.876	0.17	Control	0.6667000000000001	0.004	No	2.77	-0.004	2.0	NoResponse	0	0.293	229.169	4	23	Target	Neutral	True
230.06	0.53	Control	0.6667000000000001	n/a	No	2.77	n/a	n/a	NoResponse	0	n/a	n/a	4	23	Blank	Neutral	True
230.169	0.3	Control	0.6667000000000001	0.004	No	2.77	-0.004	2.0	NoResponse	0	0.293	n/a	4	23	ButtonPress	Neutral	True
230.578	1.45	Control	0.6667000000000001	n/a	No	2.77	n/a	5.0	NoResponse	0	0.029	229.607	4	23	Feedback	Neutral	True
232.032	2.77	Control	0.6667000000000001	n/a	No	2.77	n/a	n/a	NoResponse	0	0.0	n/a	4	23	ISIslide	Neutral	True
234.824	0.25	Win2	0.64	0.0	No	3.126	0.024	n/a	NoResponse	0	n/a	n/a	4	24	Cue	MissedWin	True
235.075	3.95	Win2	0.64	0.0	No	3.126	0.001	n/a	NoResponse	0	n/a	n/a	4	24	Fixation	MissedWin	True
239.02	0.16	Win2	0.64	0.004	No	3.126	-0.004	2.0	NoResponse	0	0.228	238.248	4	24	Target	MissedWin	True
239.187	0.54	Win2	0.64	n/a	No	3.126	n/a	n/a	NoResponse	0	n/a	n/a	4	24	Blank	MissedWin	True
239.248	0.3	Win2	0.64	0.004	No	3.126	-0.004	2.0	NoResponse	0	0.228	n/a	4	24	ButtonPress	MissedWin	True
239.722	1.45	Win2	0.64	n/a	No	3.126	n/a	5.0	NoResponse	0	0.007	238.729	4	24	Feedback	MissedWin	True
241.176	3.126	Win2	0.64	n/a	No	3.126	n/a	n/a	NoResponse	0	0.0	n/a	4	24	ISIslide	MissedWin	True
244.319	0.25	Win2	0.6154	0.0	No	3.081	0.019	n/a	NoResponse	0	n/a	n/a	4	25	Cue	MissedWin	True
244.57	4.0	Win2	0.6154	0.0	No	3.081	0.001	n/a	NoResponse	0	n/a	n/a	4	25	Fixation	MissedWin	True
248.565	0.17	Win2	0.6154	0.004	No	3.081	-0.004	2.0	NoResponse	0	0.193	247.758	4	25	Target	MissedWin	True
248.749	0.53	Win2	0.6154	n/a	No	3.081	n/a	n/a	NoResponse	0	n/a	n/a	4	25	Blank	MissedWin	True
248.758	0.3	Win2	0.6154	0.004	No	3.081	-0.004	2.0	NoResponse	0	0.193	n/a	4	25	ButtonPress	MissedWin	True
249.267	1.45	Win2	0.6154	n/a	No	3.081	n/a	5.0	NoResponse	0	0.022	248.289	4	25	Feedback	MissedWin	True
250.722	3.081	Win2	0.6154	n/a	No	3.081	n/a	n/a	NoResponse	0	0.0	n/a	4	25	ISIslide	MissedWin	True
253.831	0.25	Win2	0.5926	0.0	No	2.919	0.031	n/a	NoResponse	0	n/a	n/a	4	26	Cue	MissedWin	True
254.082	3.95	Win2	0.5926	0.0	No	2.919	0.001	n/a	NoResponse	0	n/a	n/a	4	26	Fixation	MissedWin	True
258.027	0.18	Win2	0.5926	0.004	No	2.919	-0.004	2.0	NoResponse	0	0.191	257.218	4	26	Target	MissedWin	True
258.211	0.52	Win2	0.5926	n/a	No	2.919	n/a	n/a	NoResponse	0	n/a	n/a	4	26	Blank	MissedWin	True
258.218	0.3	Win2	0.5926	0.004	No	2.919	-0.004	2.0	NoResponse	0	0.191	n/a	4	26	ButtonPress	MissedWin	True
258.729	1.45	Win2	0.5926	n/a	No	2.919	n/a	5.0	NoResponse	0	0.024	257.753	4	26	Feedback	MissedWin	True
260.183	2.919	Win2	0.5926	n/a	No	2.919	n/a	n/a	NoResponse	0	0.0	n/a	4	26	ISIslide	MissedWin	True
263.125	0.25	Lose2	0.5714	0.0	No	2.825	0.025	n/a	LatePress	-1	n/a	n/a	3	27	Cue	Loss	True
263.376	4.05	Lose2	0.5714	0.0	No	2.825	0.001	n/a	LatePress	-1	n/a	n/a	3	27	Fixation	Loss	True
267.421	0.19	Lose2	0.5714	0.004	No	2.825	-0.004	2.0	LatePress	-1	0.194	266.615	3	27	Target	Loss	True
267.615	0.3	Lose2	0.5714	0.004	No	2.825	-0.004	2.0	LatePress	-1	0.194	n/a	3	27	ButtonPress	Loss	True
267.622	0.51	Lose2	0.5714	n/a	No	2.825	n/a	n/a	LatePress	-1	n/a	n/a	3	27	Blank	Loss	True
268.124	1.45	Lose2	0.5714	n/a	No	2.825	n/a	5.0	LatePress	-1	0.044	267.168	3	27	Feedback	Loss	True
269.578	2.825	Lose2	0.5714	n/a	No	2.825	n/a	n/a	LatePress	-1	0.0	n/a	3	27	ISIslide	Loss	True
272.42	0.25	Control	0.5517	0.0	No	2.83	0.02	n/a	NoResponse	0	n/a	n/a	3	28	Cue	Neutral	False
272.671	4.05	Control	0.5517	0.0	No	2.83	0.001	2.0	NoResponse	0	3.654	275.325	3	28	Fixation	Neutral	False
276.325	0.3	Control	0.5517	0.0	No	2.83	0.001	2.0	NoResponse	0	3.654	n/a	3	28	ButtonPress	Neutral	False
276.716	0.2	Control	0.5517	0.004	No	2.83	-0.004	2.0	NoResponse	0	0.283	275.999	3	28	Target	Neutral	False
276.917	0.5	Control	0.5517	n/a	No	2.83	n/a	n/a	NoResponse	0	n/a	n/a	3	28	Blank	Neutral	False
276.999	0.3	Control	0.5517	0.004	No	2.83	-0.004	2.0	NoResponse	0	0.283	n/a	3	28	ButtonPress	Neutral	False
277.418	1.45	Control	0.5517	n/a	No	2.83	n/a	5.0	NoResponse	0	0.018	276.436	3	28	Feedback	Neutral	False
278.872	2.83	Control	0.5517	n/a	No	2.83	n/a	n/a	NoResponse	0	0.0	n/a	3	28	ISIslide	Neutral	False
281.731	0.25	Lose2	0.5667	0.0	Yes	2.819	0.031	n/a	GoodResponse	0	n/a	n/a	3	29	Cue	AvoidedLoss	True
281.982	3.95	Lose2	0.5667	0.0	Yes	2.819	0.001	n/a	GoodResponse	0	n/a	n/a	3	29	Fixation	AvoidedLoss	True
285.927	0.21	Lose2	0.5667	0.004	Yes	2.819	-0.004	2.0	GoodResponse	0	0.194	285.121	3	29	Target	AvoidedLoss	True
286.121	0.3	Lose2	0.5667	0.004	Yes	2.819	-0.004	2.0	GoodResponse	0	0.194	n/a	3	29	ButtonPress	AvoidedLoss	True
286.144	0.49	Lose2	0.5667	n/a	Yes	2.819	n/a	n/a	GoodResponse	0	n/a	n/a	3	29	Blank	AvoidedLoss	True
286.629	1.45	Lose2	0.5667	n/a	Yes	2.819	n/a	5.0	GoodResponse	0	0.026	285.655	3	29	Feedback	AvoidedLoss	True
288.083	2.819	Lose2	0.5667	n/a	Yes	2.819	n/a	n/a	GoodResponse	0	0.0	n/a	3	29	ISIslide	AvoidedLoss	True
290.925	0.25	Win2	0.5806	0.0	Yes	2.775	0.025	n/a	GoodResponse	1	n/a	n/a	4	30	Cue	Win	True
291.176	3.9	Win2	0.5806	0.0	Yes	2.775	0.001	n/a	GoodResponse	1	n/a	n/a	4	30	Fixation	Win	True
295.071	0.22	Win2	0.5806	0.004	Yes	2.775	-0.004	2.0	GoodResponse	1	0.181	294.252	4	30	Target	Win	True
295.252	0.3	Win2	0.5806	0.004	Yes	2.775	-0.004	2.0	GoodResponse	1	0.181	n/a	4	30	ButtonPress	Win	True
295.305	0.48	Win2	0.5806	n/a	Yes	2.775	n/a	n/a	GoodResponse	1	n/a	n/a	4	30	Blank	Win	True
295.773	1.45	Win2	0.5806	n/a	Yes	2.775	n/a	5.0	GoodResponse	1	0.008	294.781	4	30	Feedback	Win	True
297.227	2.775	Win2	0.5806	n/a	Yes	2.775	n/a	n/a	GoodResponse	1	0.0	n/a	4	30	ISIslide	Win	True
300.019	0.25	Lose2	0.5938	0.0	Yes	2.831	0.019	n/a	GoodResponse	0	n/a	n/a	4	31	Cue	AvoidedLoss	True
300.27	4.05	Lose2	0.5938	0.0	Yes	2.831	0.001	n/a	GoodResponse	0	n/a	n/a	4	31	Fixation	AvoidedLoss	True
304.315	0.23	Lose2	0.5938	0.004	Yes	2.831	-0.004	2.0	GoodResponse	0	0.228	303.543	4	31	Target	AvoidedLoss	True
304.543	0.3	Lose2	0.5938	0.004	Yes	2.831	-0.004	2.0	GoodResponse	0	0.228	n/a	4	31	ButtonPress	AvoidedLoss	True
304.549	0.47	Lose2	0.5938	n/a	Yes	2.831	n/a	n/a	GoodResponse	0	n/a	n/a	4	31	Blank	AvoidedLoss	True
305.017	1.45	Lose2	0.5938	n/a	Yes	2.831	n/a	5.0	GoodResponse	0	0.028	304.045	4	31	Feedback	AvoidedLoss	True
306.472	2.831	Lose2	0.5938	n/a	Yes	2.831	n/a	n/a	GoodResponse	0	0.0	n/a	4	31	ISIslide	AvoidedLoss	True
309.33	0.25	Lose2	0.6061	0.0	Yes	2.62	0.03	n/a	GoodResponse	0	n/a	n/a	4	32	Cue	AvoidedLoss	True
309.581	4.15	Lose2	0.6061	0.0	Yes	2.62	0.001	n/a	GoodResponse	0	n/a	n/a	4	32	Fixation	AvoidedLoss	True
313.727	0.24	Lose2	0.6061	0.003	Yes	2.62	-0.003	2.0	GoodResponse	0	0.173	312.9	4	32	Target	AvoidedLoss	True
313.9	0.3	Lose2	0.6061	0.003	Yes	2.62	-0.003	2.0	GoodResponse	0	0.173	n/a	4	32	ButtonPress	AvoidedLoss	True
313.977	0.46	Lose2	0.6061	n/a	Yes	2.62	n/a	n/a	GoodResponse	0	n/a	n/a	4	32	Blank	AvoidedLoss	True
314.429	1.45	Lose2	0.6061	n/a	Yes	2.62	n/a	5.0	GoodResponse	0	0.031	313.46	4	32	Feedback	AvoidedLoss	True
315.883	2.62	Lose2	0.6061	n/a	Yes	2.62	n/a	n/a	GoodResponse	0	0.0	n/a	4	32	ISIslide	AvoidedLoss	True
318.524	0.25	Win2	0.6175999999999999	0.0	Yes	2.676	0.024	n/a	GoodResponse	1	n/a	n/a	5	33	Cue	Win	True
318.775	4.0	Win2	0.6175999999999999	0.0	Yes	2.676	0.001	n/a	GoodResponse	1	n/a	n/a	5	33	Fixation	Win	True
322.77	0.25	Win2	0.6175999999999999	0.004	Yes	2.676	-0.004	2.0	GoodResponse	1	0.194	321.964	5	33	Target	Win	True
322.964	0.3	Win2	0.6175999999999999	0.004	Yes	2.676	-0.004	2.0	GoodResponse	1	0.194	n/a	5	33	ButtonPress	Win	True
323.021	0.45	Win2	0.6175999999999999	n/a	Yes	2.676	n/a	n/a	GoodResponse	1	n/a	n/a	5	33	Blank	Win	True
323.472	1.45	Win2	0.6175999999999999	n/a	Yes	2.676	n/a	5.0	GoodResponse	1	0.012	322.484	5	33	Feedback	Win	True
324.927	2.676	Win2	0.6175999999999999	n/a	Yes	2.676	n/a	n/a	GoodResponse	1	0.0	n/a	5	33	ISIslide	Win	True
327.618	0.25	Lose2	0.6286	0.0	Yes	2.632	0.018	n/a	GoodResponse	0	n/a	n/a	5	34	Cue	AvoidedLoss	True
327.869	4.05	Lose2	0.6286	0.0	Yes	2.632	0.001	n/a	GoodResponse	0	n/a	n/a	5	34	Fixation	AvoidedLoss	True
331.914	0.26	Lose2	0.6286	0.004	Yes	2.632	-0.004	2.0	GoodResponse	0	0.197	331.111	5	34	Target	AvoidedLoss	True
332.111	0.3	Lose2	0.6286	0.004	Yes	2.632	-0.004	2.0	GoodResponse	0	0.197	n/a	5	34	ButtonPress	AvoidedLoss	True
332.182	0.44	Lose2	0.6286	n/a	Yes	2.632	n/a	n/a	GoodResponse	0	n/a	n/a	5	34	Blank	AvoidedLoss	True
332.616	1.45	Lose2	0.6286	n/a	Yes	2.632	n/a	5.0	GoodResponse	0	0.039	331.655	5	34	Feedback	AvoidedLoss	True
334.071	2.632	Lose2	0.6286	n/a	Yes	2.632	n/a	n/a	GoodResponse	0	0.0	n/a	5	34	ISIslide	AvoidedLoss	True
336.729	0.25	Lose2	0.6389	0.0	Yes	2.671	0.029	n/a	GoodResponse	0	n/a	n/a	5	35	Cue	AvoidedLoss	True
336.979	4.0	Lose2	0.6389	0.001	Yes	2.671	0.0	n/a	GoodResponse	0	n/a	n/a	5	35	Fixation	AvoidedLoss	True
340.975	0.27	Lose2	0.6389	0.004	Yes	2.671	-0.004	2.0	GoodResponse	0	0.265	340.24	5	35	Target	AvoidedLoss	True
341.24	0.3	Lose2	0.6389	0.004	Yes	2.671	-0.004	2.0	GoodResponse	0	0.265	n/a	5	35	ButtonPress	AvoidedLoss	True
341.259	0.43	Lose2	0.6389	n/a	Yes	2.671	n/a	n/a	GoodResponse	0	n/a	n/a	5	35	Blank	AvoidedLoss	True
341.677	1.45	Lose2	0.6389	n/a	Yes	2.671	n/a	5.0	GoodResponse	0	0.001	340.678	5	35	Feedback	AvoidedLoss	True
343.131	2.671	Lose2	0.6389	n/a	Yes	2.671	n/a	n/a	GoodResponse	0	0.0	n/a	5	35	ISIslide	AvoidedLoss	True
345.823	0.25	Control	0.6486	0.0	Yes	2.677	0.023	n/a	GoodResponse	0	n/a	n/a	5	36	Cue	Neutral	True
346.073	4.0	Control	0.6486	0.0	Yes	2.677	0.0	n/a	GoodResponse	0	n/a	n/a	5	36	Fixation	Neutral	True
350.069	0.28	Control	0.6486	0.004	Yes	2.677	-0.004	2.0	GoodResponse	0	0.231	349.3	5	36	Target	Neutral	True
350.3	0.3	Control	0.6486	0.004	Yes	2.677	-0.004	2.0	GoodResponse	0	0.231	n/a	5	36	ButtonPress	Neutral	True
350.353	0.42	Control	0.6486	n/a	Yes	2.677	n/a	n/a	GoodResponse	0	n/a	n/a	5	36	Blank	Neutral	True
350.771	1.45	Control	0.6486	n/a	Yes	2.677	n/a	5.0	GoodResponse	0	0.029	349.8	5	36	Feedback	Neutral	True
352.225	2.677	Control	0.6486	n/a	Yes	2.677	n/a	n/a	GoodResponse	0	0.0	n/a	5	36	ISIslide	Neutral	True
354.916	0.25	Win2	0.6579	0.0	Yes	2.884	0.016	n/a	GoodResponse	1	n/a	n/a	6	37	Cue	Win	True
355.167	4.0	Win2	0.6579	0.0	Yes	2.884	0.001	n/a	GoodResponse	1	n/a	n/a	6	37	Fixation	Win	True
359.162	0.29	Win2	0.6579	0.004	Yes	2.884	-0.004	2.0	GoodResponse	1	0.281	358.443	6	37	Target	Win	True
359.443	0.3	Win2	0.6579	0.004	Yes	2.884	-0.004	2.0	GoodResponse	1	0.281	n/a	6	37	ButtonPress	Win	True
359.463	0.41	Win2	0.6579	n/a	Yes	2.884	n/a	n/a	GoodResponse	1	n/a	n/a	6	37	Blank	Win	True
359.865	1.45	Win2	0.6579	n/a	Yes	2.884	n/a	5.0	GoodResponse	1	0.009	358.874	6	37	Feedback	Win	True
361.319	2.884	Win2	0.6579	n/a	Yes	2.884	n/a	n/a	GoodResponse	1	0.0	n/a	6	37	ISIslide	Win	True
364.228	0.25	Lose2	0.6409999999999999	0.0	No	2.822	0.028	n/a	LatePress	-1	n/a	n/a	5	38	Cue	Loss	True
364.478	3.95	Lose2	0.6409999999999999	0.0	No	2.822	0.0	n/a	LatePress	-1	n/a	n/a	5	38	Fixation	Loss	True
368.423	0.29	Lose2	0.6409999999999999	0.005	No	2.822	-0.005	2.0	LatePress	-1	0.29	367.713	5	38	Target	Loss	True
368.713	0.3	Lose2	0.6409999999999999	0.005	No	2.822	-0.005	2.0	LatePress	-1	0.29	n/a	5	38	ButtonPress	Loss	True
368.724	0.41	Lose2	0.6409999999999999	n/a	No	2.822	n/a	n/a	LatePress	-1	n/a	n/a	5	38	Blank	Loss	True
369.126	1.45	Lose2	0.6409999999999999	n/a	No	2.822	n/a	5.0	LatePress	-1	0.016	368.142	5	38	Feedback	Loss	True
370.58	2.822	Lose2	0.6409999999999999	n/a	No	2.822	n/a	n/a	LatePress	-1	0.0	n/a	5	38	ISIslide	Loss	True
373.422	0.25	Win2	0.65	0.0	Yes	2.978	0.022	n/a	GoodResponse	1	n/a	n/a	6	39	Cue	Win	True
373.673	4.1	Win2	0.65	0.0	Yes	2.978	0.001	n/a	GoodResponse	1	n/a	n/a	6	39	Fixation	Win	True
377.768	0.3	Win2	0.65	0.004	Yes	2.978	-0.004	2.0	GoodResponse	1	0.17	376.938	6	39	Target	Win	True
377.938	0.3	Win2	0.65	0.004	Yes	2.978	-0.004	2.0	GoodResponse	1	0.17	n/a	6	39	ButtonPress	Win	True
378.069	0.4	Win2	0.65	n/a	Yes	2.978	n/a	n/a	GoodResponse	1	n/a	n/a	6	39	Blank	Win	True
378.47	1.45	Win2	0.65	n/a	Yes	2.978	n/a	5.0	GoodResponse	1	0.037	377.507	6	39	Feedback	Win	True
379.925	2.978	Win2	0.65	n/a	Yes	2.978	n/a	n/a	GoodResponse	1	0.0	n/a	6	39	ISIslide	Win	True
382.917	0.25	Win2	0.6585	0.0	Yes	2.733	0.017	n/a	GoodResponse	1	n/a	n/a	7	40	Cue	Win	True
383.168	3.95	Win2	0.6585	0.0	Yes	2.733	0.001	n/a	GoodResponse	1	n/a	n/a	7	40	Fixation	Win	True
387.113	0.31	Win2	0.6585	0.004	Yes	2.733	-0.004	2.0	GoodResponse	1	0.208	386.321	7	40	Target	Win	True
387.321	0.3	Win2	0.6585	0.004	Yes	2.733	-0.004	2.0	GoodResponse	1	0.208	n/a	7	40	ButtonPress	Win	True
387.43	0.39	Win2	0.6585	n/a	Yes	2.733	n/a	n/a	GoodResponse	1	n/a	n/a	7	40	Blank	Win	True
387.815	1.45	Win2	0.6585	n/a	Yes	2.733	n/a	5.0	GoodResponse	1	0.009	386.824	7	40	Feedback	Win	True
389.269	2.733	Win2	0.6585	n/a	Yes	2.733	n/a	n/a	GoodResponse	1	0.0	n/a	7	40	ISIslide	Win	True
392.027	0.25	Win2	0.6667000000000001	0.0	Yes	2.773	0.027	n/a	GoodResponse	1	n/a	n/a	8	41	Cue	Win	True
392.278	3.9	Win2	0.6667000000000001	0.0	Yes	2.773	0.001	n/a	GoodResponse	1	n/a	n/a	8	41	Fixation	Win	True
396.173	0.31	Win2	0.6667000000000001	0.004	Yes	2.773	-0.004	2.0	GoodResponse	1	0.234	395.407	8	41	Target	Win	True
396.407	0.3	Win2	0.6667000000000001	0.004	Yes	2.773	-0.004	2.0	GoodResponse	1	0.234	n/a	8	41	ButtonPress	Win	True
396.491	0.39	Win2	0.6667000000000001	n/a	Yes	2.773	n/a	n/a	GoodResponse	1	n/a	n/a	8	41	Blank	Win	True
396.875	1.45	Win2	0.6667000000000001	n/a	Yes	2.773	n/a	5.0	GoodResponse	1	0.023	395.898	8	41	Feedback	Win	True
398.33	2.773	Win2	0.6667000000000001	n/a	Yes	2.773	n/a	n/a	GoodResponse	1	0.0	n/a	8	41	ISIslide	Win	True
401.121	0.25	Control	0.6744	0.0	Yes	2.929	0.021	n/a	GoodResponse	0	n/a	n/a	8	42	Cue	Neutral	True
401.372	3.85	Control	0.6744	0.0	Yes	2.929	0.001	n/a	GoodResponse	0	n/a	n/a	8	42	Fixation	Neutral	True
405.217	0.3	Control	0.6744	0.004	Yes	2.929	-0.004	2.0	GoodResponse	0	0.207	404.424	8	42	Target	Neutral	True
405.424	0.3	Control	0.6744	0.004	Yes	2.929	-0.004	2.0	GoodResponse	0	0.207	n/a	8	42	ButtonPress	Neutral	True
405.518	0.4	Control	0.6744	n/a	Yes	2.929	n/a	n/a	GoodResponse	0	n/a	n/a	8	42	Blank	Neutral	True
405.919	1.45	Control	0.6744	n/a	Yes	2.929	n/a	5.0	GoodResponse	0	0.007	404.926	8	42	Feedback	Neutral	True
407.373	2.929	Control	0.6744	n/a	Yes	2.929	n/a	n/a	GoodResponse	0	0.0	n/a	8	42	ISIslide	Neutral	True
410.315	0.25	Win2	0.6818000000000001	0.001	Yes	3.185	0.015	n/a	GoodResponse	1	n/a	n/a	9	43	Cue	Win	True
410.566	4.0	Win2	0.6818000000000001	0.0	Yes	3.185	0.001	n/a	GoodResponse	1	n/a	n/a	9	43	Fixation	Win	True
414.561	0.29	Win2	0.6818000000000001	0.004	Yes	3.185	-0.004	2.0	GoodResponse	1	0.24	413.801	9	43	Target	Win	True
414.801	0.3	Win2	0.6818000000000001	0.004	Yes	3.185	-0.004	2.0	GoodResponse	1	0.24	n/a	9	43	ButtonPress	Win	True
414.862	0.41	Win2	0.6818000000000001	n/a	Yes	3.185	n/a	n/a	GoodResponse	1	n/a	n/a	9	43	Blank	Win	True
415.264	1.45	Win2	0.6818000000000001	n/a	Yes	3.185	n/a	5.0	GoodResponse	1	0.024	414.288	9	43	Feedback	Win	True
416.718	3.185	Win2	0.6818000000000001	n/a	Yes	3.185	n/a	n/a	GoodResponse	1	0.0	n/a	9	43	ISIslide	Win	True
419.927	0.25	Win2	0.6667000000000001	0.001	No	2.973	0.027	n/a	PrematurePress	0	n/a	n/a	9	44	Cue	MissedWin	False
420.178	4.0	Win2	0.6667000000000001	0.0	No	2.973	0.001	2.0	PrematurePress	0	3.633	422.811	9	44	Fixation	MissedWin	False
423.811	0.3	Win2	0.6667000000000001	0.0	No	2.973	0.001	2.0	PrematurePress	0	3.633	n/a	9	44	ButtonPress	MissedWin	False
424.173	0.28	Win2	0.6667000000000001	0.004	No	2.973	-0.004	2.0	PrematurePress	0	0.082	423.255	9	44	Target	MissedWin	False
424.255	0.3	Win2	0.6667000000000001	0.004	No	2.973	-0.004	2.0	PrematurePress	0	0.082	n/a	9	44	ButtonPress	MissedWin	False
424.458	0.42	Win2	0.6667000000000001	n/a	No	2.973	n/a	n/a	PrematurePress	0	n/a	n/a	9	44	Blank	MissedWin	False
424.876	1.45	Win2	0.6667000000000001	n/a	No	2.973	n/a	5.0	PrematurePress	0	0.021	423.897	9	44	Feedback	MissedWin	False
426.33	2.973	Win2	0.6667000000000001	n/a	No	2.973	n/a	n/a	PrematurePress	0	0.0	n/a	9	44	ISIslide	MissedWin	False
429.322	0.25	Control	0.6739	0.0	Yes	2.878	0.022	n/a	GoodResponse	0	n/a	n/a	9	45	Cue	Neutral	True
429.573	4.1	Control	0.6739	0.0	Yes	2.878	0.001	n/a	GoodResponse	0	n/a	n/a	9	45	Fixation	Neutral	True
433.669	0.27	Control	0.6739	0.003	Yes	2.878	-0.003	2.0	GoodResponse	0	0.212	432.881	9	45	Target	Neutral	True
433.881	0.3	Control	0.6739	0.003	Yes	2.878	-0.003	2.0	GoodResponse	0	0.212	n/a	9	45	ButtonPress	Neutral	True
433.953	0.43	Control	0.6739	n/a	Yes	2.878	n/a	n/a	GoodResponse	0	n/a	n/a	9	45	Blank	Neutral	True
434.371	1.45	Control	0.6739	n/a	Yes	2.878	n/a	5.0	GoodResponse	0	0.038	433.409	9	45	Feedback	Neutral	True
435.825	2.878	Control	0.6739	n/a	Yes	2.878	n/a	n/a	GoodResponse	0	0.0	n/a	9	45	ISIslide	Neutral	True
438.717	0.25	Lose2	0.6809000000000001	0.0	Yes	3.383	0.017	n/a	GoodResponse	0	n/a	n/a	9	46	Cue	AvoidedLoss	True
438.968	4.0	Lose2	0.6809000000000001	0.0	Yes	3.383	0.001	n/a	GoodResponse	0	n/a	n/a	9	46	Fixation	AvoidedLoss	True
442.963	0.26	Lose2	0.6809000000000001	0.004	Yes	3.383	-0.004	2.0	GoodResponse	0	0.201	442.164	9	46	Target	AvoidedLoss	True
443.164	0.3	Lose2	0.6809000000000001	0.004	Yes	3.383	-0.004	2.0	GoodResponse	0	0.201	n/a	9	46	ButtonPress	AvoidedLoss	True
443.23	0.44	Lose2	0.6809000000000001	n/a	Yes	3.383	n/a	n/a	GoodResponse	0	n/a	n/a	9	46	Blank	AvoidedLoss	True
443.665	1.45	Lose2	0.6809000000000001	n/a	Yes	3.383	n/a	5.0	GoodResponse	0	0.013	442.678	9	46	Feedback	AvoidedLoss	True
445.119	3.383	Lose2	0.6809000000000001	n/a	Yes	3.383	n/a	n/a	GoodResponse	0	0.0	n/a	9	46	ISIslide	AvoidedLoss	True
448.53	0.25	Lose2	0.6875	0.0	Yes	2.67	0.03	n/a	GoodResponse	0	n/a	n/a	9	47	Cue	AvoidedLoss	True
448.78	4.0	Lose2	0.6875	0.0	Yes	2.67	0.0	n/a	GoodResponse	0	n/a	n/a	9	47	Fixation	AvoidedLoss	True
452.776	0.25	Lose2	0.6875	0.004	Yes	2.67	-0.004	2.0	GoodResponse	0	0.197	451.973	9	47	Target	AvoidedLoss	True
452.973	0.3	Lose2	0.6875	0.004	Yes	2.67	-0.004	2.0	GoodResponse	0	0.197	n/a	9	47	ButtonPress	AvoidedLoss	True
453.026	0.45	Lose2	0.6875	n/a	Yes	2.67	n/a	n/a	GoodResponse	0	n/a	n/a	9	47	Blank	AvoidedLoss	True
453.478	1.45	Lose2	0.6875	n/a	Yes	2.67	n/a	5.0	GoodResponse	0	0.007	452.485	9	47	Feedback	AvoidedLoss	True
454.932	2.67	Lose2	0.6875	n/a	Yes	2.67	n/a	n/a	GoodResponse	0	0.0	n/a	9	47	ISIslide	AvoidedLoss	True
457.624	0.25	Lose2	0.6735	0.0	No	3.026	0.024	n/a	NoResponse	-1	n/a	n/a	8	48	Cue	Loss	True
457.874	3.95	Lose2	0.6735	0.0	No	3.026	0.0	n/a	NoResponse	-1	n/a	n/a	8	48	Fixation	Loss	True
461.836	0.24	Lose2	0.6735	0.0	No	3.026	0.012	2.0	NoResponse	-1	0.275	461.111	8	48	Target	Loss	True
462.07	0.46	Lose2	0.6735	n/a	No	3.026	n/a	n/a	NoResponse	-1	n/a	n/a	8	48	Blank	Loss	True
462.111	0.3	Lose2	0.6735	0.0	No	3.026	0.012	2.0	NoResponse	-1	0.275	n/a	8	48	ButtonPress	Loss	True
462.521	1.45	Lose2	0.6735	n/a	No	3.026	n/a	5.0	NoResponse	-1	0.034	461.555	8	48	Feedback	Loss	True
463.976	3.026	Lose2	0.6735	n/a	No	3.026	n/a	n/a	NoResponse	-1	0.0	n/a	8	48	ISIslide	Loss	True
467.018	0.25	Control	0.68	0.0	Yes	2.882	0.018	n/a	GoodResponse	0	n/a	n/a	8	49	Cue	Neutral	True
467.269	4.0	Control	0.68	0.0	Yes	2.882	0.001	n/a	GoodResponse	0	n/a	n/a	8	49	Fixation	Neutral	True
471.264	0.23	Control	0.68	0.004	Yes	2.882	-0.004	2.0	GoodResponse	0	0.194	470.458	8	49	Target	Neutral	True
471.458	0.3	Control	0.68	0.004	Yes	2.882	-0.004	2.0	GoodResponse	0	0.194	n/a	8	49	ButtonPress	Neutral	True
471.498	0.47	Control	0.68	n/a	Yes	2.882	n/a	n/a	GoodResponse	0	n/a	n/a	8	49	Blank	Neutral	True
471.966	1.45	Control	0.68	n/a	Yes	2.882	n/a	5.0	GoodResponse	0	0.008	470.974	8	49	Feedback	Neutral	True
473.421	2.882	Control	0.68	n/a	Yes	2.882	n/a	n/a	GoodResponse	0	0.0	n/a	8	49	ISIslide	Neutral	True
476.329	0.25	Control	0.6862999999999999	0.001	Yes	2.771	0.029	n/a	GoodResponse	0	n/a	n/a	8	50	Cue	Neutral	True
476.58	4.0	Control	0.6862999999999999	0.0	Yes	2.771	0.001	n/a	GoodResponse	0	n/a	n/a	8	50	Fixation	Neutral	True
480.575	0.22	Control	0.6862999999999999	0.004	Yes	2.771	-0.004	2.0	GoodResponse	0	0.159	479.734	8	50	Target	Neutral	True
480.734	0.3	Control	0.6862999999999999	0.004	Yes	2.771	-0.004	2.0	GoodResponse	0	0.159	n/a	8	50	ButtonPress	Neutral	True
480.81	0.48	Control	0.6862999999999999	n/a	Yes	2.771	n/a	n/a	GoodResponse	0	n/a	n/a	8	50	Blank	Neutral	True
481.278	1.45	Control	0.6862999999999999	n/a	Yes	2.771	n/a	5.0	GoodResponse	0	0.009	480.287	8	50	Feedback	Neutral	True
482.732	2.771	Control	0.6862999999999999	n/a	Yes	2.771	n/a	n/a	GoodResponse	0	0.0	n/a	8	50	ISIslide	Neutral	True
485.524	0.25	Control	0.6731	0.0	No	2.726	0.024	n/a	NoResponse	0	n/a	n/a	8	51	Cue	Neutral	True
485.774	3.95	Control	0.6731	0.0	No	2.726	0.0	n/a	NoResponse	0	n/a	n/a	8	51	Fixation	Neutral	True
489.719	0.21	Control	0.6731	0.005	No	2.726	-0.005	2.0	NoResponse	0	0.275	488.994	8	51	Target	Neutral	True
489.937	0.49	Control	0.6731	n/a	No	2.726	n/a	n/a	NoResponse	0	n/a	n/a	8	51	Blank	Neutral	True
489.994	0.3	Control	0.6731	0.005	No	2.726	-0.005	2.0	NoResponse	0	0.275	n/a	8	51	ButtonPress	Neutral	True
490.422	1.45	Control	0.6731	n/a	No	2.726	n/a	5.0	NoResponse	0	0.035	489.457	8	51	Feedback	Neutral	True
491.876	2.726	Control	0.6731	n/a	No	2.726	n/a	n/a	NoResponse	0	0.0	n/a	8	51	ISIslide	Neutral	True
494.617	0.25	Control	0.6792	0.001	Yes	2.633	0.017	n/a	GoodResponse	0	n/a	n/a	8	52	Cue	Neutral	True
494.868	4.05	Control	0.6792	0.0	Yes	2.633	0.001	n/a	GoodResponse	0	n/a	n/a	8	52	Fixation	Neutral	True
498.914	0.2	Control	0.6792	0.003	Yes	2.633	-0.003	2.0	GoodResponse	0	0.191	498.105	8	52	Target	Neutral	True
499.105	0.3	Control	0.6792	0.003	Yes	2.633	-0.003	2.0	GoodResponse	0	0.191	n/a	8	52	ButtonPress	Neutral	True
499.114	0.5	Control	0.6792	n/a	Yes	2.633	n/a	n/a	GoodResponse	0	n/a	n/a	8	52	Blank	Neutral	True
499.616	1.45	Control	0.6792	n/a	Yes	2.633	n/a	5.0	GoodResponse	0	0.012	498.628	8	52	Feedback	Neutral	True
501.07	2.633	Control	0.6792	n/a	Yes	2.633	n/a	n/a	GoodResponse	0	0.0	n/a	8	52	ISIslide	Neutral	True
503.728	0.25	Win2	0.6851999999999999	0.0	Yes	2.922	0.028	n/a	GoodResponse	1	n/a	n/a	9	53	Cue	Win	True
503.979	4.05	Win2	0.6851999999999999	0.0	Yes	2.922	0.001	n/a	GoodResponse	1	n/a	n/a	9	53	Fixation	Win	True
508.024	0.19	Win2	0.6851999999999999	0.004	Yes	2.922	-0.004	2.0	GoodResponse	1	0.182	507.206	9	53	Target	Win	True
508.206	0.3	Win2	0.6851999999999999	0.004	Yes	2.922	-0.004	2.0	GoodResponse	1	0.182	n/a	9	53	ButtonPress	Win	True
508.225	0.51	Win2	0.6851999999999999	n/a	Yes	2.922	n/a	n/a	GoodResponse	1	n/a	n/a	9	53	Blank	Win	True
508.726	1.45	Win2	0.6851999999999999	n/a	Yes	2.922	n/a	5.0	GoodResponse	1	0.023	507.749	9	53	Feedback	Win	True
510.181	2.922	Win2	0.6851999999999999	n/a	Yes	2.922	n/a	n/a	GoodResponse	1	0.0	n/a	9	53	ISIslide	Win	True
513.123	0.25	Win2	0.6727	0.0	No	2.727	0.023	n/a	NoResponse	0	n/a	n/a	9	54	Cue	MissedWin	True
513.374	3.95	Win2	0.6727	0.0	No	2.727	0.001	n/a	NoResponse	0	n/a	n/a	9	54	Fixation	MissedWin	True
517.319	0.18	Win2	0.6727	0.004	No	2.727	-0.004	2.0	NoResponse	0	0.212	516.531	9	54	Target	MissedWin	True
517.503	0.52	Win2	0.6727	n/a	No	2.727	n/a	n/a	NoResponse	0	n/a	n/a	9	54	Blank	MissedWin	True
517.531	0.3	Win2	0.6727	0.004	No	2.727	-0.004	2.0	NoResponse	0	0.212	n/a	9	54	ButtonPress	MissedWin	True
518.021	1.45	Win2	0.6727	n/a	No	2.727	n/a	5.0	NoResponse	0	0.046	517.067	9	54	Feedback	MissedWin	True
519.475	2.727	Win2	0.6727	n/a	No	2.727	n/a	n/a	NoResponse	0	0.0	n/a	9	54	ISIslide	MissedWin	True
522.217	0.25	Control	0.6607	0.0	No	3.033	0.017	n/a	PrematurePress	0	n/a	n/a	9	55	Cue	Neutral	True
522.467	3.95	Control	0.6607	0.0	No	3.033	0.0	n/a	PrematurePress	0	n/a	n/a	9	55	Fixation	Neutral	True
526.413	0.17	Control	0.6607	0.004	No	3.033	-0.004	2.0	PrematurePress	0	0.056	525.469	9	55	Target	Neutral	True
526.469	0.3	Control	0.6607	0.004	No	3.033	-0.004	2.0	PrematurePress	0	0.056	n/a	9	55	ButtonPress	Neutral	True
526.596	0.53	Control	0.6607	n/a	No	3.033	n/a	n/a	PrematurePress	0	n/a	n/a	9	55	Blank	Neutral	True
527.115	1.45	Control	0.6607	n/a	No	3.033	n/a	5.0	PrematurePress	0	0.025	526.14	9	55	Feedback	Neutral	True
528.569	3.033	Control	0.6607	n/a	No	3.033	n/a	n/a	PrematurePress	0	0.0	n/a	9	55	ISIslide	Neutral	True
531.628	0.25	Control	0.6491	0.0	No	2.822	0.028	n/a	NoResponse	0	n/a	n/a	9	56	Cue	Neutral	True
531.879	3.95	Control	0.6491	0.0	No	2.822	0.001	n/a	NoResponse	0	n/a	n/a	9	56	Fixation	Neutral	True
535.824	0.17	Control	0.6491	0.004	No	2.822	-0.004	2.0	NoResponse	0	0.205	535.029	9	56	Target	Neutral	True
536.008	0.53	Control	0.6491	n/a	No	2.822	n/a	n/a	NoResponse	0	n/a	n/a	9	56	Blank	Neutral	True
536.029	0.3	Control	0.6491	0.004	No	2.822	-0.004	2.0	NoResponse	0	0.205	n/a	9	56	ButtonPress	Neutral	True
536.526	1.45	Control	0.6491	n/a	No	2.822	n/a	5.0	NoResponse	0	0.029	535.555	9	56	Feedback	Neutral	True
537.98	2.822	Control	0.6491	n/a	No	2.822	n/a	n/a	NoResponse	0	0.0	n/a	9	56	ISIslide	Neutral	True
540.822	0.25	Control	0.6379	0.0	No	3.478	0.022	n/a	PrematurePress	0	n/a	n/a	9	57	Cue	Neutral	True
541.073	4.0	Control	0.6379	0.0	No	3.478	0.001	n/a	PrematurePress	0	n/a	n/a	9	57	Fixation	Neutral	True
545.068	0.18	Control	0.6379	0.004	No	3.478	-0.004	2.0	PrematurePress	0	0.085	544.153	9	57	Target	Neutral	True
545.153	0.3	Control	0.6379	0.004	No	3.478	-0.004	2.0	PrematurePress	0	0.085	n/a	9	57	ButtonPress	Neutral	True
545.252	0.52	Control	0.6379	n/a	No	3.478	n/a	n/a	PrematurePress	0	n/a	n/a	9	57	Blank	Neutral	True
545.77	1.45	Control	0.6379	n/a	No	3.478	n/a	5.0	PrematurePress	0	0.008	544.778	9	57	Feedback	Neutral	True
547.225	3.478	Control	0.6379	n/a	No	3.478	n/a	n/a	PrematurePress	0	0.0	n/a	9	57	ISIslide	Neutral	True
550.719	0.25	Win2	0.6271	0.0	No	2.731	0.019	n/a	LatePress	0	n/a	n/a	9	58	Cue	MissedWin	True
550.969	4.05	Win2	0.6271	0.0	No	2.731	0.0	n/a	LatePress	0	n/a	n/a	9	58	Fixation	MissedWin	True
555.015	0.19	Win2	0.6271	0.004	No	2.731	-0.004	2.0	LatePress	0	0.198	554.213	9	58	Target	MissedWin	True
555.213	0.3	Win2	0.6271	0.004	No	2.731	-0.004	2.0	LatePress	0	0.198	n/a	9	58	ButtonPress	MissedWin	True
555.215	0.51	Win2	0.6271	n/a	No	2.731	n/a	n/a	LatePress	0	n/a	n/a	9	58	Blank	MissedWin	True
555.717	1.45	Win2	0.6271	n/a	No	2.731	n/a	5.0	LatePress	0	0.008	554.725	9	58	Feedback	MissedWin	True
557.171	2.731	Win2	0.6271	n/a	No	2.731	n/a	n/a	LatePress	0	0.0	n/a	9	58	ISIslide	MissedWin	True
559.929	0.25	Lose2	0.6333	0.0	Yes	2.671	0.029	n/a	GoodResponse	0	n/a	n/a	9	59	Cue	AvoidedLoss	True
560.18	4.0	Lose2	0.6333	0.0	Yes	2.671	0.001	n/a	GoodResponse	0	n/a	n/a	9	59	Fixation	AvoidedLoss	True
564.175	0.2	Lose2	0.6333	0.004	Yes	2.671	-0.004	2.0	GoodResponse	0	0.187	563.362	9	59	Target	AvoidedLoss	True
564.362	0.3	Lose2	0.6333	0.004	Yes	2.671	-0.004	2.0	GoodResponse	0	0.187	n/a	9	59	ButtonPress	AvoidedLoss	True
564.376	0.5	Lose2	0.6333	n/a	Yes	2.671	n/a	n/a	GoodResponse	0	n/a	n/a	9	59	Blank	AvoidedLoss	True
564.878	1.45	Lose2	0.6333	n/a	Yes	2.671	n/a	5.0	GoodResponse	0	0.017	563.895	9	59	Feedback	AvoidedLoss	True
566.332	2.671	Lose2	0.6333	n/a	Yes	2.671	n/a	n/a	GoodResponse	0	0.0	n/a	9	59	ISIslide	AvoidedLoss	True
569.023	0.25	Control	0.623	0.0	No	2.677	0.023	n/a	NoResponse	0	n/a	n/a	9	60	Cue	Neutral	True
569.274	4.0	Control	0.623	0.0	No	2.677	0.001	2.0	NoResponse	0	3.56	571.834	9	60	Fixation	Neutral	True
572.834	0.3	Control	0.623	0.0	No	2.677	0.001	2.0	NoResponse	0	3.56	n/a	9	60	ButtonPress	Neutral	True
573.269	0.21	Control	0.623	0.004	No	2.677	-0.004	n/a	NoResponse	0	n/a	n/a	9	60	Target	Neutral	True
573.487	0.49	Control	0.623	n/a	No	2.677	n/a	n/a	NoResponse	0	n/a	n/a	9	60	Blank	Neutral	True
573.971	1.45	Control	0.623	n/a	No	2.677	n/a	5.0	NoResponse	0	0.046	573.017	9	60	Feedback	Neutral	True
575.426	2.677	Control	0.623	n/a	No	2.677	n/a	n/a	NoResponse	0	0.0	n/a	9	60	ISIslide	Neutral	True
578.117	0.25	Lose2	0.629	0.0	Yes	2.983	0.017	n/a	GoodResponse	0	n/a	n/a	9	61	Cue	AvoidedLoss	True
578.368	4.0	Lose2	0.629	0.0	Yes	2.983	0.001	n/a	GoodResponse	0	n/a	n/a	9	61	Fixation	AvoidedLoss	True
582.363	0.22	Lose2	0.629	0.004	Yes	2.983	-0.004	2.0	GoodResponse	0	0.163	581.526	9	61	Target	AvoidedLoss	True
582.526	0.3	Lose2	0.629	0.004	Yes	2.983	-0.004	2.0	GoodResponse	0	0.163	n/a	9	61	ButtonPress	AvoidedLoss	True
582.597	0.48	Lose2	0.629	n/a	Yes	2.983	n/a	n/a	GoodResponse	0	n/a	n/a	9	61	Blank	AvoidedLoss	True
583.065	1.45	Lose2	0.629	n/a	Yes	2.983	n/a	5.0	GoodResponse	0	0.026	582.091	9	61	Feedback	AvoidedLoss	True
584.52	2.983	Lose2	0.629	n/a	Yes	2.983	n/a	n/a	GoodResponse	0	0.0	n/a	9	61	ISIslide	AvoidedLoss	True
587.529	0.25	Lose2	0.619	0.0	No	2.871	0.029	n/a	NoResponse	-1	n/a	n/a	8	62	Cue	Loss	False
587.779	3.9	Lose2	0.619	0.0	No	2.871	0.0	n/a	NoResponse	-1	n/a	n/a	8	62	Fixation	Loss	False
591.691	0.23	Lose2	0.619	0.0	No	2.871	0.012	n/a	NoResponse	-1	n/a	n/a	8	62	Target	Loss	False
591.908	0.47	Lose2	0.619	n/a	No	2.871	n/a	n/a	NoResponse	-1	n/a	n/a	8	62	Blank	Loss	False
592.376	1.45	Lose2	0.619	n/a	No	2.871	n/a	5.0	NoResponse	-1	0.031	591.407	8	62	Feedback	Loss	False
593.831	2.871	Lose2	0.619	n/a	No	2.871	n/a	n/a	NoResponse	-1	0.0	n/a	8	62	ISIslide	Loss	False
596.723	0.25	Lose2	0.625	0.0	Yes	2.627	0.023	n/a	GoodResponse	0	n/a	n/a	8	63	Cue	AvoidedLoss	True
596.973	4.05	Lose2	0.625	0.001	Yes	2.627	0.0	n/a	GoodResponse	0	n/a	n/a	8	63	Fixation	AvoidedLoss	True
601.019	0.24	Lose2	0.625	0.004	Yes	2.627	-0.004	2.0	GoodResponse	0	0.197	600.216	8	63	Target	AvoidedLoss	True
601.216	0.3	Lose2	0.625	0.004	Yes	2.627	-0.004	2.0	GoodResponse	0	0.197	n/a	8	63	ButtonPress	AvoidedLoss	True
601.27	0.46	Lose2	0.625	n/a	Yes	2.627	n/a	n/a	GoodResponse	0	n/a	n/a	8	63	Blank	AvoidedLoss	True
601.721	1.45	Lose2	0.625	n/a	Yes	2.627	n/a	5.0	GoodResponse	0	0.008	600.729	8	63	Feedback	AvoidedLoss	True
603.175	2.627	Lose2	0.625	n/a	Yes	2.627	n/a	n/a	GoodResponse	0	0.0	n/a	8	63	ISIslide	AvoidedLoss	True
605.817	0.25	Win2	0.6308	0.0	Yes	3.133	0.017	n/a	GoodResponse	1	n/a	n/a	9	64	Cue	Win	True
606.067	4.15	Win2	0.6308	0.0	Yes	3.133	0.0	n/a	GoodResponse	1	n/a	n/a	9	64	Fixation	Win	True
610.213	0.25	Win2	0.6308	0.004	Yes	3.133	-0.004	2.0	GoodResponse	1	0.178	609.391	9	64	Target	Win	True
610.391	0.3	Win2	0.6308	0.004	Yes	3.133	-0.004	2.0	GoodResponse	1	0.178	n/a	9	64	ButtonPress	Win	True
610.464	0.45	Win2	0.6308	n/a	Yes	3.133	n/a	n/a	GoodResponse	1	n/a	n/a	9	64	Blank	Win	True
610.915	1.45	Win2	0.6308	n/a	Yes	3.133	n/a	5.0	GoodResponse	1	0.029	609.944	9	64	Feedback	Win	True
612.37	3.133	Win2	0.6308	n/a	Yes	3.133	n/a	n/a	GoodResponse	1	0.0	n/a	9	64	ISIslide	Win	True
615.529	0.25	Control	0.6364	0.0	Yes	2.771	0.029	n/a	GoodResponse	0	n/a	n/a	9	65	Cue	Neutral	True
615.78	4.0	Control	0.6364	0.0	Yes	2.771	0.001	n/a	GoodResponse	0	n/a	n/a	9	65	Fixation	Neutral	True
619.775	0.26	Control	0.6364	0.004	Yes	2.771	-0.004	2.0	GoodResponse	0	0.224	618.999	9	65	Target	Neutral	True
619.999	0.3	Control	0.6364	0.004	Yes	2.771	-0.004	2.0	GoodResponse	0	0.224	n/a	9	65	ButtonPress	Neutral	True
620.042	0.44	Control	0.6364	n/a	Yes	2.771	n/a	n/a	GoodResponse	0	n/a	n/a	9	65	Blank	Neutral	True
620.477	1.45	Control	0.6364	n/a	Yes	2.771	n/a	5.0	GoodResponse	0	0.028	619.505	9	65	Feedback	Neutral	True
621.931	2.771	Control	0.6364	n/a	Yes	2.771	n/a	n/a	GoodResponse	0	0.0	n/a	9	65	ISIslide	Neutral	True
624.723	0.25	Win2	0.6418	0.0	Yes	2.777	0.023	n/a	GoodResponse	1	n/a	n/a	10	66	Cue	Win	True
624.974	3.9	Win2	0.6418	0.0	Yes	2.777	0.001	n/a	GoodResponse	1	n/a	n/a	10	66	Fixation	Win	True
628.869	0.27	Win2	0.6418	0.004	Yes	2.777	-0.004	2.0	GoodResponse	1	0.143	628.012	10	66	Target	Win	True
629.012	0.3	Win2	0.6418	0.004	Yes	2.777	-0.004	2.0	GoodResponse	1	0.143	n/a	10	66	ButtonPress	Win	True
629.153	0.43	Win2	0.6418	n/a	Yes	2.777	n/a	n/a	GoodResponse	1	n/a	n/a	10	66	Blank	Win	True
629.571	1.45	Win2	0.6418	n/a	Yes	2.777	n/a	5.0	GoodResponse	1	0.008	628.579	10	66	Feedback	Win	True
631.025	2.777	Win2	0.6418	n/a	Yes	2.777	n/a	n/a	GoodResponse	1	0.0	n/a	10	66	ISIslide	Win	True
633.817	0.25	Control	0.6470999999999999	0.0	Yes	2.733	0.017	n/a	GoodResponse	0	n/a	n/a	10	67	Cue	Neutral	True
634.068	3.95	Control	0.6470999999999999	0.0	Yes	2.733	0.001	n/a	GoodResponse	0	n/a	n/a	10	67	Fixation	Neutral	True
638.013	0.28	Control	0.6470999999999999	0.004	Yes	2.733	-0.004	2.0	GoodResponse	0	0.204	637.217	10	67	Target	Neutral	True
638.217	0.3	Control	0.6470999999999999	0.004	Yes	2.733	-0.004	2.0	GoodResponse	0	0.204	n/a	10	67	ButtonPress	Neutral	True
638.297	0.42	Control	0.6470999999999999	n/a	Yes	2.733	n/a	n/a	GoodResponse	0	n/a	n/a	10	67	Blank	Neutral	True
638.715	1.45	Control	0.6470999999999999	n/a	Yes	2.733	n/a	5.0	GoodResponse	0	0.033	637.748	10	67	Feedback	Neutral	True
640.169	2.733	Control	0.6470999999999999	n/a	Yes	2.733	n/a	n/a	GoodResponse	0	0.0	n/a	10	67	ISIslide	Neutral	True
642.928	0.25	Win2	0.6522	0.0	Yes	3.072	0.028	n/a	GoodResponse	1	n/a	n/a	11	68	Cue	Win	True
643.178	4.0	Win2	0.6522	0.0	Yes	3.072	0.0	n/a	GoodResponse	1	n/a	n/a	11	68	Fixation	Win	True
647.174	0.29	Win2	0.6522	0.004	Yes	3.072	-0.004	2.0	GoodResponse	1	0.192	646.366	11	68	Target	Win	True
647.366	0.3	Win2	0.6522	0.004	Yes	3.072	-0.004	2.0	GoodResponse	1	0.192	n/a	11	68	ButtonPress	Win	True
647.474	0.41	Win2	0.6522	n/a	Yes	3.072	n/a	n/a	GoodResponse	1	n/a	n/a	11	68	Blank	Win	True
647.876	1.45	Win2	0.6522	n/a	Yes	3.072	n/a	5.0	GoodResponse	1	0.043	646.919	11	68	Feedback	Win	True
649.33	3.072	Win2	0.6522	n/a	Yes	3.072	n/a	n/a	GoodResponse	1	0.0	n/a	11	68	ISIslide	Win	True
652.423	0.25	Win2	0.6570999999999999	0.0	Yes	3.227	0.023	n/a	GoodResponse	1	n/a	n/a	12	69	Cue	Win	True
652.673	3.95	Win2	0.6570999999999999	0.0	Yes	3.227	0.0	n/a	GoodResponse	1	n/a	n/a	12	69	Fixation	Win	True
656.618	0.3	Win2	0.6570999999999999	0.005	Yes	3.227	-0.005	2.0	GoodResponse	1	0.26	655.878	12	69	Target	Win	True
656.878	0.3	Win2	0.6570999999999999	0.005	Yes	3.227	-0.005	2.0	GoodResponse	1	0.26	n/a	12	69	ButtonPress	Win	True
656.919	0.4	Win2	0.6570999999999999	n/a	Yes	3.227	n/a	n/a	GoodResponse	1	n/a	n/a	12	69	Blank	Win	True
657.321	1.45	Win2	0.6570999999999999	n/a	Yes	3.227	n/a	5.0	GoodResponse	1	0.012	656.333	12	69	Feedback	Win	True
658.775	3.227	Win2	0.6570999999999999	n/a	Yes	3.227	n/a	n/a	GoodResponse	1	0.0	n/a	12	69	ISIslide	Win	True
662.018	0.25	Lose2	0.662	0.0	Yes	3.032	0.018	n/a	GoodResponse	0	n/a	n/a	12	70	Cue	AvoidedLoss	True
662.269	4.05	Lose2	0.662	0.0	Yes	3.032	0.001	n/a	GoodResponse	0	n/a	n/a	12	70	Fixation	AvoidedLoss	True
666.314	0.3	Lose2	0.662	0.004	Yes	3.032	-0.004	2.0	GoodResponse	0	0.252	665.566	12	70	Target	AvoidedLoss	True
666.566	0.3	Lose2	0.662	0.004	Yes	3.032	-0.004	2.0	GoodResponse	0	0.252	n/a	12	70	ButtonPress	AvoidedLoss	True
666.615	0.4	Lose2	0.662	n/a	Yes	3.032	n/a	n/a	GoodResponse	0	n/a	n/a	12	70	Blank	AvoidedLoss	True
667.016	1.45	Lose2	0.662	n/a	Yes	3.032	n/a	5.0	GoodResponse	0	0.025	666.041	12	70	Feedback	AvoidedLoss	True
668.471	3.032	Lose2	0.662	n/a	Yes	3.032	n/a	n/a	GoodResponse	0	0.0	n/a	12	70	ISIslide	AvoidedLoss	True
671.53	0.25	Win2	0.6667000000000001	0.0	Yes	2.72	0.03	n/a	GoodResponse	1	n/a	n/a	13	71	Cue	Win	True
671.78	4.05	Win2	0.6667000000000001	0.001	Yes	2.72	0.0	n/a	GoodResponse	1	n/a	n/a	13	71	Fixation	Win	True
675.826	0.3	Win2	0.6667000000000001	0.004	Yes	2.72	-0.004	2.0	GoodResponse	1	0.234	675.06	13	71	Target	Win	True
676.06	0.3	Win2	0.6667000000000001	0.004	Yes	2.72	-0.004	2.0	GoodResponse	1	0.234	n/a	13	71	ButtonPress	Win	True
676.127	0.4	Win2	0.6667000000000001	n/a	Yes	2.72	n/a	n/a	GoodResponse	1	n/a	n/a	13	71	Blank	Win	True
676.528	1.45	Win2	0.6667000000000001	n/a	Yes	2.72	n/a	5.0	GoodResponse	1	0.024	675.552	13	71	Feedback	Win	True
677.982	2.72	Win2	0.6667000000000001	n/a	Yes	2.72	n/a	n/a	GoodResponse	1	0.0	n/a	13	71	ISIslide	Win	True
680.724	0.25	Win2	0.6712	0.0	Yes	2.776	0.024	n/a	GoodResponse	1	n/a	n/a	14	72	Cue	Win	True
680.975	4.1	Win2	0.6712	0.0	Yes	2.776	0.001	n/a	GoodResponse	1	n/a	n/a	14	72	Fixation	Win	True
685.07	0.29	Win2	0.6712	0.004	Yes	2.776	-0.004	2.0	GoodResponse	1	0.189	684.259	14	72	Target	Win	True
685.259	0.3	Win2	0.6712	0.004	Yes	2.776	-0.004	2.0	GoodResponse	1	0.189	n/a	14	72	ButtonPress	Win	True
685.371	0.41	Win2	0.6712	n/a	Yes	2.776	n/a	n/a	GoodResponse	1	n/a	n/a	14	72	Blank	Win	True
685.772	1.45	Win2	0.6712	n/a	Yes	2.776	n/a	5.0	GoodResponse	1	0.048	684.82	14	72	Feedback	Win	True
687.227	2.776	Win2	0.6712	n/a	Yes	2.776	n/a	n/a	GoodResponse	1	0.0	n/a	14	72	ISIslide	Win	True
690.018	0.25	Win2	0.6757	0.0	Yes	2.682	0.018	n/a	GoodResponse	1	n/a	n/a	15	73	Cue	Win	True
690.269	4.0	Win2	0.6757	0.0	Yes	2.682	0.001	n/a	GoodResponse	1	n/a	n/a	15	73	Fixation	Win	True
694.264	0.28	Win2	0.6757	0.004	Yes	2.682	-0.004	2.0	GoodResponse	1	0.22	693.484	15	73	Target	Win	True
694.484	0.3	Win2	0.6757	0.004	Yes	2.682	-0.004	2.0	GoodResponse	1	0.22	n/a	15	73	ButtonPress	Win	True
694.549	0.42	Win2	0.6757	n/a	Yes	2.682	n/a	n/a	GoodResponse	1	n/a	n/a	15	73	Blank	Win	True
694.966	1.45	Win2	0.6757	n/a	Yes	2.682	n/a	5.0	GoodResponse	1	0.025	693.991	15	73	Feedback	Win	True
696.421	2.682	Win2	0.6757	n/a	Yes	2.682	n/a	n/a	GoodResponse	1	0.0	n/a	15	73	ISIslide	Win	True
699.129	0.25	Lose2	0.6667000000000001	0.0	No	2.621	0.029	n/a	PrematurePress	-1	n/a	n/a	14	74	Cue	Loss	True
699.38	4.05	Lose2	0.6667000000000001	0.0	No	2.621	0.001	n/a	PrematurePress	-1	n/a	n/a	14	74	Fixation	Loss	True
703.425	0.27	Lose2	0.6667000000000001	0.004	No	2.621	-0.004	2.0	PrematurePress	-1	0.041	702.466	14	74	Target	Loss	True
703.466	0.3	Lose2	0.6667000000000001	0.004	No	2.621	-0.004	2.0	PrematurePress	-1	0.041	n/a	14	74	ButtonPress	Loss	True
703.709	0.43	Lose2	0.6667000000000001	n/a	No	2.621	n/a	n/a	PrematurePress	-1	n/a	n/a	14	74	Blank	Loss	True
704.127	1.45	Lose2	0.6667000000000001	n/a	No	2.621	n/a	5.0	PrematurePress	-1	0.035	703.162	14	74	Feedback	Loss	True
705.582	2.621	Lose2	0.6667000000000001	n/a	No	2.621	n/a	n/a	PrematurePress	-1	0.0	n/a	14	74	ISIslide	Loss	True
708.223	0.25	Lose2	0.6711	0.0	Yes	2.927	0.023	n/a	GoodResponse	0	n/a	n/a	14	75	Cue	AvoidedLoss	True
708.474	3.95	Lose2	0.6711	0.0	Yes	2.927	0.001	n/a	GoodResponse	0	n/a	n/a	14	75	Fixation	AvoidedLoss	True
712.419	0.26	Lose2	0.6711	0.004	Yes	2.927	-0.004	2.0	GoodResponse	0	0.193	711.612	14	75	Target	AvoidedLoss	True
712.612	0.3	Lose2	0.6711	0.004	Yes	2.927	-0.004	2.0	GoodResponse	0	0.193	n/a	14	75	ButtonPress	AvoidedLoss	True
712.686	0.44	Lose2	0.6711	n/a	Yes	2.927	n/a	n/a	GoodResponse	0	n/a	n/a	14	75	Blank	AvoidedLoss	True
713.121	1.45	Lose2	0.6711	n/a	Yes	2.927	n/a	5.0	GoodResponse	0	0.017	712.138	14	75	Feedback	AvoidedLoss	True
714.575	2.927	Lose2	0.6711	n/a	Yes	2.927	n/a	n/a	GoodResponse	0	0.0	n/a	14	75	ISIslide	AvoidedLoss	True
717.517	0.25	Control	0.6753	0.0	Yes	3.233	0.017	n/a	GoodResponse	0	n/a	n/a	14	76	Cue	Neutral	True
717.768	4.05	Control	0.6753	0.0	Yes	3.233	0.001	n/a	GoodResponse	0	n/a	n/a	14	76	Fixation	Neutral	True
721.813	0.25	Control	0.6753	0.004	Yes	3.233	-0.004	2.0	GoodResponse	0	0.244	721.057	14	76	Target	Neutral	True
722.057	0.3	Control	0.6753	0.004	Yes	3.233	-0.004	2.0	GoodResponse	0	0.244	n/a	14	76	ButtonPress	Neutral	True
722.064	0.45	Control	0.6753	n/a	Yes	3.233	n/a	n/a	GoodResponse	0	n/a	n/a	14	76	Blank	Neutral	True
722.516	1.45	Control	0.6753	n/a	Yes	3.233	n/a	5.0	GoodResponse	0	0.035	721.551	14	76	Feedback	Neutral	True
723.97	3.233	Control	0.6753	n/a	Yes	3.233	n/a	n/a	GoodResponse	0	0.0	n/a	14	76	ISIslide	Neutral	True
727.23	0.25	Lose2	0.6667000000000001	0.0	No	2.57	0.03	n/a	NoResponse	-1	n/a	n/a	13	77	Cue	Loss	True
727.48	3.95	Lose2	0.6667000000000001	0.0	No	2.57	0.0	n/a	NoResponse	-1	n/a	n/a	13	77	Fixation	Loss	True
731.442	0.24	Lose2	0.6667000000000001	0.0	No	2.57	0.012	2.0	NoResponse	-1	0.255	730.697	13	77	Target	Loss	True
731.676	0.46	Lose2	0.6667000000000001	n/a	No	2.57	n/a	n/a	NoResponse	-1	n/a	n/a	13	77	Blank	Loss	True
731.697	0.3	Lose2	0.6667000000000001	0.0	No	2.57	0.012	2.0	NoResponse	-1	0.255	n/a	13	77	ButtonPress	Loss	True
732.128	1.45	Lose2	0.6667000000000001	n/a	No	2.57	n/a	5.0	NoResponse	-1	0.033	731.161	13	77	Feedback	Loss	True
733.582	2.57	Lose2	0.6667000000000001	n/a	No	2.57	n/a	n/a	NoResponse	-1	0.0	n/a	13	77	ISIslide	Loss	True
