onset	duration	cue_type	current_mean_accuracy	duration_error	is_hit	isi_adjusted	onset_delay	response	response_type	reward	rt	rt_time	total_reward	trial_number	trial_phase	trial_type	one_press
11.098	0.25	Control	1.0	0.0	Yes	2.952	-0.002	n/a	GoodResponse	0	n/a	n/a	0	0	Cue	Neutral	True
11.348	3.85	Control	1.0	0.0	Yes	2.952	0.0	n/a	GoodResponse	0	n/a	n/a	0	0	Fixation	Neutral	True
15.197	0.4	Control	1.0	0.001	Yes	2.952	-0.001	2.0	GoodResponse	0	0.192	14.389	0	0	Target	Neutral	True
15.389	0.3	Control	1.0	0.001	Yes	2.952	-0.001	2.0	GoodResponse	0	0.192	n/a	0	0	ButtonPress	Neutral	True
15.597	0.3	Control	1.0	n/a	Yes	2.952	n/a	n/a	GoodResponse	0	n/a	n/a	0	0	Blank	Neutral	True
15.897	1.45	Control	1.0	n/a	Yes	2.952	n/a	5.0	GoodResponse	0	0.03	14.927	0	0	Feedback	Neutral	True
17.346	2.952	Control	1.0	n/a	Yes	2.952	n/a	n/a	GoodResponse	0	0.0	n/a	0	0	ISIslide	Neutral	True
20.328	0.25	Lose2	1.0	0.0	Yes	2.772	0.028	n/a	GoodResponse	0	n/a	n/a	0	1	Cue	AvoidedLoss	True
20.578	4.0	Lose2	1.0	0.0	Yes	2.772	0.0	n/a	GoodResponse	0	n/a	n/a	0	1	Fixation	AvoidedLoss	True
24.577	0.39	Lose2	1.0	0.001	Yes	2.772	-0.001	2.0	GoodResponse	0	0.2	23.777	0	1	Target	AvoidedLoss	True
24.777	0.3	Lose2	1.0	0.001	Yes	2.772	-0.001	2.0	GoodResponse	0	0.2	n/a	0	1	ButtonPress	AvoidedLoss	True
24.977	0.31	Lose2	1.0	n/a	Yes	2.772	n/a	n/a	GoodResponse	0	n/a	n/a	0	1	Blank	AvoidedLoss	True
25.277	1.45	Lose2	1.0	n/a	Yes	2.772	n/a	5.0	GoodResponse	0	0.016	24.293	0	1	Feedback	AvoidedLoss	True
26.726	2.772	Lose2	1.0	n/a	Yes	2.772	n/a	n/a	GoodResponse	0	0.0	n/a	0	1	ISIslide	AvoidedLoss	True
29.525	0.25	Control	1.0	0.0	Yes	2.575	0.025	n/a	GoodResponse	0	n/a	n/a	0	2	Cue	Neutral	True
29.775	4.1	Control	1.0	0.0	Yes	2.575	0.0	n/a	GoodResponse	0	n/a	n/a	0	2	Fixation	Neutral	True
33.874	0.38	Control	1.0	0.001	Yes	2.575	-0.001	2.0	GoodResponse	0	0.188	33.062	0	2	Target	Neutral	True
34.062	0.3	Control	1.0	0.001	Yes	2.575	-0.001	2.0	GoodResponse	0	0.188	n/a	0	2	ButtonPress	Neutral	True
34.257	0.32	Control	1.0	n/a	Yes	2.575	n/a	n/a	GoodResponse	0	n/a	n/a	0	2	Blank	Neutral	True
34.573	1.45	Control	1.0	n/a	Yes	2.575	n/a	5.0	GoodResponse	0	0.036	33.609	0	2	Feedback	Neutral	True
36.023	2.575	Control	1.0	n/a	Yes	2.575	n/a	n/a	GoodResponse	0	0.0	n/a	0	2	ISIslide	Neutral	True
38.622	0.25	Win2	1.0	0.0	Yes	2.828	0.022	n/a	GoodResponse	1	n/a	n/a	1	3	Cue	Win	True
38.872	3.95	Win2	1.0	0.0	Yes	2.828	0.0	n/a	GoodResponse	1	n/a	n/a	1	3	Fixation	Win	True
42.821	0.37	Win2	1.0	0.001	Yes	2.828	-0.001	2.0	GoodResponse	1	0.207	42.028	1	3	Target	Win	True
43.028	0.3	Win2	1.0	0.001	Yes	2.828	-0.001	2.0	GoodResponse	1	0.207	n/a	1	3	ButtonPress	Win	True
43.204	0.33	Win2	1.0	n/a	Yes	2.828	n/a	n/a	GoodResponse	1	n/a	n/a	1	3	Blank	Win	True
43.52	1.45	Win2	1.0	n/a	Yes	2.828	n/a	5.0	GoodResponse	1	0.016	42.536	1	3	Feedback	Win	True
44.97	2.828	Win2	1.0	n/a	Yes	2.828	n/a	n/a	GoodResponse	1	0.0	n/a	1	3	ISIslide	Win	True
47.819	0.25	Win2	1.0	0.0	Yes	3.281	0.019	n/a	GoodResponse	1	n/a	n/a	2	4	Cue	Win	True
48.069	4.0	Win2	1.0	0.0	Yes	3.281	0.0	n/a	GoodResponse	1	n/a	n/a	2	4	Fixation	Win	True
52.067	0.36	Win2	1.0	0.002	Yes	3.281	-0.002	2.0	GoodResponse	1	0.196	51.263	2	4	Target	Win	True
52.263	0.3	Win2	1.0	0.002	Yes	3.281	-0.002	2.0	GoodResponse	1	0.196	n/a	2	4	ButtonPress	Win	True
52.434	0.34	Win2	1.0	n/a	Yes	3.281	n/a	n/a	GoodResponse	1	n/a	n/a	2	4	Blank	Win	True
52.767	1.45	Win2	1.0	n/a	Yes	3.281	n/a	5.0	GoodResponse	1	0.037	51.804	2	4	Feedback	Win	True
54.217	3.281	Win2	1.0	n/a	Yes	3.281	n/a	n/a	GoodResponse	1	0.0	n/a	2	4	ISIslide	Win	True
57.516	0.25	Win2	1.0	0.0	Yes	2.784	0.016	n/a	GoodResponse	1	n/a	n/a	3	5	Cue	Win	True
57.765	4.0	Win2	1.0	0.001	Yes	2.784	-0.001	n/a	GoodResponse	1	n/a	n/a	3	5	Fixation	Win	True
61.764	0.35	Win2	1.0	0.002	Yes	2.784	-0.002	2.0	GoodResponse	1	0.207	60.971	3	5	Target	Win	True
61.971	0.3	Win2	1.0	0.002	Yes	2.784	-0.002	2.0	GoodResponse	1	0.207	n/a	3	5	ButtonPress	Win	True
62.114	0.35	Win2	1.0	n/a	Yes	2.784	n/a	n/a	GoodResponse	1	n/a	n/a	3	5	Blank	Win	True
62.464	1.45	Win2	1.0	n/a	Yes	2.784	n/a	5.0	GoodResponse	1	0.047	61.511	3	5	Feedback	Win	True
63.913	2.784	Win2	1.0	n/a	Yes	2.784	n/a	n/a	GoodResponse	1	0.0	n/a	3	5	ISIslide	Win	True
66.729	0.25	Lose2	1.0	0.0	Yes	2.721	0.029	n/a	GoodResponse	0	n/a	n/a	3	6	Cue	AvoidedLoss	True
66.979	3.95	Lose2	1.0	0.0	Yes	2.721	0.0	n/a	GoodResponse	0	n/a	n/a	3	6	Fixation	AvoidedLoss	True
70.928	0.34	Lose2	1.0	0.001	Yes	2.721	-0.001	2.0	GoodResponse	0	0.173	70.101	3	6	Target	AvoidedLoss	True
71.101	0.3	Lose2	1.0	0.001	Yes	2.721	-0.001	2.0	GoodResponse	0	0.173	n/a	3	6	ButtonPress	AvoidedLoss	True
71.277	0.36	Lose2	1.0	n/a	Yes	2.721	n/a	n/a	GoodResponse	0	n/a	n/a	3	6	Blank	AvoidedLoss	True
71.627	1.45	Lose2	1.0	n/a	Yes	2.721	n/a	5.0	GoodResponse	0	0.007	70.634	3	6	Feedback	AvoidedLoss	True
73.077	2.721	Lose2	1.0	n/a	Yes	2.721	n/a	n/a	GoodResponse	0	0.0	n/a	3	6	ISIslide	AvoidedLoss	True
75.826	0.25	Lose2	1.0	0.0	Yes	4.024	0.026	n/a	GoodResponse	0	n/a	n/a	3	7	Cue	AvoidedLoss	True
76.076	4.05	Lose2	1.0	0.0	Yes	4.024	0.0	n/a	GoodResponse	0	n/a	n/a	3	7	Fixation	AvoidedLoss	True
80.124	0.33	Lose2	1.0	0.002	Yes	4.024	-0.002	2.0	GoodResponse	0	0.226	79.35	3	7	Target	AvoidedLoss	True
80.35	0.3	Lose2	1.0	0.002	Yes	4.024	-0.002	2.0	GoodResponse	0	0.226	n/a	3	7	ButtonPress	AvoidedLoss	True
80.458	0.37	Lose2	1.0	n/a	Yes	4.024	n/a	n/a	GoodResponse	0	n/a	n/a	3	7	Blank	AvoidedLoss	True
80.824	1.45	Lose2	1.0	n/a	Yes	4.024	n/a	5.0	GoodResponse	0	0.029	79.853	3	7	Feedback	AvoidedLoss	True
82.274	4.024	Lose2	1.0	n/a	Yes	4.024	n/a	n/a	GoodResponse	0	0.0	n/a	3	7	ISIslide	AvoidedLoss	True
86.322	0.25	Lose2	1.0	0.0	Yes	3.028	0.022	n/a	GoodResponse	0	n/a	n/a	3	8	Cue	AvoidedLoss	True
86.572	3.95	Lose2	1.0	0.0	Yes	3.028	0.0	n/a	GoodResponse	0	n/a	n/a	3	8	Fixation	AvoidedLoss	True
90.521	0.32	Lose2	1.0	0.001	Yes	3.028	-0.001	2.0	GoodResponse	0	0.211	89.732	3	8	Target	AvoidedLoss	True
90.732	0.3	Lose2	1.0	0.001	Yes	3.028	-0.001	2.0	GoodResponse	0	0.211	n/a	3	8	ButtonPress	AvoidedLoss	True
90.837	0.38	Lose2	1.0	n/a	Yes	3.028	n/a	n/a	GoodResponse	0	n/a	n/a	3	8	Blank	AvoidedLoss	True
91.221	1.45	Lose2	1.0	n/a	Yes	3.028	n/a	5.0	GoodResponse	0	0.022	90.243	3	8	Feedback	AvoidedLoss	True
92.67	3.028	Lose2	1.0	n/a	Yes	3.028	n/a	n/a	GoodResponse	0	0.0	n/a	3	8	ISIslide	AvoidedLoss	True
95.719	0.25	Lose2	1.0	0.0	Yes	3.131	0.019	n/a	GoodResponse	0	n/a	n/a	3	9	Cue	AvoidedLoss	True
95.969	3.95	Lose2	1.0	0.0	Yes	3.131	0.0	n/a	GoodResponse	0	n/a	n/a	3	9	Fixation	AvoidedLoss	True
99.918	0.31	Lose2	1.0	0.001	Yes	3.131	-0.001	2.0	GoodResponse	0	0.196	99.114	3	9	Target	AvoidedLoss	True
100.114	0.3	Lose2	1.0	0.001	Yes	3.131	-0.001	2.0	GoodResponse	0	0.196	n/a	3	9	ButtonPress	AvoidedLoss	True
100.234	0.39	Lose2	1.0	n/a	Yes	3.131	n/a	n/a	GoodResponse	0	n/a	n/a	3	9	Blank	AvoidedLoss	True
100.617	1.45	Lose2	1.0	n/a	Yes	3.131	n/a	5.0	GoodResponse	0	0.04	99.657	3	9	Feedback	AvoidedLoss	True
102.067	3.131	Lose2	1.0	n/a	Yes	3.131	n/a	n/a	GoodResponse	0	0.0	n/a	3	9	ISIslide	AvoidedLoss	True
105.216	0.25	Control	1.0	0.0	Yes	3.284	0.016	n/a	GoodResponse	0	n/a	n/a	3	10	Cue	Neutral	True
105.466	4.0	Control	1.0	0.0	Yes	3.284	0.0	n/a	GoodResponse	0	n/a	n/a	3	10	Fixation	Neutral	True
109.464	0.3	Control	1.0	0.002	Yes	3.284	-0.002	2.0	GoodResponse	0	0.181	108.645	3	10	Target	Neutral	True
109.645	0.3	Control	1.0	0.002	Yes	3.284	-0.002	2.0	GoodResponse	0	0.181	n/a	3	10	ButtonPress	Neutral	True
109.764	0.4	Control	1.0	n/a	Yes	3.284	n/a	n/a	GoodResponse	0	n/a	n/a	3	10	Blank	Neutral	True
110.164	1.45	Control	1.0	n/a	Yes	3.284	n/a	5.0	GoodResponse	0	0.007	109.171	3	10	Feedback	Neutral	True
111.614	3.284	Control	1.0	n/a	Yes	3.284	n/a	n/a	GoodResponse	0	0.0	n/a	3	10	ISIslide	Neutral	True
114.929	0.25	Lose2	0.9167000000000001	0.0	No	2.721	0.029	n/a	NoResponse	-1	n/a	n/a	2	11	Cue	Loss	True
115.179	4.05	Lose2	0.9167000000000001	0.0	No	2.721	0.0	n/a	NoResponse	-1	n/a	n/a	2	11	Fixation	Loss	True
119.228	0.29	Lose2	0.9167000000000001	0.001	No	2.721	-0.001	2.0	NoResponse	-1	0.371	118.599	2	11	Target	Loss	True
119.527	0.41	Lose2	0.9167000000000001	n/a	No	2.721	n/a	n/a	NoResponse	-1	n/a	n/a	2	11	Blank	Loss	True
119.599	0.3	Lose2	0.9167000000000001	0.001	No	2.721	-0.001	2.0	NoResponse	-1	0.371	n/a	2	11	ButtonPress	Loss	True
119.927	1.45	Lose2	0.9167000000000001	n/a	No	2.721	n/a	5.0	NoResponse	-1	0.048	118.975	2	11	Feedback	Loss	True
121.377	2.721	Lose2	0.9167000000000001	n/a	No	2.721	n/a	n/a	NoResponse	-1	0.0	n/a	2	11	ISIslide	Loss	True
124.126	0.25	Control	0.8462000000000001	0.0	No	2.974	0.026	n/a	NoResponse	0	n/a	n/a	2	12	Cue	Neutral	True
124.376	3.9	Control	0.8462000000000001	0.0	No	2.974	0.0	2.0	NoResponse	0	3.697	127.073	2	12	Fixation	Neutral	True
128.073	0.3	Control	0.8462000000000001	0.0	No	2.974	0.0	2.0	NoResponse	0	3.697	n/a	2	12	ButtonPress	Neutral	True
128.274	0.28	Control	0.8462000000000001	0.002	No	2.974	-0.002	n/a	NoResponse	0	n/a	n/a	2	12	Target	Neutral	True
128.558	0.42	Control	0.8462000000000001	n/a	No	2.974	n/a	n/a	NoResponse	0	n/a	n/a	2	12	Blank	Neutral	True
128.974	1.45	Control	0.8462000000000001	n/a	No	2.974	n/a	5.0	NoResponse	0	0.025	127.999	2	12	Feedback	Neutral	True
130.424	2.974	Control	0.8462000000000001	n/a	No	2.974	n/a	n/a	NoResponse	0	0.0	n/a	2	12	ISIslide	Neutral	True
133.423	0.25	Control	0.8571	0.0	Yes	2.777	0.023	n/a	GoodResponse	0	n/a	n/a	2	13	Cue	Neutral	True
133.673	4.0	Control	0.8571	0.0	Yes	2.777	0.0	n/a	GoodResponse	0	n/a	n/a	2	13	Fixation	Neutral	True
137.671	0.27	Control	0.8571	0.002	Yes	2.777	-0.002	2.0	GoodResponse	0	0.228	136.899	2	13	Target	Neutral	True
137.899	0.3	Control	0.8571	0.002	Yes	2.777	-0.002	2.0	GoodResponse	0	0.228	n/a	2	13	ButtonPress	Neutral	True
137.954	0.43	Control	0.8571	n/a	Yes	2.777	n/a	n/a	GoodResponse	0	n/a	n/a	2	13	Blank	Neutral	True
138.371	1.45	Control	0.8571	n/a	Yes	2.777	n/a	5.0	GoodResponse	0	0.043	137.414	2	13	Feedback	Neutral	True
139.82	2.777	Control	0.8571	n/a	Yes	2.777	n/a	n/a	GoodResponse	0	0.0	n/a	2	13	ISIslide	Neutral	True
142.619	0.25	Win2	0.8667	0.001	Yes	2.681	0.019	n/a	GoodResponse	1	n/a	n/a	3	14	Cue	Win	True
142.869	4.1	Win2	0.8667	0.0	Yes	2.681	0.0	n/a	GoodResponse	1	n/a	n/a	3	14	Fixation	Win	True
146.968	0.26	Win2	0.8667	0.001	Yes	2.681	-0.001	2.0	GoodResponse	1	0.198	146.166	3	14	Target	Win	True
147.166	0.3	Win2	0.8667	0.001	Yes	2.681	-0.001	2.0	GoodResponse	1	0.198	n/a	3	14	ButtonPress	Win	True
147.235	0.44	Win2	0.8667	n/a	Yes	2.681	n/a	n/a	GoodResponse	1	n/a	n/a	3	14	Blank	Win	True
147.668	1.45	Win2	0.8667	n/a	Yes	2.681	n/a	5.0	GoodResponse	1	0.013	146.681	3	14	Feedback	Win	True
149.117	2.681	Win2	0.8667	n/a	Yes	2.681	n/a	n/a	GoodResponse	1	0.0	n/a	3	14	ISIslide	Win	True
151.816	0.25	Control	0.875	0.0	Yes	2.984	0.016	n/a	GoodResponse	0	n/a	n/a	3	15	Cue	Neutral	True
152.066	4.0	Control	0.875	0.0	Yes	2.984	0.0	n/a	GoodResponse	0	n/a	n/a	3	15	Fixation	Neutral	True
156.065	0.25	Control	0.875	0.001	Yes	2.984	-0.001	2.0	GoodResponse	0	0.225	155.29	3	15	Target	Neutral	True
156.29	0.3	Control	0.875	0.001	Yes	2.984	-0.001	2.0	GoodResponse	0	0.225	n/a	3	15	ButtonPress	Neutral	True
156.315	0.45	Control	0.875	n/a	Yes	2.984	n/a	n/a	GoodResponse	0	n/a	n/a	3	15	Blank	Neutral	True
156.765	1.45	Control	0.875	n/a	Yes	2.984	n/a	5.0	GoodResponse	0	0.038	155.803	3	15	Feedback	Neutral	True
158.214	2.984	Control	0.875	n/a	Yes	2.984	n/a	n/a	GoodResponse	0	0.0	n/a	3	15	ISIslide	Neutral	True
161.213	0.25	Win2	0.8824	0.0	Yes	2.887	0.013	n/a	GoodResponse	1	n/a	n/a	4	16	Cue	Win	True
161.463	4.0	Win2	0.8824	0.0	Yes	2.887	0.0	n/a	GoodResponse	1	n/a	n/a	4	16	Fixation	Win	True
165.462	0.24	Win2	0.8824	0.001	Yes	2.887	-0.001	2.0	GoodResponse	1	0.173	164.635	4	16	Target	Win	True
165.635	0.3	Win2	0.8824	0.001	Yes	2.887	-0.001	2.0	GoodResponse	1	0.173	n/a	4	16	ButtonPress	Win	True
165.711	0.46	Win2	0.8824	n/a	Yes	2.887	n/a	n/a	GoodResponse	1	n/a	n/a	4	16	Blank	Win	True
166.161	1.45	Win2	0.8824	n/a	Yes	2.887	n/a	5.0	GoodResponse	1	0.008	165.169	4	16	Feedback	Win	True
167.611	2.887	Win2	0.8824	n/a	Yes	2.887	n/a	n/a	GoodResponse	1	0.0	n/a	4	16	ISIslide	Win	True
170.526	0.25	Lose2	0.8889	0.001	Yes	2.724	0.026	n/a	GoodResponse	0	n/a	n/a	4	17	Cue	AvoidedLoss	True
170.776	3.95	Lose2	0.8889	0.0	Yes	2.724	0.0	n/a	GoodResponse	0	n/a	n/a	4	17	Fixation	AvoidedLoss	True
174.725	0.23	Lose2	0.8889	0.001	Yes	2.724	-0.001	2.0	GoodResponse	0	0.209	173.934	4	17	Target	AvoidedLoss	True
174.934	0.3	Lose2	0.8889	0.001	Yes	2.724	-0.001	2.0	GoodResponse	0	0.209	n/a	4	17	ButtonPress	AvoidedLoss	True
174.958	0.47	Lose2	0.8889	n/a	Yes	2.724	n/a	n/a	GoodResponse	0	n/a	n/a	4	17	Blank	AvoidedLoss	True
175.425	1.45	Lose2	0.8889	n/a	Yes	2.724	n/a	5.0	GoodResponse	0	0.013	174.438	4	17	Feedback	AvoidedLoss	True
176.874	2.724	Lose2	0.8889	n/a	Yes	2.724	n/a	n/a	GoodResponse	0	0.0	n/a	4	17	ISIslide	AvoidedLoss	True
179.623	0.25	Lose2	0.8421	0.0	No	2.727	0.023	n/a	NoResponse	-1	n/a	n/a	3	18	Cue	Loss	True
179.873	4.05	Lose2	0.8421	0.0	No	2.727	0.0	n/a	NoResponse	-1	n/a	n/a	3	18	Fixation	Loss	True
183.922	0.22	Lose2	0.8421	0.001	No	2.727	-0.001	2.0	NoResponse	-1	0.232	183.154	3	18	Target	Loss	True
184.138	0.48	Lose2	0.8421	n/a	No	2.727	n/a	n/a	NoResponse	-1	n/a	n/a	3	18	Blank	Loss	True
184.154	0.3	Lose2	0.8421	0.001	No	2.727	-0.001	2.0	NoResponse	-1	0.232	n/a	3	18	ButtonPress	Loss	True
184.622	1.45	Lose2	0.8421	n/a	No	2.727	n/a	5.0	NoResponse	-1	0.035	183.657	3	18	Feedback	Loss	True
186.071	2.727	Lose2	0.8421	n/a	No	2.727	n/a	n/a	NoResponse	-1	0.0	n/a	3	18	ISIslide	Loss	True
188.82	0.25	Control	0.85	0.0	Yes	2.93	0.02	n/a	GoodResponse	0	n/a	n/a	3	19	Cue	Neutral	True
189.07	3.95	Control	0.85	0.0	Yes	2.93	0.0	n/a	GoodResponse	0	n/a	n/a	3	19	Fixation	Neutral	True
193.019	0.21	Control	0.85	0.001	Yes	2.93	-0.001	2.0	GoodResponse	0	0.209	192.228	3	19	Target	Neutral	True
193.228	0.3	Control	0.85	0.001	Yes	2.93	-0.001	2.0	GoodResponse	0	0.209	n/a	3	19	ButtonPress	Neutral	True
193.235	0.49	Control	0.85	n/a	Yes	2.93	n/a	n/a	GoodResponse	0	n/a	n/a	3	19	Blank	Neutral	True
193.718	1.45	Control	0.85	n/a	Yes	2.93	n/a	5.0	GoodResponse	0	0.013	192.731	3	19	Feedback	Neutral	True
195.168	2.93	Control	0.85	n/a	Yes	2.93	n/a	n/a	GoodResponse	0	0.0	n/a	3	19	ISIslide	Neutral	True
198.117	0.25	Control	0.8095	0.0	No	2.633	0.017	n/a	NoResponse	0	n/a	n/a	3	20	Cue	Neutral	True
198.367	4.05	Control	0.8095	0.0	No	2.633	0.0	n/a	NoResponse	0	n/a	n/a	3	20	Fixation	Neutral	True
202.415	0.2	Control	0.8095	0.002	No	2.633	-0.002	2.0	NoResponse	0	0.239	201.654	3	20	Target	Neutral	True
202.615	0.5	Control	0.8095	n/a	No	2.633	n/a	n/a	NoResponse	0	n/a	n/a	3	20	Blank	Neutral	True
202.654	0.3	Control	0.8095	0.002	No	2.633	-0.002	2.0	NoResponse	0	0.239	n/a	3	20	ButtonPress	Neutral	True
203.115	1.45	Control	0.8095	n/a	No	2.633	n/a	5.0	NoResponse	0	0.03	202.145	3	20	Feedback	Neutral	True
204.565	2.633	Control	0.8095	n/a	No	2.633	n/a	n/a	NoResponse	0	0.0	n/a	3	20	ISIslide	Neutral	True
207.214	0.25	Control	0.7726999999999999	0.0	No	2.786	0.014	n/a	NoResponse	0	n/a	n/a	3	21	Cue	Neutral	True
207.464	4.1	Control	0.7726999999999999	0.0	No	2.786	0.0	n/a	NoResponse	0	n/a	n/a	3	21	Fixation	Neutral	True
211.562	0.19	Control	0.7726999999999999	0.002	No	2.786	-0.002	2.0	NoResponse	0	0.238	210.8	3	21	Target	Neutral	True
211.762	0.51	Control	0.7726999999999999	n/a	No	2.786	n/a	n/a	NoResponse	0	n/a	n/a	3	21	Blank	Neutral	True
211.8	0.3	Control	0.7726999999999999	0.002	No	2.786	-0.002	2.0	NoResponse	0	0.238	n/a	3	21	ButtonPress	Neutral	True
212.262	1.45	Control	0.7726999999999999	n/a	No	2.786	n/a	5.0	NoResponse	0	0.007	211.269	3	21	Feedback	Neutral	True
213.712	2.786	Control	0.7726999999999999	n/a	No	2.786	n/a	n/a	NoResponse	0	0.0	n/a	3	21	ISIslide	Neutral	True
216.527	0.25	Control	0.7391	0.0	No	2.773	0.027	n/a	NoResponse	0	n/a	n/a	3	22	Cue	Neutral	True
216.777	4.0	Control	0.7391	0.0	No	2.773	0.0	n/a	NoResponse	0	n/a	n/a	3	22	Fixation	Neutral	True
220.776	0.18	Control	0.7391	0.001	No	2.773	-0.001	2.0	NoResponse	0	0.323	220.099	3	22	Target	Neutral	True
220.959	0.52	Control	0.7391	n/a	No	2.773	n/a	n/a	NoResponse	0	n/a	n/a	3	22	Blank	Neutral	True
221.099	0.3	Control	0.7391	0.001	No	2.773	-0.001	2.0	NoResponse	0	0.323	n/a	3	22	ButtonPress	Neutral	True
221.476	1.45	Control	0.7391	n/a	No	2.773	n/a	5.0	NoResponse	0	0.01	220.486	3	22	Feedback	Neutral	True
222.925	2.773	Control	0.7391	n/a	No	2.773	n/a	n/a	NoResponse	0	0.0	n/a	3	22	ISIslide	Neutral	True
225.724	0.25	Control	0.7082999999999999	0.0	No	2.776	0.024	n/a	NoResponse	0	n/a	n/a	3	23	Cue	Neutral	True
225.974	3.9	Control	0.7082999999999999	0.0	No	2.776	0.0	n/a	NoResponse	0	n/a	n/a	3	23	Fixation	Neutral	True
229.873	0.17	Control	0.7082999999999999	0.001	No	2.776	-0.001	2.0	NoResponse	0	0.251	229.124	3	23	Target	Neutral	True
230.056	0.53	Control	0.7082999999999999	n/a	No	2.776	n/a	n/a	NoResponse	0	n/a	n/a	3	23	Blank	Neutral	True
230.124	0.3	Control	0.7082999999999999	0.001	No	2.776	-0.001	2.0	NoResponse	0	0.251	n/a	3	23	ButtonPress	Neutral	True
230.572	1.45	Control	0.7082999999999999	n/a	No	2.776	n/a	5.0	NoResponse	0	0.036	229.608	3	23	Feedback	Neutral	True
232.022	2.776	Control	0.7082999999999999	n/a	No	2.776	n/a	n/a	NoResponse	0	0.0	n/a	3	23	ISIslide	Neutral	True
234.821	0.25	Win2	0.68	0.0	No	3.129	0.021	n/a	NoResponse	0	n/a	n/a	3	24	Cue	MissedWin	True
235.071	3.95	Win2	0.68	0.0	No	3.129	0.0	n/a	NoResponse	0	n/a	n/a	3	24	Fixation	MissedWin	True
239.019	0.16	Win2	0.68	0.002	No	3.129	-0.002	2.0	NoResponse	0	0.223	238.242	3	24	Target	MissedWin	True
239.186	0.54	Win2	0.68	n/a	No	3.129	n/a	n/a	NoResponse	0	n/a	n/a	3	24	Blank	MissedWin	True
239.242	0.3	Win2	0.68	0.002	No	3.129	-0.002	2.0	NoResponse	0	0.223	n/a	3	24	ButtonPress	MissedWin	True
239.719	1.45	Win2	0.68	n/a	No	3.129	n/a	5.0	NoResponse	0	0.011	238.73	3	24	Feedback	MissedWin	True
241.169	3.129	Win2	0.68	n/a	No	3.129	n/a	n/a	NoResponse	0	0.0	n/a	3	24	ISIslide	MissedWin	True
244.318	0.25	Win2	0.6537999999999999	0.0	No	3.082	0.018	n/a	NoResponse	0	n/a	n/a	3	25	Cue	MissedWin	True
244.568	4.0	Win2	0.6537999999999999	0.0	No	3.082	0.0	n/a	NoResponse	0	n/a	n/a	3	25	Fixation	MissedWin	True
248.566	0.15	Win2	0.6537999999999999	0.002	No	3.082	-0.002	2.0	NoResponse	0	0.183	247.749	3	25	Target	MissedWin	True
248.716	0.55	Win2	0.6537999999999999	n/a	No	3.082	n/a	n/a	NoResponse	0	n/a	n/a	3	25	Blank	MissedWin	True
248.749	0.3	Win2	0.6537999999999999	0.002	No	3.082	-0.002	2.0	NoResponse	0	0.183	n/a	3	25	ButtonPress	MissedWin	True
249.266	1.45	Win2	0.6537999999999999	n/a	No	3.082	n/a	5.0	NoResponse	0	0.025	248.291	3	25	Feedback	MissedWin	True
250.715	3.082	Win2	0.6537999999999999	n/a	No	3.082	n/a	n/a	NoResponse	0	0.0	n/a	3	25	ISIslide	MissedWin	True
253.814	0.25	Win2	0.6296	0.0	No	2.936	0.014	n/a	NoResponse	0	n/a	n/a	3	26	Cue	MissedWin	True
254.064	3.95	Win2	0.6296	0.0	No	2.936	0.0	n/a	NoResponse	0	n/a	n/a	3	26	Fixation	MissedWin	True
258.013	0.16	Win2	0.6296	0.001	No	2.936	-0.001	2.0	NoResponse	0	0.198	257.211	3	26	Target	MissedWin	True
258.179	0.54	Win2	0.6296	n/a	No	2.936	n/a	n/a	NoResponse	0	n/a	n/a	3	26	Blank	MissedWin	True
258.211	0.3	Win2	0.6296	0.001	No	2.936	-0.001	2.0	NoResponse	0	0.198	n/a	3	26	ButtonPress	MissedWin	True
258.713	1.45	Win2	0.6296	n/a	No	2.936	n/a	5.0	NoResponse	0	0.042	257.755	3	26	Feedback	MissedWin	True
260.162	2.936	Win2	0.6296	n/a	No	2.936	n/a	n/a	NoResponse	0	0.0	n/a	3	26	ISIslide	MissedWin	True
263.128	0.25	Lose2	0.6429	0.0	Yes	2.822	0.028	n/a	GoodResponse	0	n/a	n/a	3	27	Cue	AvoidedLoss	True
263.378	4.05	Lose2	0.6429	0.0	Yes	2.822	0.0	n/a	GoodResponse	0	n/a	n/a	3	27	Fixation	AvoidedLoss	True
267.426	0.17	Lose2	0.6429	0.002	Yes	2.822	-0.002	2.0	GoodResponse	0	0.153	266.579	3	27	Target	AvoidedLoss	True
267.579	0.3	Lose2	0.6429	0.002	Yes	2.822	-0.002	2.0	GoodResponse	0	0.153	n/a	3	27	ButtonPress	AvoidedLoss	True
267.61	0.53	Lose2	0.6429	n/a	Yes	2.822	n/a	n/a	GoodResponse	0	n/a	n/a	3	27	Blank	AvoidedLoss	True
268.126	1.45	Lose2	0.6429	n/a	Yes	2.822	n/a	5.0	GoodResponse	0	0.043	267.169	3	27	Feedback	AvoidedLoss	True
269.576	2.822	Lose2	0.6429	n/a	Yes	2.822	n/a	n/a	GoodResponse	0	0.0	n/a	3	27	ISIslide	AvoidedLoss	True
272.425	0.25	Control	0.6207	0.0	No	2.825	0.025	n/a	NoResponse	0	n/a	n/a	3	28	Cue	Neutral	True
272.674	4.05	Control	0.6207	0.001	No	2.825	-0.001	n/a	NoResponse	0	n/a	n/a	3	28	Fixation	Neutral	True
276.723	0.18	Control	0.6207	0.002	No	2.825	-0.002	2.0	NoResponse	0	0.192	275.915	3	28	Target	Neutral	True
276.906	0.52	Control	0.6207	n/a	No	2.825	n/a	n/a	NoResponse	0	n/a	n/a	3	28	Blank	Neutral	True
276.915	0.3	Control	0.6207	0.002	No	2.825	-0.002	2.0	NoResponse	0	0.192	n/a	3	28	ButtonPress	Neutral	True
277.423	1.45	Control	0.6207	n/a	No	2.825	n/a	5.0	NoResponse	0	0.014	276.437	3	28	Feedback	Neutral	True
278.872	2.825	Control	0.6207	n/a	No	2.825	n/a	n/a	NoResponse	0	0.0	n/a	3	28	ISIslide	Neutral	True
281.721	0.25	Lose2	0.6	0.0	No	2.829	0.021	n/a	NoResponse	-1	n/a	n/a	2	29	Cue	Loss	False
281.971	3.95	Lose2	0.6	0.0	No	2.829	0.0	2.0	NoResponse	-1	3.395	284.366	2	29	Fixation	Loss	False
285.366	0.3	Lose2	0.6	0.0	No	2.829	0.0	2.0	NoResponse	-1	3.395	n/a	2	29	ButtonPress	Loss	False
285.92	0.19	Lose2	0.6	0.001	No	2.829	-0.001	2.0	NoResponse	-1	0.25	285.17	2	29	Target	Loss	False
286.12	0.51	Lose2	0.6	n/a	No	2.829	n/a	n/a	NoResponse	-1	n/a	n/a	2	29	Blank	Loss	False
286.17	0.3	Lose2	0.6	0.001	No	2.829	-0.001	2.0	NoResponse	-1	0.25	n/a	2	29	ButtonPress	Loss	False
286.62	1.45	Lose2	0.6	n/a	No	2.829	n/a	5.0	NoResponse	-1	0.037	285.657	2	29	Feedback	Loss	False
288.069	2.829	Lose2	0.6	n/a	No	2.829	n/a	n/a	NoResponse	-1	0.0	n/a	2	29	ISIslide	Loss	False
290.918	0.25	Win2	0.5806	0.0	No	2.782	0.018	n/a	NoResponse	0	n/a	n/a	2	30	Cue	MissedWin	True
291.168	3.9	Win2	0.5806	0.0	No	2.782	0.0	n/a	NoResponse	0	n/a	n/a	2	30	Fixation	MissedWin	True
295.067	0.2	Win2	0.5806	0.001	No	2.782	-0.001	2.0	NoResponse	0	0.208	294.275	2	30	Target	MissedWin	True
295.267	0.5	Win2	0.5806	n/a	No	2.782	n/a	n/a	NoResponse	0	n/a	n/a	2	30	Blank	MissedWin	True
295.275	0.3	Win2	0.5806	0.001	No	2.782	-0.001	2.0	NoResponse	0	0.208	n/a	2	30	ButtonPress	MissedWin	True
295.766	1.45	Win2	0.5806	n/a	No	2.782	n/a	5.0	NoResponse	0	0.013	294.779	2	30	Feedback	MissedWin	True
297.216	2.782	Win2	0.5806	n/a	No	2.782	n/a	n/a	NoResponse	0	0.0	n/a	2	30	ISIslide	MissedWin	True
300.015	0.25	Lose2	0.5625	0.0	No	2.835	0.015	n/a	LatePress	-1	n/a	n/a	1	31	Cue	Loss	True
300.265	4.05	Lose2	0.5625	0.0	No	2.835	0.0	n/a	LatePress	-1	n/a	n/a	1	31	Fixation	Loss	True
304.314	0.21	Lose2	0.5625	0.001	No	2.835	-0.001	2.0	LatePress	-1	0.21	303.524	1	31	Target	Loss	True
304.524	0.3	Lose2	0.5625	0.001	No	2.835	-0.001	2.0	LatePress	-1	0.21	n/a	1	31	ButtonPress	Loss	True
304.53	0.49	Lose2	0.5625	n/a	No	2.835	n/a	n/a	LatePress	-1	n/a	n/a	1	31	Blank	Loss	True
305.013	1.45	Lose2	0.5625	n/a	No	2.835	n/a	5.0	LatePress	-1	0.034	304.047	1	31	Feedback	Loss	True
306.463	2.835	Lose2	0.5625	n/a	No	2.835	n/a	n/a	LatePress	-1	0.0	n/a	1	31	ISIslide	Loss	True
309.328	0.25	Lose2	0.5455	0.001	No	2.622	0.028	n/a	NoResponse	-1	n/a	n/a	0	32	Cue	Loss	True
309.578	4.15	Lose2	0.5455	0.0	No	2.622	0.0	n/a	NoResponse	-1	n/a	n/a	0	32	Fixation	Loss	True
313.727	0.22	Lose2	0.5455	0.001	No	2.622	-0.001	2.0	NoResponse	-1	0.285	313.012	0	32	Target	Loss	True
313.944	0.48	Lose2	0.5455	n/a	No	2.622	n/a	n/a	NoResponse	-1	n/a	n/a	0	32	Blank	Loss	True
314.012	0.3	Lose2	0.5455	0.001	No	2.622	-0.001	2.0	NoResponse	-1	0.285	n/a	0	32	ButtonPress	Loss	True
314.427	1.45	Lose2	0.5455	n/a	No	2.622	n/a	5.0	NoResponse	-1	0.035	313.462	0	32	Feedback	Loss	True
315.876	2.622	Lose2	0.5455	n/a	No	2.622	n/a	n/a	NoResponse	-1	0.0	n/a	0	32	ISIslide	Loss	True
318.525	0.25	Win2	0.5588000000000001	0.0	Yes	2.675	0.025	n/a	GoodResponse	1	n/a	n/a	1	33	Cue	Win	True
318.775	4.0	Win2	0.5588000000000001	0.0	Yes	2.675	0.0	n/a	GoodResponse	1	n/a	n/a	1	33	Fixation	Win	True
322.774	0.23	Win2	0.5588000000000001	0.001	Yes	2.675	-0.001	2.0	GoodResponse	1	0.186	321.96	1	33	Target	Win	True
322.96	0.3	Win2	0.5588000000000001	0.001	Yes	2.675	-0.001	2.0	GoodResponse	1	0.186	n/a	1	33	ButtonPress	Win	True
323.007	0.47	Win2	0.5588000000000001	n/a	Yes	2.675	n/a	n/a	GoodResponse	1	n/a	n/a	1	33	Blank	Win	True
323.474	1.45	Win2	0.5588000000000001	n/a	Yes	2.675	n/a	5.0	GoodResponse	1	0.012	322.486	1	33	Feedback	Win	True
324.923	2.675	Win2	0.5588000000000001	n/a	Yes	2.675	n/a	n/a	GoodResponse	1	0.0	n/a	1	33	ISIslide	Win	True
327.622	0.25	Lose2	0.5714	0.0	Yes	2.628	0.022	n/a	GoodResponse	0	n/a	n/a	1	34	Cue	AvoidedLoss	True
327.872	4.05	Lose2	0.5714	0.0	Yes	2.628	0.0	n/a	GoodResponse	0	n/a	n/a	1	34	Fixation	AvoidedLoss	True
331.921	0.24	Lose2	0.5714	0.001	Yes	2.628	-0.001	2.0	GoodResponse	0	0.187	331.108	1	34	Target	AvoidedLoss	True
332.108	0.3	Lose2	0.5714	0.001	Yes	2.628	-0.001	2.0	GoodResponse	0	0.187	n/a	1	34	ButtonPress	AvoidedLoss	True
332.171	0.46	Lose2	0.5714	n/a	Yes	2.628	n/a	n/a	GoodResponse	0	n/a	n/a	1	34	Blank	AvoidedLoss	True
332.62	1.45	Lose2	0.5714	n/a	Yes	2.628	n/a	5.0	GoodResponse	0	0.036	331.656	1	34	Feedback	AvoidedLoss	True
334.07	2.628	Lose2	0.5714	n/a	Yes	2.628	n/a	n/a	GoodResponse	0	0.0	n/a	1	34	ISIslide	AvoidedLoss	True
336.719	0.25	Lose2	0.5832999999999999	0.0	Yes	2.681	0.019	n/a	GoodResponse	0	n/a	n/a	1	35	Cue	AvoidedLoss	True
336.969	4.0	Lose2	0.5832999999999999	0.0	Yes	2.681	0.0	n/a	GoodResponse	0	n/a	n/a	1	35	Fixation	AvoidedLoss	True
340.968	0.25	Lose2	0.5832999999999999	0.001	Yes	2.681	-0.001	2.0	GoodResponse	0	0.211	340.179	1	35	Target	AvoidedLoss	True
341.179	0.3	Lose2	0.5832999999999999	0.001	Yes	2.681	-0.001	2.0	GoodResponse	0	0.211	n/a	1	35	ButtonPress	AvoidedLoss	True
341.217	0.45	Lose2	0.5832999999999999	n/a	Yes	2.681	n/a	n/a	GoodResponse	0	n/a	n/a	1	35	Blank	AvoidedLoss	True
341.667	1.45	Lose2	0.5832999999999999	n/a	Yes	2.681	n/a	5.0	GoodResponse	0	0.014	340.681	1	35	Feedback	AvoidedLoss	True
343.117	2.681	Lose2	0.5832999999999999	n/a	Yes	2.681	n/a	n/a	GoodResponse	0	0.0	n/a	1	35	ISIslide	AvoidedLoss	True
345.816	0.25	Control	0.5946	0.0	Yes	2.684	0.016	n/a	GoodResponse	0	n/a	n/a	1	36	Cue	Neutral	True
346.066	4.0	Control	0.5946	0.0	Yes	2.684	0.0	n/a	GoodResponse	0	n/a	n/a	1	36	Fixation	Neutral	True
350.064	0.26	Control	0.5946	0.002	Yes	2.684	-0.002	2.0	GoodResponse	0	0.231	349.295	1	36	Target	Neutral	True
350.295	0.3	Control	0.5946	0.002	Yes	2.684	-0.002	2.0	GoodResponse	0	0.231	n/a	1	36	ButtonPress	Neutral	True
350.331	0.44	Control	0.5946	n/a	Yes	2.684	n/a	n/a	GoodResponse	0	n/a	n/a	1	36	Blank	Neutral	True
350.764	1.45	Control	0.5946	n/a	Yes	2.684	n/a	5.0	GoodResponse	0	0.039	349.803	1	36	Feedback	Neutral	True
352.214	2.684	Control	0.5946	n/a	Yes	2.684	n/a	n/a	GoodResponse	0	0.0	n/a	1	36	ISIslide	Neutral	True
354.929	0.25	Win2	0.6053000000000001	0.0	Yes	2.871	0.029	n/a	GoodResponse	1	n/a	n/a	2	37	Cue	Win	True
355.179	4.0	Win2	0.6053000000000001	0.0	Yes	2.871	0.0	n/a	GoodResponse	1	n/a	n/a	2	37	Fixation	Win	True
359.178	0.27	Win2	0.6053000000000001	0.001	Yes	2.871	-0.001	2.0	GoodResponse	1	0.168	358.346	2	37	Target	Win	True
359.346	0.3	Win2	0.6053000000000001	0.001	Yes	2.871	-0.001	2.0	GoodResponse	1	0.168	n/a	2	37	ButtonPress	Win	True
359.444	0.43	Win2	0.6053000000000001	n/a	Yes	2.871	n/a	n/a	GoodResponse	1	n/a	n/a	2	37	Blank	Win	True
359.878	1.45	Win2	0.6053000000000001	n/a	Yes	2.871	n/a	5.0	GoodResponse	1	0.047	358.925	2	37	Feedback	Win	True
361.327	2.871	Win2	0.6053000000000001	n/a	Yes	2.871	n/a	n/a	GoodResponse	1	0.0	n/a	2	37	ISIslide	Win	True
364.226	0.25	Lose2	0.6154	0.0	Yes	2.824	0.026	n/a	GoodResponse	0	n/a	n/a	2	38	Cue	AvoidedLoss	True
364.476	3.95	Lose2	0.6154	0.0	Yes	2.824	0.0	n/a	GoodResponse	0	n/a	n/a	2	38	Fixation	AvoidedLoss	True
368.425	0.28	Lose2	0.6154	0.001	Yes	2.824	-0.001	2.0	GoodResponse	0	0.231	367.656	2	38	Target	AvoidedLoss	True
368.656	0.3	Lose2	0.6154	0.001	Yes	2.824	-0.001	2.0	GoodResponse	0	0.231	n/a	2	38	ButtonPress	AvoidedLoss	True
368.708	0.42	Lose2	0.6154	n/a	Yes	2.824	n/a	n/a	GoodResponse	0	n/a	n/a	2	38	Blank	AvoidedLoss	True
369.124	1.45	Lose2	0.6154	n/a	Yes	2.824	n/a	5.0	GoodResponse	0	0.02	368.144	2	38	Feedback	AvoidedLoss	True
370.574	2.824	Lose2	0.6154	n/a	Yes	2.824	n/a	n/a	GoodResponse	0	0.0	n/a	2	38	ISIslide	AvoidedLoss	True
373.423	0.25	Win2	0.625	0.0	Yes	2.977	0.023	n/a	GoodResponse	1	n/a	n/a	3	39	Cue	Win	True
373.673	4.1	Win2	0.625	0.0	Yes	2.977	0.0	n/a	GoodResponse	1	n/a	n/a	3	39	Fixation	Win	True
377.771	0.29	Win2	0.625	0.002	Yes	2.977	-0.002	2.0	GoodResponse	1	0.198	376.969	3	39	Target	Win	True
377.969	0.3	Win2	0.625	0.002	Yes	2.977	-0.002	2.0	GoodResponse	1	0.198	n/a	3	39	ButtonPress	Win	True
378.071	0.41	Win2	0.625	n/a	Yes	2.977	n/a	n/a	GoodResponse	1	n/a	n/a	3	39	Blank	Win	True
378.471	1.45	Win2	0.625	n/a	Yes	2.977	n/a	5.0	GoodResponse	1	0.039	377.51	3	39	Feedback	Win	True
379.921	2.977	Win2	0.625	n/a	Yes	2.977	n/a	n/a	GoodResponse	1	0.0	n/a	3	39	ISIslide	Win	True
382.92	0.25	Win2	0.6341	0.0	Yes	2.73	0.02	n/a	GoodResponse	1	n/a	n/a	4	40	Cue	Win	True
383.17	3.95	Win2	0.6341	0.0	Yes	2.73	0.0	n/a	GoodResponse	1	n/a	n/a	4	40	Fixation	Win	True
387.118	0.3	Win2	0.6341	0.002	Yes	2.73	-0.002	2.0	GoodResponse	1	0.206	386.324	4	40	Target	Win	True
387.324	0.3	Win2	0.6341	0.002	Yes	2.73	-0.002	2.0	GoodResponse	1	0.206	n/a	4	40	ButtonPress	Win	True
387.418	0.4	Win2	0.6341	n/a	Yes	2.73	n/a	n/a	GoodResponse	1	n/a	n/a	4	40	Blank	Win	True
387.818	1.45	Win2	0.6341	n/a	Yes	2.73	n/a	5.0	GoodResponse	1	0.01	386.828	4	40	Feedback	Win	True
389.268	2.73	Win2	0.6341	n/a	Yes	2.73	n/a	n/a	GoodResponse	1	0.0	n/a	4	40	ISIslide	Win	True
392.017	0.25	Win2	0.6429	0.0	Yes	2.783	0.017	n/a	GoodResponse	1	n/a	n/a	5	41	Cue	Win	True
392.266	3.9	Win2	0.6429	0.001	Yes	2.783	-0.001	n/a	GoodResponse	1	n/a	n/a	5	41	Fixation	Win	True
396.165	0.31	Win2	0.6429	0.002	Yes	2.783	-0.002	2.0	GoodResponse	1	0.199	395.364	5	41	Target	Win	True
396.364	0.3	Win2	0.6429	0.002	Yes	2.783	-0.002	2.0	GoodResponse	1	0.199	n/a	5	41	ButtonPress	Win	True
396.482	0.39	Win2	0.6429	n/a	Yes	2.783	n/a	n/a	GoodResponse	1	n/a	n/a	5	41	Blank	Win	True
396.865	1.45	Win2	0.6429	n/a	Yes	2.783	n/a	5.0	GoodResponse	1	0.035	395.9	5	41	Feedback	Win	True
398.314	2.783	Win2	0.6429	n/a	Yes	2.783	n/a	n/a	GoodResponse	1	0.0	n/a	5	41	ISIslide	Win	True
401.113	0.25	Control	0.6512	0.0	Yes	2.937	0.013	n/a	GoodResponse	0	n/a	n/a	5	42	Cue	Neutral	True
401.363	3.85	Control	0.6512	0.0	Yes	2.937	0.0	n/a	GoodResponse	0	n/a	n/a	5	42	Fixation	Neutral	True
405.212	0.32	Control	0.6512	0.001	Yes	2.937	-0.001	2.0	GoodResponse	0	0.193	404.405	5	42	Target	Neutral	True
405.405	0.3	Control	0.6512	0.001	Yes	2.937	-0.001	2.0	GoodResponse	0	0.193	n/a	5	42	ButtonPress	Neutral	True
405.529	0.38	Control	0.6512	n/a	Yes	2.937	n/a	n/a	GoodResponse	0	n/a	n/a	5	42	Blank	Neutral	True
405.912	1.45	Control	0.6512	n/a	Yes	2.937	n/a	5.0	GoodResponse	0	0.012	404.924	5	42	Feedback	Neutral	True
407.361	2.937	Control	0.6512	n/a	Yes	2.937	n/a	n/a	GoodResponse	0	0.0	n/a	5	42	ISIslide	Neutral	True
410.327	0.25	Win2	0.6591	0.0	Yes	3.173	0.027	n/a	GoodResponse	1	n/a	n/a	6	43	Cue	Win	True
410.577	4.0	Win2	0.6591	0.0	Yes	3.173	0.0	n/a	GoodResponse	1	n/a	n/a	6	43	Fixation	Win	True
414.575	0.33	Win2	0.6591	0.002	Yes	3.173	-0.002	2.0	GoodResponse	1	0.205	413.78	6	43	Target	Win	True
414.78	0.3	Win2	0.6591	0.002	Yes	3.173	-0.002	2.0	GoodResponse	1	0.205	n/a	6	43	ButtonPress	Win	True
414.909	0.37	Win2	0.6591	n/a	Yes	3.173	n/a	n/a	GoodResponse	1	n/a	n/a	6	43	Blank	Win	True
415.275	1.45	Win2	0.6591	n/a	Yes	3.173	n/a	5.0	GoodResponse	1	0.015	414.29	6	43	Feedback	Win	True
416.725	3.173	Win2	0.6591	n/a	Yes	3.173	n/a	n/a	GoodResponse	1	0.0	n/a	6	43	ISIslide	Win	True
419.924	0.25	Win2	0.6667000000000001	0.0	Yes	2.976	0.024	n/a	GoodResponse	1	n/a	n/a	7	44	Cue	Win	True
420.173	4.0	Win2	0.6667000000000001	0.001	Yes	2.976	-0.001	n/a	GoodResponse	1	n/a	n/a	7	44	Fixation	Win	True
424.172	0.33	Win2	0.6667000000000001	0.002	Yes	2.976	-0.002	2.0	GoodResponse	1	0.202	423.374	7	44	Target	Win	True
424.374	0.3	Win2	0.6667000000000001	0.002	Yes	2.976	-0.002	2.0	GoodResponse	1	0.202	n/a	7	44	ButtonPress	Win	True
424.505	0.37	Win2	0.6667000000000001	n/a	Yes	2.976	n/a	n/a	GoodResponse	1	n/a	n/a	7	44	Blank	Win	True
424.872	1.45	Win2	0.6667000000000001	n/a	Yes	2.976	n/a	5.0	GoodResponse	1	0.028	423.9	7	44	Feedback	Win	True
426.321	2.976	Win2	0.6667000000000001	n/a	Yes	2.976	n/a	n/a	GoodResponse	1	0.0	n/a	7	44	ISIslide	Win	True
429.32	0.25	Control	0.6739	0.0	Yes	2.88	0.02	n/a	GoodResponse	0	n/a	n/a	7	45	Cue	Neutral	True
429.57	4.1	Control	0.6739	0.0	Yes	2.88	0.0	n/a	GoodResponse	0	n/a	n/a	7	45	Fixation	Neutral	True
433.669	0.32	Control	0.6739	0.001	Yes	2.88	-0.001	2.0	GoodResponse	0	0.176	432.845	7	45	Target	Neutral	True
433.845	0.3	Control	0.6739	0.001	Yes	2.88	-0.001	2.0	GoodResponse	0	0.176	n/a	7	45	ButtonPress	Neutral	True
433.985	0.38	Control	0.6739	n/a	Yes	2.88	n/a	n/a	GoodResponse	0	n/a	n/a	7	45	Blank	Neutral	True
434.369	1.45	Control	0.6739	n/a	Yes	2.88	n/a	5.0	GoodResponse	0	0.044	433.413	7	45	Feedback	Neutral	True
435.818	2.88	Control	0.6739	n/a	Yes	2.88	n/a	n/a	GoodResponse	0	0.0	n/a	7	45	ISIslide	Neutral	True
438.717	0.25	Lose2	0.6809000000000001	0.0	Yes	3.383	0.017	n/a	GoodResponse	0	n/a	n/a	7	46	Cue	AvoidedLoss	True
438.967	4.0	Lose2	0.6809000000000001	0.0	Yes	3.383	0.0	n/a	GoodResponse	0	n/a	n/a	7	46	Fixation	AvoidedLoss	True
442.966	0.31	Lose2	0.6809000000000001	0.001	Yes	3.383	-0.001	2.0	GoodResponse	0	0.22	442.186	7	46	Target	AvoidedLoss	True
443.186	0.3	Lose2	0.6809000000000001	0.001	Yes	3.383	-0.001	2.0	GoodResponse	0	0.22	n/a	7	46	ButtonPress	AvoidedLoss	True
443.282	0.39	Lose2	0.6809000000000001	n/a	Yes	3.383	n/a	n/a	GoodResponse	0	n/a	n/a	7	46	Blank	AvoidedLoss	True
443.665	1.45	Lose2	0.6809000000000001	n/a	Yes	3.383	n/a	5.0	GoodResponse	0	0.016	442.681	7	46	Feedback	AvoidedLoss	True
445.115	3.383	Lose2	0.6809000000000001	n/a	Yes	3.383	n/a	n/a	GoodResponse	0	0.0	n/a	7	46	ISIslide	AvoidedLoss	True
448.514	0.25	Lose2	0.6875	0.0	Yes	2.686	0.014	n/a	GoodResponse	0	n/a	n/a	7	47	Cue	AvoidedLoss	True
448.764	4.0	Lose2	0.6875	0.0	Yes	2.686	0.0	n/a	GoodResponse	0	n/a	n/a	7	47	Fixation	AvoidedLoss	True
452.762	0.3	Lose2	0.6875	0.002	Yes	2.686	-0.002	2.0	GoodResponse	0	0.223	451.985	7	47	Target	AvoidedLoss	True
452.985	0.3	Lose2	0.6875	0.002	Yes	2.686	-0.002	2.0	GoodResponse	0	0.223	n/a	7	47	ButtonPress	AvoidedLoss	True
453.062	0.4	Lose2	0.6875	n/a	Yes	2.686	n/a	n/a	GoodResponse	0	n/a	n/a	7	47	Blank	AvoidedLoss	True
453.462	1.45	Lose2	0.6875	n/a	Yes	2.686	n/a	5.0	GoodResponse	0	0.023	452.485	7	47	Feedback	AvoidedLoss	True
454.911	2.686	Lose2	0.6875	n/a	Yes	2.686	n/a	n/a	GoodResponse	0	0.0	n/a	7	47	ISIslide	AvoidedLoss	True
457.627	0.25	Lose2	0.6939	0.0	Yes	3.023	0.027	n/a	GoodResponse	0	n/a	n/a	7	48	Cue	AvoidedLoss	True
457.877	3.95	Lose2	0.6939	0.0	Yes	3.023	0.0	n/a	GoodResponse	0	n/a	n/a	7	48	Fixation	AvoidedLoss	True
461.826	0.29	Lose2	0.6939	0.001	Yes	3.023	-0.001	2.0	GoodResponse	0	0.229	461.055	7	48	Target	AvoidedLoss	True
462.055	0.3	Lose2	0.6939	0.001	Yes	3.023	-0.001	2.0	GoodResponse	0	0.229	n/a	7	48	ButtonPress	AvoidedLoss	True
462.126	0.41	Lose2	0.6939	n/a	Yes	3.023	n/a	n/a	GoodResponse	0	n/a	n/a	7	48	Blank	AvoidedLoss	True
462.526	1.45	Lose2	0.6939	n/a	Yes	3.023	n/a	5.0	GoodResponse	0	0.032	461.558	7	48	Feedback	AvoidedLoss	True
463.975	3.023	Lose2	0.6939	n/a	Yes	3.023	n/a	n/a	GoodResponse	0	0.0	n/a	7	48	ISIslide	AvoidedLoss	True
467.024	0.25	Control	0.68	0.0	No	2.876	0.024	n/a	NoResponse	0	n/a	n/a	7	49	Cue	Neutral	True
467.274	4.0	Control	0.68	0.0	No	2.876	0.0	n/a	NoResponse	0	n/a	n/a	7	49	Fixation	Neutral	True
471.272	0.28	Control	0.68	0.002	No	2.876	-0.002	2.0	NoResponse	0	0.331	470.603	7	49	Target	Neutral	True
471.556	0.42	Control	0.68	n/a	No	2.876	n/a	n/a	NoResponse	0	n/a	n/a	7	49	Blank	Neutral	True
471.603	0.3	Control	0.68	0.002	No	2.876	-0.002	2.0	NoResponse	0	0.331	n/a	7	49	ButtonPress	Neutral	True
471.972	1.45	Control	0.68	n/a	No	2.876	n/a	5.0	NoResponse	0	0.001	470.973	7	49	Feedback	Neutral	True
473.422	2.876	Control	0.68	n/a	No	2.876	n/a	n/a	NoResponse	0	0.0	n/a	7	49	ISIslide	Neutral	True
476.321	0.25	Control	0.6862999999999999	0.0	Yes	2.779	0.021	n/a	GoodResponse	0	n/a	n/a	7	50	Cue	Neutral	True
476.571	4.0	Control	0.6862999999999999	0.0	Yes	2.779	0.0	n/a	GoodResponse	0	n/a	n/a	7	50	Fixation	Neutral	True
480.569	0.27	Control	0.6862999999999999	0.002	Yes	2.779	-0.002	2.0	GoodResponse	0	0.209	479.778	7	50	Target	Neutral	True
480.778	0.3	Control	0.6862999999999999	0.002	Yes	2.779	-0.002	2.0	GoodResponse	0	0.209	n/a	7	50	ButtonPress	Neutral	True
480.853	0.43	Control	0.6862999999999999	n/a	Yes	2.779	n/a	n/a	GoodResponse	0	n/a	n/a	7	50	Blank	Neutral	True
481.269	1.45	Control	0.6862999999999999	n/a	Yes	2.779	n/a	5.0	GoodResponse	0	0.021	480.29	7	50	Feedback	Neutral	True
482.719	2.779	Control	0.6862999999999999	n/a	Yes	2.779	n/a	n/a	GoodResponse	0	0.0	n/a	7	50	ISIslide	Neutral	True
485.518	0.25	Control	0.6923	0.0	Yes	2.732	0.018	n/a	GoodResponse	0	n/a	n/a	7	51	Cue	Neutral	True
485.767	3.95	Control	0.6923	0.001	Yes	2.732	-0.001	n/a	GoodResponse	0	n/a	n/a	7	51	Fixation	Neutral	True
489.716	0.26	Control	0.6923	0.002	Yes	2.732	-0.002	2.0	GoodResponse	0	0.187	488.903	7	51	Target	Neutral	True
489.903	0.3	Control	0.6923	0.002	Yes	2.732	-0.002	2.0	GoodResponse	0	0.187	n/a	7	51	ButtonPress	Neutral	True
489.983	0.44	Control	0.6923	n/a	Yes	2.732	n/a	n/a	GoodResponse	0	n/a	n/a	7	51	Blank	Neutral	True
490.416	1.45	Control	0.6923	n/a	Yes	2.732	n/a	5.0	GoodResponse	0	0.045	489.461	7	51	Feedback	Neutral	True
491.865	2.732	Control	0.6923	n/a	Yes	2.732	n/a	n/a	GoodResponse	0	0.0	n/a	7	51	ISIslide	Neutral	True
494.614	0.25	Control	0.6981	0.001	Yes	2.636	0.014	n/a	GoodResponse	0	n/a	n/a	7	52	Cue	Neutral	True
494.864	4.05	Control	0.6981	0.0	Yes	2.636	0.0	n/a	GoodResponse	0	n/a	n/a	7	52	Fixation	Neutral	True
498.913	0.25	Control	0.6981	0.001	Yes	2.636	-0.001	2.0	GoodResponse	0	0.21	498.123	7	52	Target	Neutral	True
499.123	0.3	Control	0.6981	0.001	Yes	2.636	-0.001	2.0	GoodResponse	0	0.21	n/a	7	52	ButtonPress	Neutral	True
499.163	0.45	Control	0.6981	n/a	Yes	2.636	n/a	n/a	GoodResponse	0	n/a	n/a	7	52	Blank	Neutral	True
499.613	1.45	Control	0.6981	n/a	Yes	2.636	n/a	5.0	GoodResponse	0	0.019	498.632	7	52	Feedback	Neutral	True
501.062	2.636	Control	0.6981	n/a	Yes	2.636	n/a	n/a	GoodResponse	0	0.0	n/a	7	52	ISIslide	Neutral	True
503.728	0.25	Win2	0.7037	0.0	Yes	2.922	0.028	n/a	GoodResponse	1	n/a	n/a	8	53	Cue	Win	True
503.978	4.05	Win2	0.7037	0.0	Yes	2.922	0.0	n/a	GoodResponse	1	n/a	n/a	8	53	Fixation	Win	True
508.026	0.24	Win2	0.7037	0.002	Yes	2.922	-0.002	2.0	GoodResponse	1	0.185	507.211	8	53	Target	Win	True
508.211	0.3	Win2	0.7037	0.002	Yes	2.922	-0.002	2.0	GoodResponse	1	0.185	n/a	8	53	ButtonPress	Win	True
508.276	0.46	Win2	0.7037	n/a	Yes	2.922	n/a	n/a	GoodResponse	1	n/a	n/a	8	53	Blank	Win	True
508.726	1.45	Win2	0.7037	n/a	Yes	2.922	n/a	5.0	GoodResponse	1	0.027	507.753	8	53	Feedback	Win	True
510.176	2.922	Win2	0.7037	n/a	Yes	2.922	n/a	n/a	GoodResponse	1	0.0	n/a	8	53	ISIslide	Win	True
513.125	0.25	Win2	0.6909000000000001	0.0	No	2.725	0.025	n/a	NoResponse	0	n/a	n/a	8	54	Cue	MissedWin	True
513.375	3.95	Win2	0.6909000000000001	0.0	No	2.725	0.0	n/a	NoResponse	0	n/a	n/a	8	54	Fixation	MissedWin	True
517.323	0.23	Win2	0.6909000000000001	0.002	No	2.725	-0.002	2.0	NoResponse	0	0.259	516.582	8	54	Target	MissedWin	True
517.556	0.47	Win2	0.6909000000000001	n/a	No	2.725	n/a	n/a	NoResponse	0	n/a	n/a	8	54	Blank	MissedWin	True
517.582	0.3	Win2	0.6909000000000001	0.002	No	2.725	-0.002	2.0	NoResponse	0	0.259	n/a	8	54	ButtonPress	MissedWin	True
518.023	1.45	Win2	0.6909000000000001	n/a	No	2.725	n/a	5.0	NoResponse	0	0.047	517.07	8	54	Feedback	MissedWin	True
519.472	2.725	Win2	0.6909000000000001	n/a	No	2.725	n/a	n/a	NoResponse	0	0.0	n/a	8	54	ISIslide	MissedWin	True
522.222	0.25	Control	0.6964	0.0	Yes	3.028	0.022	n/a	GoodResponse	0	n/a	n/a	8	55	Cue	Neutral	True
522.471	3.95	Control	0.6964	0.001	Yes	3.028	-0.001	n/a	GoodResponse	0	n/a	n/a	8	55	Fixation	Neutral	True
526.42	0.22	Control	0.6964	0.002	Yes	3.028	-0.002	2.0	GoodResponse	0	0.208	525.628	8	55	Target	Neutral	True
526.628	0.3	Control	0.6964	0.002	Yes	3.028	-0.002	2.0	GoodResponse	0	0.208	n/a	8	55	ButtonPress	Neutral	True
526.653	0.48	Control	0.6964	n/a	Yes	3.028	n/a	n/a	GoodResponse	0	n/a	n/a	8	55	Blank	Neutral	True
527.12	1.45	Control	0.6964	n/a	Yes	3.028	n/a	5.0	GoodResponse	0	0.023	526.143	8	55	Feedback	Neutral	True
528.569	3.028	Control	0.6964	n/a	Yes	3.028	n/a	n/a	GoodResponse	0	0.0	n/a	8	55	ISIslide	Neutral	True
531.618	0.25	Control	0.7018000000000001	0.0	Yes	2.832	0.018	n/a	GoodResponse	0	n/a	n/a	8	56	Cue	Neutral	True
531.868	3.95	Control	0.7018000000000001	0.0	Yes	2.832	0.0	n/a	GoodResponse	0	n/a	n/a	8	56	Fixation	Neutral	True
535.817	0.21	Control	0.7018000000000001	0.001	Yes	2.832	-0.001	2.0	GoodResponse	0	0.174	534.991	8	56	Target	Neutral	True
535.991	0.3	Control	0.7018000000000001	0.001	Yes	2.832	-0.001	2.0	GoodResponse	0	0.174	n/a	8	56	ButtonPress	Neutral	True
536.033	0.49	Control	0.7018000000000001	n/a	Yes	2.832	n/a	n/a	GoodResponse	0	n/a	n/a	8	56	Blank	Neutral	True
536.517	1.45	Control	0.7018000000000001	n/a	Yes	2.832	n/a	5.0	GoodResponse	0	0.041	535.558	8	56	Feedback	Neutral	True
537.966	2.832	Control	0.7018000000000001	n/a	Yes	2.832	n/a	n/a	GoodResponse	0	0.0	n/a	8	56	ISIslide	Neutral	True
540.815	0.25	Control	0.7069	0.0	Yes	3.485	0.015	n/a	GoodResponse	0	n/a	n/a	8	57	Cue	Neutral	True
541.065	4.0	Control	0.7069	0.0	Yes	3.485	0.0	n/a	GoodResponse	0	n/a	n/a	8	57	Fixation	Neutral	True
545.064	0.2	Control	0.7069	0.001	Yes	3.485	-0.001	2.0	GoodResponse	0	0.199	544.263	8	57	Target	Neutral	True
545.263	0.3	Control	0.7069	0.001	Yes	3.485	-0.001	2.0	GoodResponse	0	0.199	n/a	8	57	ButtonPress	Neutral	True
545.264	0.5	Control	0.7069	n/a	Yes	3.485	n/a	n/a	GoodResponse	0	n/a	n/a	8	57	Blank	Neutral	True
545.763	1.45	Control	0.7069	n/a	Yes	3.485	n/a	5.0	GoodResponse	0	0.015	544.778	8	57	Feedback	Neutral	True
547.213	3.485	Control	0.7069	n/a	Yes	3.485	n/a	n/a	GoodResponse	0	0.0	n/a	8	57	ISIslide	Neutral	True
550.728	0.25	Win2	0.7119	0.0	Yes	2.722	0.028	n/a	GoodResponse	1	n/a	n/a	9	58	Cue	Win	True
550.978	4.05	Win2	0.7119	0.0	Yes	2.722	0.0	n/a	GoodResponse	1	n/a	n/a	9	58	Fixation	Win	True
555.027	0.19	Win2	0.7119	0.001	Yes	2.722	-0.001	2.0	GoodResponse	1	0.175	554.202	9	58	Target	Win	True
555.202	0.3	Win2	0.7119	0.001	Yes	2.722	-0.001	2.0	GoodResponse	1	0.175	n/a	9	58	ButtonPress	Win	True
555.227	0.51	Win2	0.7119	n/a	Yes	2.722	n/a	n/a	GoodResponse	1	n/a	n/a	9	58	Blank	Win	True
555.727	1.45	Win2	0.7119	n/a	Yes	2.722	n/a	5.0	GoodResponse	1	0.006	554.733	9	58	Feedback	Win	True
557.176	2.722	Win2	0.7119	n/a	Yes	2.722	n/a	n/a	GoodResponse	1	0.0	n/a	9	58	ISIslide	Win	True
559.925	0.25	Lose2	0.7	0.0	No	2.675	0.025	n/a	NoResponse	-1	n/a	n/a	8	59	Cue	Loss	True
560.175	4.0	Lose2	0.7	0.0	No	2.675	0.0	n/a	NoResponse	-1	n/a	n/a	8	59	Fixation	Loss	True
564.174	0.18	Lose2	0.7	0.001	No	2.675	-0.001	2.0	NoResponse	-1	0.218	563.392	8	59	Target	Loss	True
564.357	0.52	Lose2	0.7	n/a	No	2.675	n/a	n/a	NoResponse	-1	n/a	n/a	8	59	Blank	Loss	True
564.392	0.3	Lose2	0.7	0.001	No	2.675	-0.001	2.0	NoResponse	-1	0.218	n/a	8	59	ButtonPress	Loss	True
564.873	1.45	Lose2	0.7	n/a	No	2.675	n/a	5.0	NoResponse	-1	0.027	563.9	8	59	Feedback	Loss	True
566.323	2.675	Lose2	0.7	n/a	No	2.675	n/a	n/a	NoResponse	-1	0.0	n/a	8	59	ISIslide	Loss	True
569.022	0.25	Control	0.6884999999999999	0.0	No	2.678	0.022	n/a	NoResponse	0	n/a	n/a	8	60	Cue	Neutral	True
569.272	4.0	Control	0.6884999999999999	0.0	No	2.678	0.0	n/a	NoResponse	0	n/a	n/a	8	60	Fixation	Neutral	True
573.271	0.17	Control	0.6884999999999999	0.001	No	2.678	-0.001	2.0	NoResponse	0	0.183	572.454	8	60	Target	Neutral	True
573.454	0.53	Control	0.6884999999999999	n/a	No	2.678	n/a	n/a	NoResponse	0	n/a	n/a	8	60	Blank	Neutral	True
573.454	0.3	Control	0.6884999999999999	0.001	No	2.678	-0.001	2.0	NoResponse	0	0.183	n/a	8	60	ButtonPress	Neutral	True
573.97	1.45	Control	0.6884999999999999	n/a	No	2.678	n/a	5.0	NoResponse	0	0.007	572.977	8	60	Feedback	Neutral	True
575.42	2.678	Control	0.6884999999999999	n/a	No	2.678	n/a	n/a	NoResponse	0	0.0	n/a	8	60	ISIslide	Neutral	True
578.119	0.25	Lose2	0.6774	0.0	No	2.981	0.019	n/a	NoResponse	-1	n/a	n/a	7	61	Cue	Loss	True
578.369	4.0	Lose2	0.6774	0.0	No	2.981	0.0	n/a	NoResponse	-1	n/a	n/a	7	61	Fixation	Loss	True
582.367	0.16	Lose2	0.6774	0.002	No	2.981	-0.002	2.0	NoResponse	-1	0.197	581.564	7	61	Target	Loss	True
582.534	0.54	Lose2	0.6774	n/a	No	2.981	n/a	n/a	NoResponse	-1	n/a	n/a	7	61	Blank	Loss	True
582.564	0.3	Lose2	0.6774	0.002	No	2.981	-0.002	2.0	NoResponse	-1	0.197	n/a	7	61	ButtonPress	Loss	True
583.067	1.45	Lose2	0.6774	n/a	No	2.981	n/a	5.0	NoResponse	-1	0.027	582.094	7	61	Feedback	Loss	True
584.517	2.981	Lose2	0.6774	n/a	No	2.981	n/a	n/a	NoResponse	-1	0.0	n/a	7	61	ISIslide	Loss	True
587.516	0.25	Lose2	0.6667000000000001	0.0	No	2.884	0.016	n/a	NoResponse	-1	n/a	n/a	6	62	Cue	Loss	True
587.766	3.9	Lose2	0.6667000000000001	0.0	No	2.884	0.0	n/a	NoResponse	-1	n/a	n/a	6	62	Fixation	Loss	True
591.664	0.15	Lose2	0.6667000000000001	0.002	No	2.884	-0.002	2.0	NoResponse	-1	0.232	590.896	6	62	Target	Loss	True
591.814	0.55	Lose2	0.6667000000000001	n/a	No	2.884	n/a	n/a	NoResponse	-1	n/a	n/a	6	62	Blank	Loss	True
591.896	0.3	Lose2	0.6667000000000001	0.002	No	2.884	-0.002	2.0	NoResponse	-1	0.232	n/a	6	62	ButtonPress	Loss	True
592.364	1.45	Lose2	0.6667000000000001	n/a	No	2.884	n/a	5.0	NoResponse	-1	0.048	591.412	6	62	Feedback	Loss	True
593.813	2.884	Lose2	0.6667000000000001	n/a	No	2.884	n/a	n/a	NoResponse	-1	0.0	n/a	6	62	ISIslide	Loss	True
596.729	0.25	Lose2	0.6562	0.0	No	2.621	0.029	n/a	NoResponse	-1	n/a	n/a	5	63	Cue	Loss	True
596.979	4.05	Lose2	0.6562	0.0	No	2.621	0.0	n/a	NoResponse	-1	n/a	n/a	5	63	Fixation	Loss	True
601.028	0.15	Lose2	0.6562	0.001	No	2.621	-0.001	2.0	NoResponse	-1	0.186	600.214	5	63	Target	Loss	True
601.178	0.55	Lose2	0.6562	n/a	No	2.621	n/a	n/a	NoResponse	-1	n/a	n/a	5	63	Blank	Loss	True
601.214	0.3	Lose2	0.6562	0.001	No	2.621	-0.001	2.0	NoResponse	-1	0.186	n/a	5	63	ButtonPress	Loss	True
601.727	1.45	Lose2	0.6562	n/a	No	2.621	n/a	5.0	NoResponse	-1	0.002	600.729	5	63	Feedback	Loss	True
603.177	2.621	Lose2	0.6562	n/a	No	2.621	n/a	n/a	NoResponse	-1	0.0	n/a	5	63	ISIslide	Loss	True
605.826	0.25	Win2	0.6462	0.0	No	3.124	0.026	n/a	NoResponse	0	n/a	n/a	5	64	Cue	MissedWin	True
606.076	4.15	Win2	0.6462	0.0	No	3.124	0.0	n/a	NoResponse	0	n/a	n/a	5	64	Fixation	MissedWin	True
610.224	0.15	Win2	0.6462	0.002	No	3.124	-0.002	2.0	NoResponse	0	0.171	609.395	5	64	Target	MissedWin	True
610.374	0.55	Win2	0.6462	n/a	No	3.124	n/a	n/a	NoResponse	0	n/a	n/a	5	64	Blank	MissedWin	True
610.395	0.3	Win2	0.6462	0.002	No	3.124	-0.002	2.0	NoResponse	0	0.171	n/a	5	64	ButtonPress	MissedWin	True
610.924	1.45	Win2	0.6462	n/a	No	3.124	n/a	5.0	NoResponse	0	0.024	609.948	5	64	Feedback	MissedWin	True
612.374	3.124	Win2	0.6462	n/a	No	3.124	n/a	n/a	NoResponse	0	0.0	n/a	5	64	ISIslide	MissedWin	True
615.523	0.25	Control	0.6515000000000001	0.0	Yes	2.777	0.023	n/a	GoodResponse	0	n/a	n/a	5	65	Cue	Neutral	False
615.773	4.0	Control	0.6515000000000001	0.0	Yes	2.777	0.0	2.0	GoodResponse	0	3.722	618.495	5	65	Fixation	Neutral	False
619.495	0.3	Control	0.6515000000000001	0.0	Yes	2.777	0.0	2.0	GoodResponse	0	3.722	n/a	5	65	ButtonPress	Neutral	False
619.771	0.16	Control	0.6515000000000001	0.002	Yes	2.777	-0.002	2.0	GoodResponse	0	0.139	618.91	5	65	Target	Neutral	False
619.91	0.3	Control	0.6515000000000001	0.002	Yes	2.777	-0.002	2.0	GoodResponse	0	0.139	n/a	5	65	ButtonPress	Neutral	False
619.938	0.54	Control	0.6515000000000001	n/a	Yes	2.777	n/a	n/a	GoodResponse	0	n/a	n/a	5	65	Blank	Neutral	False
620.471	1.45	Control	0.6515000000000001	n/a	Yes	2.777	n/a	5.0	GoodResponse	0	0.038	619.509	5	65	Feedback	Neutral	False
621.92	2.777	Control	0.6515000000000001	n/a	Yes	2.777	n/a	n/a	GoodResponse	0	0.0	n/a	5	65	ISIslide	Neutral	False
624.719	0.25	Win2	0.6418	0.0	No	2.781	0.019	n/a	NoResponse	0	n/a	n/a	5	66	Cue	MissedWin	True
624.969	3.9	Win2	0.6418	0.0	No	2.781	0.0	n/a	NoResponse	0	n/a	n/a	5	66	Fixation	MissedWin	True
628.868	0.17	Win2	0.6418	0.001	No	2.781	-0.001	2.0	NoResponse	0	0.201	628.069	5	66	Target	MissedWin	True
629.035	0.53	Win2	0.6418	n/a	No	2.781	n/a	n/a	NoResponse	0	n/a	n/a	5	66	Blank	MissedWin	True
629.069	0.3	Win2	0.6418	0.001	No	2.781	-0.001	2.0	NoResponse	0	0.201	n/a	5	66	ButtonPress	MissedWin	True
629.568	1.45	Win2	0.6418	n/a	No	2.781	n/a	5.0	NoResponse	0	0.014	628.582	5	66	Feedback	MissedWin	True
631.017	2.781	Win2	0.6418	n/a	No	2.781	n/a	n/a	NoResponse	0	0.0	n/a	5	66	ISIslide	MissedWin	True
633.816	0.25	Control	0.6470999999999999	0.0	Yes	2.734	0.016	n/a	GoodResponse	0	n/a	n/a	5	67	Cue	Neutral	True
634.066	3.95	Control	0.6470999999999999	0.0	Yes	2.734	0.0	n/a	GoodResponse	0	n/a	n/a	5	67	Fixation	Neutral	True
638.015	0.18	Control	0.6470999999999999	0.001	Yes	2.734	-0.001	2.0	GoodResponse	0	0.167	637.182	5	67	Target	Neutral	True
638.182	0.3	Control	0.6470999999999999	0.001	Yes	2.734	-0.001	2.0	GoodResponse	0	0.167	n/a	5	67	ButtonPress	Neutral	True
638.198	0.52	Control	0.6470999999999999	n/a	Yes	2.734	n/a	n/a	GoodResponse	0	n/a	n/a	5	67	Blank	Neutral	True
638.715	1.45	Control	0.6470999999999999	n/a	Yes	2.734	n/a	5.0	GoodResponse	0	0.038	637.753	5	67	Feedback	Neutral	True
640.164	2.734	Control	0.6470999999999999	n/a	Yes	2.734	n/a	n/a	GoodResponse	0	0.0	n/a	5	67	ISIslide	Neutral	True
642.913	0.25	Win2	0.6522	0.0	Yes	3.087	0.013	n/a	GoodResponse	1	n/a	n/a	6	68	Cue	Win	True
643.163	4.0	Win2	0.6522	0.0	Yes	3.087	0.0	n/a	GoodResponse	1	n/a	n/a	6	68	Fixation	Win	True
647.162	0.19	Win2	0.6522	0.001	Yes	3.087	-0.001	2.0	GoodResponse	1	0.103	646.265	6	68	Target	Win	True
647.265	0.3	Win2	0.6522	0.001	Yes	3.087	-0.001	2.0	GoodResponse	1	0.103	n/a	6	68	ButtonPress	Win	True
647.362	0.51	Win2	0.6522	n/a	Yes	3.087	n/a	n/a	GoodResponse	1	n/a	n/a	6	68	Blank	Win	True
647.861	1.45	Win2	0.6522	n/a	Yes	3.087	n/a	5.0	GoodResponse	1	0.014	646.875	6	68	Feedback	Win	True
649.311	3.087	Win2	0.6522	n/a	Yes	3.087	n/a	n/a	GoodResponse	1	0.0	n/a	6	68	ISIslide	Win	True
652.427	0.25	Win2	0.6429	0.0	No	3.223	0.027	n/a	NoResponse	0	n/a	n/a	6	69	Cue	MissedWin	True
652.676	3.95	Win2	0.6429	0.001	No	3.223	-0.001	n/a	NoResponse	0	n/a	n/a	6	69	Fixation	MissedWin	True
656.625	0.2	Win2	0.6429	0.002	No	3.223	-0.002	2.0	NoResponse	0	0.25	655.875	6	69	Target	MissedWin	True
656.825	0.5	Win2	0.6429	n/a	No	3.223	n/a	n/a	NoResponse	0	n/a	n/a	6	69	Blank	MissedWin	True
656.875	0.3	Win2	0.6429	0.002	No	3.223	-0.002	2.0	NoResponse	0	0.25	n/a	6	69	ButtonPress	MissedWin	True
657.325	1.45	Win2	0.6429	n/a	No	3.223	n/a	5.0	NoResponse	0	0.013	656.338	6	69	Feedback	MissedWin	True
658.774	3.223	Win2	0.6429	n/a	No	3.223	n/a	n/a	NoResponse	0	0.0	n/a	6	69	ISIslide	MissedWin	True
662.023	0.25	Lose2	0.6338	0.0	No	3.027	0.023	n/a	NoResponse	-1	n/a	n/a	5	70	Cue	Loss	True
662.273	4.05	Lose2	0.6338	0.0	No	3.027	0.0	n/a	NoResponse	-1	n/a	n/a	5	70	Fixation	Loss	True
666.322	0.21	Lose2	0.6338	0.001	No	3.027	-0.001	2.0	NoResponse	-1	0.246	665.568	5	70	Target	Loss	True
666.538	0.49	Lose2	0.6338	n/a	No	3.027	n/a	n/a	NoResponse	-1	n/a	n/a	5	70	Blank	Loss	True
666.568	0.3	Lose2	0.6338	0.001	No	3.027	-0.001	2.0	NoResponse	-1	0.246	n/a	5	70	ButtonPress	Loss	True
667.021	1.45	Lose2	0.6338	n/a	No	3.027	n/a	5.0	NoResponse	-1	0.025	666.046	5	70	Feedback	Loss	True
668.471	3.027	Lose2	0.6338	n/a	No	3.027	n/a	n/a	NoResponse	-1	0.0	n/a	5	70	ISIslide	Loss	True
671.52	0.25	Win2	0.6389	0.0	Yes	2.73	0.02	n/a	GoodResponse	1	n/a	n/a	6	71	Cue	Win	True
671.77	4.05	Win2	0.6389	0.0	Yes	2.73	0.0	n/a	GoodResponse	1	n/a	n/a	6	71	Fixation	Win	True
675.818	0.22	Win2	0.6389	0.002	Yes	2.73	-0.002	2.0	GoodResponse	1	0.208	675.026	6	71	Target	Win	True
676.026	0.3	Win2	0.6389	0.002	Yes	2.73	-0.002	2.0	GoodResponse	1	0.208	n/a	6	71	ButtonPress	Win	True
676.052	0.48	Win2	0.6389	n/a	Yes	2.73	n/a	n/a	GoodResponse	1	n/a	n/a	6	71	Blank	Win	True
676.518	1.45	Win2	0.6389	n/a	Yes	2.73	n/a	5.0	GoodResponse	1	0.04	675.558	6	71	Feedback	Win	True
677.968	2.73	Win2	0.6389	n/a	Yes	2.73	n/a	n/a	GoodResponse	1	0.0	n/a	6	71	ISIslide	Win	True
680.717	0.25	Win2	0.6437999999999999	0.0	Yes	2.783	0.017	n/a	GoodResponse	1	n/a	n/a	7	72	Cue	Win	True
680.967	4.1	Win2	0.6437999999999999	0.0	Yes	2.783	0.0	n/a	GoodResponse	1	n/a	n/a	7	72	Fixation	Win	True
685.065	0.23	Win2	0.6437999999999999	0.002	Yes	2.783	-0.002	2.0	GoodResponse	1	0.221	684.286	7	72	Target	Win	True
685.286	0.3	Win2	0.6437999999999999	0.002	Yes	2.783	-0.002	2.0	GoodResponse	1	0.221	n/a	7	72	ButtonPress	Win	True
685.298	0.47	Win2	0.6437999999999999	n/a	Yes	2.783	n/a	n/a	GoodResponse	1	n/a	n/a	7	72	Blank	Win	True
685.765	1.45	Win2	0.6437999999999999	n/a	Yes	2.783	n/a	5.0	GoodResponse	1	0.013	684.778	7	72	Feedback	Win	True
687.214	2.783	Win2	0.6437999999999999	n/a	Yes	2.783	n/a	n/a	GoodResponse	1	0.0	n/a	7	72	ISIslide	Win	True
690.03	0.25	Win2	0.6486	0.0	Yes	2.67	0.03	n/a	GoodResponse	1	n/a	n/a	8	73	Cue	Win	True
690.28	4.0	Win2	0.6486	0.0	Yes	2.67	0.0	n/a	GoodResponse	1	n/a	n/a	8	73	Fixation	Win	True
694.279	0.24	Win2	0.6486	0.001	Yes	2.67	-0.001	2.0	GoodResponse	1	0.187	693.466	8	73	Target	Win	True
694.466	0.3	Win2	0.6486	0.001	Yes	2.67	-0.001	2.0	GoodResponse	1	0.187	n/a	8	73	ButtonPress	Win	True
694.529	0.46	Win2	0.6486	n/a	Yes	2.67	n/a	n/a	GoodResponse	1	n/a	n/a	8	73	Blank	Win	True
694.978	1.45	Win2	0.6486	n/a	Yes	2.67	n/a	5.0	GoodResponse	1	0.018	693.996	8	73	Feedback	Win	True
696.428	2.67	Win2	0.6486	n/a	Yes	2.67	n/a	n/a	GoodResponse	1	0.0	n/a	8	73	ISIslide	Win	True
699.127	0.25	Lose2	0.6533	0.0	Yes	2.623	0.027	n/a	GoodResponse	0	n/a	n/a	8	74	Cue	AvoidedLoss	True
699.377	4.05	Lose2	0.6533	0.0	Yes	2.623	0.0	n/a	GoodResponse	0	n/a	n/a	8	74	Fixation	AvoidedLoss	True
703.426	0.25	Lose2	0.6533	0.001	Yes	2.623	-0.001	2.0	GoodResponse	0	0.198	702.624	8	74	Target	AvoidedLoss	True
703.624	0.3	Lose2	0.6533	0.001	Yes	2.623	-0.001	2.0	GoodResponse	0	0.198	n/a	8	74	ButtonPress	AvoidedLoss	True
703.675	0.45	Lose2	0.6533	n/a	Yes	2.623	n/a	n/a	GoodResponse	0	n/a	n/a	8	74	Blank	AvoidedLoss	True
704.125	1.45	Lose2	0.6533	n/a	Yes	2.623	n/a	5.0	GoodResponse	0	0.042	703.167	8	74	Feedback	AvoidedLoss	True
705.575	2.623	Lose2	0.6533	n/a	Yes	2.623	n/a	n/a	GoodResponse	0	0.0	n/a	8	74	ISIslide	AvoidedLoss	True
708.224	0.25	Lose2	0.6579	0.0	Yes	2.926	0.024	n/a	GoodResponse	0	n/a	n/a	8	75	Cue	AvoidedLoss	True
708.474	3.95	Lose2	0.6579	0.0	Yes	2.926	0.0	n/a	GoodResponse	0	n/a	n/a	8	75	Fixation	AvoidedLoss	True
712.422	0.26	Lose2	0.6579	0.002	Yes	2.926	-0.002	2.0	GoodResponse	0	0.206	711.628	8	75	Target	AvoidedLoss	True
712.628	0.3	Lose2	0.6579	0.002	Yes	2.926	-0.002	2.0	GoodResponse	0	0.206	n/a	8	75	ButtonPress	AvoidedLoss	True
712.689	0.44	Lose2	0.6579	n/a	Yes	2.926	n/a	n/a	GoodResponse	0	n/a	n/a	8	75	Blank	AvoidedLoss	True
713.122	1.45	Lose2	0.6579	n/a	Yes	2.926	n/a	5.0	GoodResponse	0	0.021	712.143	8	75	Feedback	AvoidedLoss	True
714.572	2.926	Lose2	0.6579	n/a	Yes	2.926	n/a	n/a	GoodResponse	0	0.0	n/a	8	75	ISIslide	AvoidedLoss	True
717.521	0.25	Control	0.6623	0.0	Yes	3.229	0.021	n/a	GoodResponse	0	n/a	n/a	8	76	Cue	Neutral	True
717.771	4.05	Control	0.6623	0.0	Yes	3.229	0.0	n/a	GoodResponse	0	n/a	n/a	8	76	Fixation	Neutral	True
721.819	0.26	Control	0.6623	0.002	Yes	3.229	-0.002	2.0	GoodResponse	0	0.214	721.033	8	76	Target	Neutral	True
722.033	0.3	Control	0.6623	0.002	Yes	3.229	-0.002	2.0	GoodResponse	0	0.214	n/a	8	76	ButtonPress	Neutral	True
722.086	0.44	Control	0.6623	n/a	Yes	3.229	n/a	n/a	GoodResponse	0	n/a	n/a	8	76	Blank	Neutral	True
722.519	1.45	Control	0.6623	n/a	Yes	3.229	n/a	5.0	GoodResponse	0	0.039	721.558	8	76	Feedback	Neutral	True
723.968	3.229	Control	0.6623	n/a	Yes	3.229	n/a	n/a	GoodResponse	0	0.0	n/a	8	76	ISIslide	Neutral	True
727.217	0.25	Lose2	0.6667000000000001	0.0	Yes	2.583	0.017	n/a	GoodResponse	0	n/a	n/a	8	77	Cue	AvoidedLoss	True
727.467	3.95	Lose2	0.6667000000000001	0.0	Yes	2.583	0.0	n/a	GoodResponse	0	n/a	n/a	8	77	Fixation	AvoidedLoss	True
731.416	0.26	Lose2	0.6667000000000001	0.001	Yes	2.583	-0.001	2.0	GoodResponse	0	0.196	730.612	8	77	Target	AvoidedLoss	True
731.612	0.3	Lose2	0.6667000000000001	0.001	Yes	2.583	-0.001	2.0	GoodResponse	0	0.196	n/a	8	77	ButtonPress	AvoidedLoss	True
731.682	0.44	Lose2	0.6667000000000001	n/a	Yes	2.583	n/a	n/a	GoodResponse	0	n/a	n/a	8	77	Blank	AvoidedLoss	True
732.116	1.45	Lose2	0.6667000000000001	n/a	Yes	2.583	n/a	5.0	GoodResponse	0	0.006	731.122	8	77	Feedback	AvoidedLoss	True
733.565	2.583	Lose2	0.6667000000000001	n/a	Yes	2.583	n/a	n/a	GoodResponse	0	0.0	n/a	8	77	ISIslide	AvoidedLoss	True
