onset	duration	cue_type	current_mean_accuracy	duration_error	is_hit	isi_adjusted	onset_delay	response	response_type	reward	rt	rt_time	total_reward	trial_number	trial_phase	trial_type	one_press
11.109	0.25	Control	1.0	0.0	Yes	2.941	0.009	n/a	GoodResponse	0	n/a	n/a	0	0	Cue	Neutral	True
11.359	3.85	Control	1.0	0.0	Yes	2.941	0.0	n/a	GoodResponse	0	n/a	n/a	0	0	Fixation	Neutral	True
15.221	0.4	Control	1.0	0.0	Yes	2.941	0.012	2.0	GoodResponse	0	0.206	14.427	0	0	Target	Neutral	True
15.427	0.3	Control	1.0	0.0	Yes	2.941	0.012	2.0	GoodResponse	0	0.206	n/a	0	0	ButtonPress	Neutral	True
15.605	0.3	Control	1.0	n/a	Yes	2.941	n/a	n/a	GoodResponse	0	n/a	n/a	0	0	Blank	Neutral	True
15.906	1.45	Control	1.0	n/a	Yes	2.941	n/a	5.0	GoodResponse	0	0.02	14.926	0	0	Feedback	Neutral	True
17.361	2.941	Control	1.0	n/a	Yes	2.941	n/a	n/a	GoodResponse	0	0.0	n/a	0	0	ISIslide	Neutral	True
20.32	0.25	Lose2	1.0	0.0	Yes	2.78	0.02	n/a	GoodResponse	0	n/a	n/a	0	1	Cue	AvoidedLoss	True
20.57	4.0	Lose2	1.0	0.0	Yes	2.78	0.0	n/a	GoodResponse	0	n/a	n/a	0	1	Fixation	AvoidedLoss	True
24.566	0.39	Lose2	1.0	0.004	Yes	2.78	-0.004	2.0	GoodResponse	0	0.195	23.761	0	1	Target	AvoidedLoss	True
24.761	0.3	Lose2	1.0	0.004	Yes	2.78	-0.004	2.0	GoodResponse	0	0.195	n/a	0	1	ButtonPress	AvoidedLoss	True
24.967	0.31	Lose2	1.0	n/a	Yes	2.78	n/a	n/a	GoodResponse	0	n/a	n/a	0	1	Blank	AvoidedLoss	True
25.268	1.45	Lose2	1.0	n/a	Yes	2.78	n/a	5.0	GoodResponse	0	0.024	24.292	0	1	Feedback	AvoidedLoss	True
26.722	2.78	Lose2	1.0	n/a	Yes	2.78	n/a	n/a	GoodResponse	0	0.0	n/a	0	1	ISIslide	AvoidedLoss	True
29.514	0.25	Control	1.0	0.0	Yes	2.586	0.014	n/a	GoodResponse	0	n/a	n/a	0	2	Cue	Neutral	True
29.765	4.1	Control	1.0	0.0	Yes	2.586	0.001	n/a	GoodResponse	0	n/a	n/a	0	2	Fixation	Neutral	True
33.86	0.38	Control	1.0	0.004	Yes	2.586	-0.004	2.0	GoodResponse	0	0.189	33.049	0	2	Target	Neutral	True
34.049	0.3	Control	1.0	0.004	Yes	2.586	-0.004	2.0	GoodResponse	0	0.189	n/a	0	2	ButtonPress	Neutral	True
34.245	0.32	Control	1.0	n/a	Yes	2.586	n/a	n/a	GoodResponse	0	n/a	n/a	0	2	Blank	Neutral	True
34.562	1.45	Control	1.0	n/a	Yes	2.586	n/a	5.0	GoodResponse	0	0.048	33.61	0	2	Feedback	Neutral	True
36.017	2.586	Control	1.0	n/a	Yes	2.586	n/a	n/a	GoodResponse	0	0.0	n/a	0	2	ISIslide	Neutral	True
38.624	0.25	Win2	1.0	0.001	Yes	2.826	0.024	n/a	GoodResponse	1	n/a	n/a	1	3	Cue	Win	True
38.875	3.95	Win2	1.0	0.0	Yes	2.826	0.001	n/a	GoodResponse	1	n/a	n/a	1	3	Fixation	Win	True
42.82	0.37	Win2	1.0	0.004	Yes	2.826	-0.004	2.0	GoodResponse	1	0.206	42.026	1	3	Target	Win	True
43.026	0.3	Win2	1.0	0.004	Yes	2.826	-0.004	2.0	GoodResponse	1	0.206	n/a	1	3	ButtonPress	Win	True
43.205	0.33	Win2	1.0	n/a	Yes	2.826	n/a	n/a	GoodResponse	1	n/a	n/a	1	3	Blank	Win	True
43.523	1.45	Win2	1.0	n/a	Yes	2.826	n/a	5.0	GoodResponse	1	0.014	42.537	1	3	Feedback	Win	True
44.977	2.826	Win2	1.0	n/a	Yes	2.826	n/a	n/a	GoodResponse	1	0.0	n/a	1	3	ISIslide	Win	True
47.819	0.25	Win2	1.0	0.0	Yes	3.281	0.019	n/a	GoodResponse	1	n/a	n/a	2	4	Cue	Win	True
48.069	4.0	Win2	1.0	0.001	Yes	3.281	0.0	n/a	GoodResponse	1	n/a	n/a	2	4	Fixation	Win	True
52.065	0.36	Win2	1.0	0.004	Yes	3.281	-0.004	2.0	GoodResponse	1	0.195	51.26	2	4	Target	Win	True
52.26	0.3	Win2	1.0	0.004	Yes	3.281	-0.004	2.0	GoodResponse	1	0.195	n/a	2	4	ButtonPress	Win	True
52.433	0.34	Win2	1.0	n/a	Yes	3.281	n/a	n/a	GoodResponse	1	n/a	n/a	2	4	Blank	Win	True
52.767	1.45	Win2	1.0	n/a	Yes	3.281	n/a	5.0	GoodResponse	1	0.037	51.804	2	4	Feedback	Win	True
54.221	3.281	Win2	1.0	n/a	Yes	3.281	n/a	n/a	GoodResponse	1	0.0	n/a	2	4	ISIslide	Win	True
57.514	0.25	Win2	1.0	0.001	Yes	2.786	0.014	n/a	GoodResponse	1	n/a	n/a	3	5	Cue	Win	True
57.765	4.0	Win2	1.0	0.0	Yes	2.786	0.001	n/a	GoodResponse	1	n/a	n/a	3	5	Fixation	Win	True
61.761	0.35	Win2	1.0	0.003	Yes	2.786	-0.003	2.0	GoodResponse	1	0.229	60.99	3	5	Target	Win	True
61.99	0.3	Win2	1.0	0.003	Yes	2.786	-0.003	2.0	GoodResponse	1	0.229	n/a	3	5	ButtonPress	Win	True
62.112	0.35	Win2	1.0	n/a	Yes	2.786	n/a	n/a	GoodResponse	1	n/a	n/a	3	5	Blank	Win	True
62.463	1.45	Win2	1.0	n/a	Yes	2.786	n/a	5.0	GoodResponse	1	0.0	61.463	3	5	Feedback	Win	True
63.917	2.786	Win2	1.0	n/a	Yes	2.786	n/a	n/a	GoodResponse	1	0.0	n/a	3	5	ISIslide	Win	True
66.725	0.25	Lose2	1.0	0.001	Yes	2.725	0.025	n/a	GoodResponse	0	n/a	n/a	3	6	Cue	AvoidedLoss	True
66.976	3.95	Lose2	1.0	0.0	Yes	2.725	0.001	n/a	GoodResponse	0	n/a	n/a	3	6	Fixation	AvoidedLoss	True
70.921	0.34	Lose2	1.0	0.004	Yes	2.725	-0.004	2.0	GoodResponse	0	0.188	70.109	3	6	Target	AvoidedLoss	True
71.109	0.3	Lose2	1.0	0.004	Yes	2.725	-0.004	2.0	GoodResponse	0	0.188	n/a	3	6	ButtonPress	AvoidedLoss	True
71.272	0.36	Lose2	1.0	n/a	Yes	2.725	n/a	n/a	GoodResponse	0	n/a	n/a	3	6	Blank	AvoidedLoss	True
71.623	1.45	Lose2	1.0	n/a	Yes	2.725	n/a	5.0	GoodResponse	0	0.01	70.633	3	6	Feedback	AvoidedLoss	True
73.078	2.725	Lose2	1.0	n/a	Yes	2.725	n/a	n/a	GoodResponse	0	0.0	n/a	3	6	ISIslide	AvoidedLoss	True
75.819	0.25	Lose2	1.0	0.0	Yes	4.031	0.019	n/a	GoodResponse	0	n/a	n/a	3	7	Cue	AvoidedLoss	True
76.07	4.05	Lose2	1.0	0.0	Yes	4.031	0.001	n/a	GoodResponse	0	n/a	n/a	3	7	Fixation	AvoidedLoss	True
80.116	0.33	Lose2	1.0	0.003	Yes	4.031	-0.003	2.0	GoodResponse	0	0.253	79.369	3	7	Target	AvoidedLoss	True
80.369	0.3	Lose2	1.0	0.003	Yes	4.031	-0.003	2.0	GoodResponse	0	0.253	n/a	3	7	ButtonPress	AvoidedLoss	True
80.45	0.37	Lose2	1.0	n/a	Yes	4.031	n/a	n/a	GoodResponse	0	n/a	n/a	3	7	Blank	AvoidedLoss	True
80.818	1.45	Lose2	1.0	n/a	Yes	4.031	n/a	5.0	GoodResponse	0	0.035	79.853	3	7	Feedback	AvoidedLoss	True
82.272	4.031	Lose2	1.0	n/a	Yes	4.031	n/a	n/a	GoodResponse	0	0.0	n/a	3	7	ISIslide	AvoidedLoss	True
86.318	0.25	Lose2	1.0	0.0	Yes	3.032	0.018	n/a	GoodResponse	0	n/a	n/a	3	8	Cue	AvoidedLoss	True
86.568	3.95	Lose2	1.0	0.0	Yes	3.032	0.0	n/a	GoodResponse	0	n/a	n/a	3	8	Fixation	AvoidedLoss	True
90.53	0.32	Lose2	1.0	0.0	Yes	3.032	0.012	2.0	GoodResponse	0	0.228	89.758	3	8	Target	AvoidedLoss	True
90.758	0.3	Lose2	1.0	0.0	Yes	3.032	0.012	2.0	GoodResponse	0	0.228	n/a	3	8	ButtonPress	AvoidedLoss	True
90.848	0.38	Lose2	1.0	n/a	Yes	3.032	n/a	n/a	GoodResponse	0	n/a	n/a	3	8	Blank	AvoidedLoss	True
91.216	1.45	Lose2	1.0	n/a	Yes	3.032	n/a	5.0	GoodResponse	0	0.027	90.243	3	8	Feedback	AvoidedLoss	True
92.67	3.032	Lose2	1.0	n/a	Yes	3.032	n/a	n/a	GoodResponse	0	0.0	n/a	3	8	ISIslide	AvoidedLoss	True
95.729	0.25	Lose2	1.0	0.0	Yes	3.121	0.029	n/a	GoodResponse	0	n/a	n/a	3	9	Cue	AvoidedLoss	True
95.98	3.95	Lose2	1.0	0.0	Yes	3.121	0.001	n/a	GoodResponse	0	n/a	n/a	3	9	Fixation	AvoidedLoss	True
99.925	0.31	Lose2	1.0	0.004	Yes	3.121	-0.004	2.0	GoodResponse	0	0.228	99.153	3	9	Target	AvoidedLoss	True
100.153	0.3	Lose2	1.0	0.004	Yes	3.121	-0.004	2.0	GoodResponse	0	0.228	n/a	3	9	ButtonPress	AvoidedLoss	True
100.243	0.39	Lose2	1.0	n/a	Yes	3.121	n/a	n/a	GoodResponse	0	n/a	n/a	3	9	Blank	AvoidedLoss	True
100.627	1.45	Lose2	1.0	n/a	Yes	3.121	n/a	5.0	GoodResponse	0	0.031	99.658	3	9	Feedback	AvoidedLoss	True
102.082	3.121	Lose2	1.0	n/a	Yes	3.121	n/a	n/a	GoodResponse	0	0.0	n/a	3	9	ISIslide	AvoidedLoss	True
105.224	0.25	Control	1.0	0.0	Yes	3.276	0.024	n/a	GoodResponse	0	n/a	n/a	3	10	Cue	Neutral	True
105.475	4.0	Control	1.0	0.0	Yes	3.276	0.001	n/a	GoodResponse	0	n/a	n/a	3	10	Fixation	Neutral	True
109.47	0.3	Control	1.0	0.004	Yes	3.276	-0.004	2.0	GoodResponse	0	0.204	108.674	3	10	Target	Neutral	True
109.674	0.3	Control	1.0	0.004	Yes	3.276	-0.004	2.0	GoodResponse	0	0.204	n/a	3	10	ButtonPress	Neutral	True
109.771	0.4	Control	1.0	n/a	Yes	3.276	n/a	n/a	GoodResponse	0	n/a	n/a	3	10	Blank	Neutral	True
110.172	1.45	Control	1.0	n/a	Yes	3.276	n/a	5.0	GoodResponse	0	0.047	109.219	3	10	Feedback	Neutral	True
111.627	3.276	Control	1.0	n/a	Yes	3.276	n/a	n/a	GoodResponse	0	0.0	n/a	3	10	ISIslide	Neutral	True
114.92	0.25	Lose2	1.0	0.0	Yes	2.73	0.02	n/a	GoodResponse	0	n/a	n/a	3	11	Cue	AvoidedLoss	True
115.171	4.05	Lose2	1.0	0.0	Yes	2.73	0.001	n/a	GoodResponse	0	n/a	n/a	3	11	Fixation	AvoidedLoss	True
119.216	0.29	Lose2	1.0	0.004	Yes	2.73	-0.004	2.0	GoodResponse	0	0.204	118.42	3	11	Target	AvoidedLoss	True
119.42	0.3	Lose2	1.0	0.004	Yes	2.73	-0.004	2.0	GoodResponse	0	0.204	n/a	3	11	ButtonPress	AvoidedLoss	True
119.517	0.41	Lose2	1.0	n/a	Yes	2.73	n/a	n/a	GoodResponse	0	n/a	n/a	3	11	Blank	AvoidedLoss	True
119.918	1.45	Lose2	1.0	n/a	Yes	2.73	n/a	5.0	GoodResponse	0	0.009	118.927	3	11	Feedback	AvoidedLoss	True
121.373	2.73	Lose2	1.0	n/a	Yes	2.73	n/a	n/a	GoodResponse	0	0.0	n/a	3	11	ISIslide	AvoidedLoss	True
124.114	0.25	Control	1.0	0.0	Yes	2.986	0.014	n/a	GoodResponse	0	n/a	n/a	3	12	Cue	Neutral	True
124.365	3.9	Control	1.0	0.0	Yes	2.986	0.001	n/a	GoodResponse	0	n/a	n/a	3	12	Fixation	Neutral	True
128.26	0.28	Control	1.0	0.004	Yes	2.986	-0.004	2.0	GoodResponse	0	0.253	127.513	3	12	Target	Neutral	True
128.513	0.3	Control	1.0	0.004	Yes	2.986	-0.004	2.0	GoodResponse	0	0.253	n/a	3	12	ButtonPress	Neutral	True
128.544	0.42	Control	1.0	n/a	Yes	2.986	n/a	n/a	GoodResponse	0	n/a	n/a	3	12	Blank	Neutral	True
128.962	1.45	Control	1.0	n/a	Yes	2.986	n/a	5.0	GoodResponse	0	0.037	127.999	3	12	Feedback	Neutral	True
130.417	2.986	Control	1.0	n/a	Yes	2.986	n/a	n/a	GoodResponse	0	0.0	n/a	3	12	ISIslide	Neutral	True
133.426	0.25	Control	1.0	0.0	Yes	2.774	0.026	n/a	GoodResponse	0	n/a	n/a	3	13	Cue	Neutral	True
133.676	4.0	Control	1.0	0.0	Yes	2.774	0.0	n/a	GoodResponse	0	n/a	n/a	3	13	Fixation	Neutral	True
137.672	0.27	Control	1.0	0.004	Yes	2.774	-0.004	2.0	GoodResponse	0	0.229	136.901	3	13	Target	Neutral	True
137.901	0.3	Control	1.0	0.004	Yes	2.774	-0.004	2.0	GoodResponse	0	0.229	n/a	3	13	ButtonPress	Neutral	True
137.956	0.43	Control	1.0	n/a	Yes	2.774	n/a	n/a	GoodResponse	0	n/a	n/a	3	13	Blank	Neutral	True
138.374	1.45	Control	1.0	n/a	Yes	2.774	n/a	5.0	GoodResponse	0	0.04	137.414	3	13	Feedback	Neutral	True
139.828	2.774	Control	1.0	n/a	Yes	2.774	n/a	n/a	GoodResponse	0	0.0	n/a	3	13	ISIslide	Neutral	True
142.62	0.25	Win2	0.9333	0.0	No	2.68	0.02	n/a	NoResponse	0	n/a	n/a	3	14	Cue	MissedWin	True
142.871	4.1	Win2	0.9333	0.0	No	2.68	0.001	2.0	NoResponse	0	3.942	145.813	3	14	Fixation	MissedWin	True
146.813	0.3	Win2	0.9333	0.0	No	2.68	0.001	2.0	NoResponse	0	3.942	n/a	3	14	ButtonPress	MissedWin	True
146.966	0.26	Win2	0.9333	0.004	No	2.68	-0.004	n/a	NoResponse	0	n/a	n/a	3	14	Target	MissedWin	True
147.234	0.44	Win2	0.9333	n/a	No	2.68	n/a	n/a	NoResponse	0	n/a	n/a	3	14	Blank	MissedWin	True
147.668	1.45	Win2	0.9333	n/a	No	2.68	n/a	5.0	NoResponse	0	0.014	146.682	3	14	Feedback	MissedWin	True
149.123	2.68	Win2	0.9333	n/a	No	2.68	n/a	n/a	NoResponse	0	0.0	n/a	3	14	ISIslide	MissedWin	True
151.814	0.25	Control	0.9375	0.0	Yes	2.986	0.014	n/a	GoodResponse	0	n/a	n/a	3	15	Cue	Neutral	True
152.065	4.0	Control	0.9375	0.0	Yes	2.986	0.001	n/a	GoodResponse	0	n/a	n/a	3	15	Fixation	Neutral	True
156.06	0.25	Control	0.9375	0.004	Yes	2.986	-0.004	2.0	GoodResponse	0	0.222	155.282	3	15	Target	Neutral	True
156.282	0.3	Control	0.9375	0.004	Yes	2.986	-0.004	2.0	GoodResponse	0	0.222	n/a	3	15	ButtonPress	Neutral	True
156.311	0.45	Control	0.9375	n/a	Yes	2.986	n/a	n/a	GoodResponse	0	n/a	n/a	3	15	Blank	Neutral	True
156.762	1.45	Control	0.9375	n/a	Yes	2.986	n/a	5.0	GoodResponse	0	0.042	155.804	3	15	Feedback	Neutral	True
158.217	2.986	Control	0.9375	n/a	Yes	2.986	n/a	n/a	GoodResponse	0	0.0	n/a	3	15	ISIslide	Neutral	True
161.226	0.25	Win2	0.9412	0.0	Yes	2.874	0.026	n/a	GoodResponse	1	n/a	n/a	4	16	Cue	Win	True
161.476	4.0	Win2	0.9412	0.0	Yes	2.874	0.0	n/a	GoodResponse	1	n/a	n/a	4	16	Fixation	Win	True
165.472	0.24	Win2	0.9412	0.004	Yes	2.874	-0.004	2.0	GoodResponse	1	0.212	164.684	4	16	Target	Win	True
165.684	0.3	Win2	0.9412	0.004	Yes	2.874	-0.004	2.0	GoodResponse	1	0.212	n/a	4	16	ButtonPress	Win	True
165.722	0.46	Win2	0.9412	n/a	Yes	2.874	n/a	n/a	GoodResponse	1	n/a	n/a	4	16	Blank	Win	True
166.174	1.45	Win2	0.9412	n/a	Yes	2.874	n/a	5.0	GoodResponse	1	0.045	165.219	4	16	Feedback	Win	True
167.628	2.874	Win2	0.9412	n/a	Yes	2.874	n/a	n/a	GoodResponse	1	0.0	n/a	4	16	ISIslide	Win	True
170.52	0.25	Lose2	0.9444	0.0	Yes	2.73	0.02	n/a	GoodResponse	0	n/a	n/a	4	17	Cue	AvoidedLoss	True
170.771	3.95	Lose2	0.9444	0.0	Yes	2.73	0.001	n/a	GoodResponse	0	n/a	n/a	4	17	Fixation	AvoidedLoss	True
174.716	0.23	Lose2	0.9444	0.004	Yes	2.73	-0.004	2.0	GoodResponse	0	0.211	173.927	4	17	Target	AvoidedLoss	True
174.927	0.3	Lose2	0.9444	0.004	Yes	2.73	-0.004	2.0	GoodResponse	0	0.211	n/a	4	17	ButtonPress	AvoidedLoss	True
174.95	0.47	Lose2	0.9444	n/a	Yes	2.73	n/a	n/a	GoodResponse	0	n/a	n/a	4	17	Blank	AvoidedLoss	True
175.418	1.45	Lose2	0.9444	n/a	Yes	2.73	n/a	5.0	GoodResponse	0	0.02	174.438	4	17	Feedback	AvoidedLoss	True
176.873	2.73	Lose2	0.9444	n/a	Yes	2.73	n/a	n/a	GoodResponse	0	0.0	n/a	4	17	ISIslide	AvoidedLoss	True
179.614	0.25	Lose2	0.9473999999999999	0.0	Yes	2.736	0.014	n/a	GoodResponse	0	n/a	n/a	4	18	Cue	AvoidedLoss	True
179.865	4.05	Lose2	0.9473999999999999	0.0	Yes	2.736	0.001	n/a	GoodResponse	0	n/a	n/a	4	18	Fixation	AvoidedLoss	True
183.91	0.22	Lose2	0.9473999999999999	0.004	Yes	2.736	-0.004	2.0	GoodResponse	0	0.191	183.101	4	18	Target	AvoidedLoss	True
184.101	0.3	Lose2	0.9473999999999999	0.004	Yes	2.736	-0.004	2.0	GoodResponse	0	0.191	n/a	4	18	ButtonPress	AvoidedLoss	True
184.144	0.48	Lose2	0.9473999999999999	n/a	Yes	2.736	n/a	n/a	GoodResponse	0	n/a	n/a	4	18	Blank	AvoidedLoss	True
184.612	1.45	Lose2	0.9473999999999999	n/a	Yes	2.736	n/a	5.0	GoodResponse	0	0.046	183.658	4	18	Feedback	AvoidedLoss	True
186.067	2.736	Lose2	0.9473999999999999	n/a	Yes	2.736	n/a	n/a	GoodResponse	0	0.0	n/a	4	18	ISIslide	AvoidedLoss	True
188.825	0.25	Control	0.9	0.0	No	2.925	0.025	n/a	NoResponse	0	n/a	n/a	4	19	Cue	Neutral	True
189.076	3.95	Control	0.9	0.0	No	2.925	0.001	n/a	NoResponse	0	n/a	n/a	4	19	Fixation	Neutral	True
193.021	0.21	Control	0.9	0.004	No	2.925	-0.004	2.0	NoResponse	0	0.269	192.29	4	19	Target	Neutral	True
193.238	0.49	Control	0.9	n/a	No	2.925	n/a	n/a	NoResponse	0	n/a	n/a	4	19	Blank	Neutral	True
193.29	0.3	Control	0.9	0.004	No	2.925	-0.004	2.0	NoResponse	0	0.269	n/a	4	19	ButtonPress	Neutral	True
193.723	1.45	Control	0.9	n/a	No	2.925	n/a	5.0	NoResponse	0	0.008	192.731	4	19	Feedback	Neutral	True
195.177	2.925	Control	0.9	n/a	No	2.925	n/a	n/a	NoResponse	0	0.0	n/a	4	19	ISIslide	Neutral	True
198.12	0.25	Control	0.8571	0.0	No	2.63	0.02	n/a	NoResponse	0	n/a	n/a	4	20	Cue	Neutral	True
198.37	4.05	Control	0.8571	0.0	No	2.63	0.0	n/a	NoResponse	0	n/a	n/a	4	20	Fixation	Neutral	True
202.416	0.2	Control	0.8571	0.004	No	2.63	-0.004	2.0	NoResponse	0	0.211	201.627	4	20	Target	Neutral	True
202.616	0.5	Control	0.8571	n/a	No	2.63	n/a	n/a	NoResponse	0	n/a	n/a	4	20	Blank	Neutral	True
202.627	0.3	Control	0.8571	0.004	No	2.63	-0.004	2.0	NoResponse	0	0.211	n/a	4	20	ButtonPress	Neutral	True
203.118	1.45	Control	0.8571	n/a	No	2.63	n/a	5.0	NoResponse	0	0.027	202.145	4	20	Feedback	Neutral	True
204.572	2.63	Control	0.8571	n/a	No	2.63	n/a	n/a	NoResponse	0	0.0	n/a	4	20	ISIslide	Neutral	True
207.23	0.25	Control	0.8181999999999999	0.0	No	2.77	0.03	n/a	NoResponse	0	n/a	n/a	4	21	Cue	Neutral	True
207.481	4.1	Control	0.8181999999999999	0.0	No	2.77	0.001	n/a	NoResponse	0	n/a	n/a	4	21	Fixation	Neutral	True
211.577	0.19	Control	0.8181999999999999	0.003	No	2.77	-0.003	2.0	NoResponse	0	0.254	210.831	4	21	Target	Neutral	True
211.777	0.51	Control	0.8181999999999999	n/a	No	2.77	n/a	n/a	NoResponse	0	n/a	n/a	4	21	Blank	Neutral	True
211.831	0.3	Control	0.8181999999999999	0.003	No	2.77	-0.003	2.0	NoResponse	0	0.254	n/a	4	21	ButtonPress	Neutral	True
212.279	1.45	Control	0.8181999999999999	n/a	No	2.77	n/a	5.0	NoResponse	0	0.037	211.316	4	21	Feedback	Neutral	True
213.733	2.77	Control	0.8181999999999999	n/a	No	2.77	n/a	n/a	NoResponse	0	0.0	n/a	4	21	ISIslide	Neutral	True
216.525	0.25	Control	0.7826000000000001	0.0	No	2.775	0.025	n/a	NoResponse	0	n/a	n/a	4	22	Cue	Neutral	True
216.776	4.0	Control	0.7826000000000001	0.0	No	2.775	0.001	n/a	NoResponse	0	n/a	n/a	4	22	Fixation	Neutral	True
220.771	0.18	Control	0.7826000000000001	0.004	No	2.775	-0.004	2.0	NoResponse	0	0.197	219.968	4	22	Target	Neutral	True
220.955	0.52	Control	0.7826000000000001	n/a	No	2.775	n/a	n/a	NoResponse	0	n/a	n/a	4	22	Blank	Neutral	True
220.968	0.3	Control	0.7826000000000001	0.004	No	2.775	-0.004	2.0	NoResponse	0	0.197	n/a	4	22	ButtonPress	Neutral	True
221.473	1.45	Control	0.7826000000000001	n/a	No	2.775	n/a	5.0	NoResponse	0	0.014	220.487	4	22	Feedback	Neutral	True
222.927	2.775	Control	0.7826000000000001	n/a	No	2.775	n/a	n/a	NoResponse	0	0.0	n/a	4	22	ISIslide	Neutral	True
225.719	0.25	Control	0.75	0.0	No	2.781	0.019	n/a	NoResponse	0	n/a	n/a	4	23	Cue	Neutral	True
225.97	3.9	Control	0.75	0.0	No	2.781	0.001	n/a	NoResponse	0	n/a	n/a	4	23	Fixation	Neutral	True
229.865	0.17	Control	0.75	0.004	No	2.781	-0.004	2.0	NoResponse	0	0.252	229.117	4	23	Target	Neutral	True
230.049	0.53	Control	0.75	n/a	No	2.781	n/a	n/a	NoResponse	0	n/a	n/a	4	23	Blank	Neutral	True
230.117	0.3	Control	0.75	0.004	No	2.781	-0.004	2.0	NoResponse	0	0.252	n/a	4	23	ButtonPress	Neutral	True
230.567	1.45	Control	0.75	n/a	No	2.781	n/a	5.0	NoResponse	0	0.042	229.609	4	23	Feedback	Neutral	True
232.021	2.781	Control	0.75	n/a	No	2.781	n/a	n/a	NoResponse	0	0.0	n/a	4	23	ISIslide	Neutral	True
234.83	0.25	Win2	0.72	0.0	No	3.12	0.03	n/a	NoResponse	0	n/a	n/a	4	24	Cue	MissedWin	True
235.08	3.95	Win2	0.72	0.001	No	3.12	0.0	n/a	NoResponse	0	n/a	n/a	4	24	Fixation	MissedWin	True
239.026	0.16	Win2	0.72	0.004	No	3.12	-0.004	2.0	NoResponse	0	0.199	238.225	4	24	Target	MissedWin	True
239.193	0.54	Win2	0.72	n/a	No	3.12	n/a	n/a	NoResponse	0	n/a	n/a	4	24	Blank	MissedWin	True
239.225	0.3	Win2	0.72	0.004	No	3.12	-0.004	2.0	NoResponse	0	0.199	n/a	4	24	ButtonPress	MissedWin	True
239.728	1.45	Win2	0.72	n/a	No	3.12	n/a	5.0	NoResponse	0	0.007	238.735	4	24	Feedback	MissedWin	True
241.182	3.12	Win2	0.72	n/a	No	3.12	n/a	n/a	NoResponse	0	0.0	n/a	4	24	ISIslide	MissedWin	True
244.325	0.25	Win2	0.6923	0.0	No	3.075	0.025	n/a	NoResponse	0	n/a	n/a	4	25	Cue	MissedWin	True
244.576	4.0	Win2	0.6923	0.0	No	3.075	0.001	2.0	NoResponse	0	3.221	246.797	4	25	Fixation	MissedWin	True
247.797	0.3	Win2	0.6923	0.0	No	3.075	0.001	2.0	NoResponse	0	3.221	n/a	4	25	ButtonPress	MissedWin	True
248.571	0.15	Win2	0.6923	0.004	No	3.075	-0.004	n/a	NoResponse	0	n/a	n/a	4	25	Target	MissedWin	True
248.721	0.55	Win2	0.6923	n/a	No	3.075	n/a	n/a	NoResponse	0	n/a	n/a	4	25	Blank	MissedWin	True
249.273	1.45	Win2	0.6923	n/a	No	3.075	n/a	5.0	NoResponse	0	0.019	248.292	4	25	Feedback	MissedWin	True
250.727	3.075	Win2	0.6923	n/a	No	3.075	n/a	n/a	NoResponse	0	0.0	n/a	4	25	ISIslide	MissedWin	True
253.82	0.25	Win2	0.6667000000000001	0.0	No	2.93	0.02	n/a	NoResponse	0	n/a	n/a	4	26	Cue	MissedWin	True
254.071	3.95	Win2	0.6667000000000001	0.0	No	2.93	0.001	n/a	NoResponse	0	n/a	n/a	4	26	Fixation	MissedWin	True
258.016	0.15	Win2	0.6667000000000001	0.004	No	2.93	-0.004	2.0	NoResponse	0	0.259	257.275	4	26	Target	MissedWin	True
258.166	0.55	Win2	0.6667000000000001	n/a	No	2.93	n/a	n/a	NoResponse	0	n/a	n/a	4	26	Blank	MissedWin	True
258.275	0.3	Win2	0.6667000000000001	0.004	No	2.93	-0.004	2.0	NoResponse	0	0.259	n/a	4	26	ButtonPress	MissedWin	True
258.718	1.45	Win2	0.6667000000000001	n/a	No	2.93	n/a	5.0	NoResponse	0	0.037	257.755	4	26	Feedback	MissedWin	True
260.172	2.93	Win2	0.6667000000000001	n/a	No	2.93	n/a	n/a	NoResponse	0	0.0	n/a	4	26	ISIslide	MissedWin	True
263.131	0.25	Lose2	0.6429	0.0	No	2.819	0.031	n/a	NoResponse	-1	n/a	n/a	3	27	Cue	Loss	True
263.382	4.05	Lose2	0.6429	0.0	No	2.819	0.001	n/a	NoResponse	-1	n/a	n/a	3	27	Fixation	Loss	True
267.428	0.15	Lose2	0.6429	0.003	No	2.819	-0.003	2.0	NoResponse	-1	0.181	266.609	3	27	Target	Loss	True
267.578	0.55	Lose2	0.6429	n/a	No	2.819	n/a	n/a	NoResponse	-1	n/a	n/a	3	27	Blank	Loss	True
267.609	0.3	Lose2	0.6429	0.003	No	2.819	-0.003	2.0	NoResponse	-1	0.181	n/a	3	27	ButtonPress	Loss	True
268.13	1.45	Lose2	0.6429	n/a	No	2.819	n/a	5.0	NoResponse	-1	0.04	267.17	3	27	Feedback	Loss	True
269.584	2.819	Lose2	0.6429	n/a	No	2.819	n/a	n/a	NoResponse	-1	0.0	n/a	3	27	ISIslide	Loss	True
272.426	0.25	Control	0.6207	0.0	No	2.824	0.026	n/a	NoResponse	0	n/a	n/a	3	28	Cue	Neutral	True
272.677	4.05	Control	0.6207	0.0	No	2.824	0.001	n/a	NoResponse	0	n/a	n/a	3	28	Fixation	Neutral	True
276.722	0.16	Control	0.6207	0.004	No	2.824	-0.004	2.0	NoResponse	0	0.214	275.936	3	28	Target	Neutral	True
276.889	0.54	Control	0.6207	n/a	No	2.824	n/a	n/a	NoResponse	0	n/a	n/a	3	28	Blank	Neutral	True
276.936	0.3	Control	0.6207	0.004	No	2.824	-0.004	2.0	NoResponse	0	0.214	n/a	3	28	ButtonPress	Neutral	True
277.424	1.45	Control	0.6207	n/a	No	2.824	n/a	5.0	NoResponse	0	0.014	276.438	3	28	Feedback	Neutral	True
278.879	2.824	Control	0.6207	n/a	No	2.824	n/a	n/a	NoResponse	0	0.0	n/a	3	28	ISIslide	Neutral	True
281.72	0.25	Lose2	0.6	0.0	No	2.83	0.02	n/a	NoResponse	-1	n/a	n/a	2	29	Cue	Loss	True
281.971	3.95	Lose2	0.6	0.0	No	2.83	0.001	n/a	NoResponse	-1	n/a	n/a	2	29	Fixation	Loss	True
285.916	0.17	Lose2	0.6	0.004	No	2.83	-0.004	2.0	NoResponse	-1	0.196	285.112	2	29	Target	Loss	True
286.1	0.53	Lose2	0.6	n/a	No	2.83	n/a	n/a	NoResponse	-1	n/a	n/a	2	29	Blank	Loss	True
286.112	0.3	Lose2	0.6	0.004	No	2.83	-0.004	2.0	NoResponse	-1	0.196	n/a	2	29	ButtonPress	Loss	True
286.618	1.45	Lose2	0.6	n/a	No	2.83	n/a	5.0	NoResponse	-1	0.039	285.657	2	29	Feedback	Loss	True
288.073	2.83	Lose2	0.6	n/a	No	2.83	n/a	n/a	NoResponse	-1	0.0	n/a	2	29	ISIslide	Loss	True
290.931	0.25	Win2	0.5806	0.0	No	2.769	0.031	n/a	NoResponse	0	n/a	n/a	2	30	Cue	MissedWin	True
291.182	3.9	Win2	0.5806	0.0	No	2.769	0.001	n/a	NoResponse	0	n/a	n/a	2	30	Fixation	MissedWin	True
295.077	0.18	Win2	0.5806	0.004	No	2.769	-0.004	2.0	NoResponse	0	0.192	294.269	2	30	Target	MissedWin	True
295.261	0.52	Win2	0.5806	n/a	No	2.769	n/a	n/a	NoResponse	0	n/a	n/a	2	30	Blank	MissedWin	True
295.269	0.3	Win2	0.5806	0.004	No	2.769	-0.004	2.0	NoResponse	0	0.192	n/a	2	30	ButtonPress	MissedWin	True
295.779	1.45	Win2	0.5806	n/a	No	2.769	n/a	5.0	NoResponse	0	0.049	294.828	2	30	Feedback	MissedWin	True
297.234	2.769	Win2	0.5806	n/a	No	2.769	n/a	n/a	NoResponse	0	0.0	n/a	2	30	ISIslide	MissedWin	True
300.025	0.25	Lose2	0.5625	0.0	No	2.825	0.025	n/a	NoResponse	-1	n/a	n/a	1	31	Cue	Loss	True
300.276	4.05	Lose2	0.5625	0.0	No	2.825	0.001	2.0	NoResponse	-1	3.971	303.247	1	31	Fixation	Loss	True
304.247	0.3	Lose2	0.5625	0.0	No	2.825	0.001	2.0	NoResponse	-1	3.971	n/a	1	31	ButtonPress	Loss	True
304.322	0.19	Lose2	0.5625	0.003	No	2.825	-0.003	n/a	NoResponse	-1	n/a	n/a	1	31	Target	Loss	True
304.522	0.51	Lose2	0.5625	n/a	No	2.825	n/a	n/a	NoResponse	-1	n/a	n/a	1	31	Blank	Loss	True
305.024	1.45	Lose2	0.5625	n/a	No	2.825	n/a	5.0	NoResponse	-1	0.024	304.048	1	31	Feedback	Loss	True
306.478	2.825	Lose2	0.5625	n/a	No	2.825	n/a	n/a	NoResponse	-1	0.0	n/a	1	31	ISIslide	Loss	True
309.32	0.25	Lose2	0.5758	0.0	Yes	2.63	0.02	n/a	GoodResponse	0	n/a	n/a	1	32	Cue	AvoidedLoss	True
309.571	4.15	Lose2	0.5758	0.0	Yes	2.63	0.001	n/a	GoodResponse	0	n/a	n/a	1	32	Fixation	AvoidedLoss	True
313.716	0.2	Lose2	0.5758	0.004	Yes	2.63	-0.004	2.0	GoodResponse	0	0.195	312.911	1	32	Target	AvoidedLoss	True
313.911	0.3	Lose2	0.5758	0.004	Yes	2.63	-0.004	2.0	GoodResponse	0	0.195	n/a	1	32	ButtonPress	AvoidedLoss	True
313.917	0.5	Lose2	0.5758	n/a	Yes	2.63	n/a	n/a	GoodResponse	0	n/a	n/a	1	32	Blank	AvoidedLoss	True
314.418	1.45	Lose2	0.5758	n/a	Yes	2.63	n/a	5.0	GoodResponse	0	0.044	313.462	1	32	Feedback	AvoidedLoss	True
315.873	2.63	Lose2	0.5758	n/a	Yes	2.63	n/a	n/a	GoodResponse	0	0.0	n/a	1	32	ISIslide	AvoidedLoss	True
318.531	0.25	Win2	0.5588000000000001	0.0	No	2.669	0.031	n/a	LatePress	0	n/a	n/a	1	33	Cue	MissedWin	True
318.782	4.0	Win2	0.5588000000000001	0.0	No	2.669	0.001	n/a	LatePress	0	n/a	n/a	1	33	Fixation	MissedWin	True
322.777	0.21	Win2	0.5588000000000001	0.004	No	2.669	-0.004	2.0	LatePress	0	0.21	321.987	1	33	Target	MissedWin	True
322.987	0.3	Win2	0.5588000000000001	0.004	No	2.669	-0.004	2.0	LatePress	0	0.21	n/a	1	33	ButtonPress	MissedWin	True
322.994	0.49	Win2	0.5588000000000001	n/a	No	2.669	n/a	n/a	LatePress	0	n/a	n/a	1	33	Blank	MissedWin	True
323.479	1.45	Win2	0.5588000000000001	n/a	No	2.669	n/a	5.0	LatePress	0	0.008	322.487	1	33	Feedback	MissedWin	True
324.933	2.669	Win2	0.5588000000000001	n/a	No	2.669	n/a	n/a	LatePress	0	0.0	n/a	1	33	ISIslide	MissedWin	True
327.625	0.25	Lose2	0.5714	0.0	Yes	2.625	0.025	n/a	GoodResponse	0	n/a	n/a	1	34	Cue	AvoidedLoss	True
327.876	4.05	Lose2	0.5714	0.0	Yes	2.625	0.001	n/a	GoodResponse	0	n/a	n/a	1	34	Fixation	AvoidedLoss	True
331.921	0.22	Lose2	0.5714	0.004	Yes	2.625	-0.004	2.0	GoodResponse	0	0.191	331.112	1	34	Target	AvoidedLoss	True
332.112	0.3	Lose2	0.5714	0.004	Yes	2.625	-0.004	2.0	GoodResponse	0	0.191	n/a	1	34	ButtonPress	AvoidedLoss	True
332.155	0.48	Lose2	0.5714	n/a	Yes	2.625	n/a	n/a	GoodResponse	0	n/a	n/a	1	34	Blank	AvoidedLoss	True
332.623	1.45	Lose2	0.5714	n/a	Yes	2.625	n/a	5.0	GoodResponse	0	0.035	331.658	1	34	Feedback	AvoidedLoss	True
334.077	2.625	Lose2	0.5714	n/a	Yes	2.625	n/a	n/a	GoodResponse	0	0.0	n/a	1	34	ISIslide	AvoidedLoss	True
336.719	0.25	Lose2	0.5832999999999999	0.0	Yes	2.681	0.019	n/a	GoodResponse	0	n/a	n/a	1	35	Cue	AvoidedLoss	True
336.969	4.0	Lose2	0.5832999999999999	0.001	Yes	2.681	0.0	n/a	GoodResponse	0	n/a	n/a	1	35	Fixation	AvoidedLoss	True
340.965	0.23	Lose2	0.5832999999999999	0.004	Yes	2.681	-0.004	2.0	GoodResponse	0	0.213	340.178	1	35	Target	AvoidedLoss	True
341.178	0.3	Lose2	0.5832999999999999	0.004	Yes	2.681	-0.004	2.0	GoodResponse	0	0.213	n/a	1	35	ButtonPress	AvoidedLoss	True
341.199	0.47	Lose2	0.5832999999999999	n/a	Yes	2.681	n/a	n/a	GoodResponse	0	n/a	n/a	1	35	Blank	AvoidedLoss	True
341.667	1.45	Lose2	0.5832999999999999	n/a	Yes	2.681	n/a	5.0	GoodResponse	0	0.015	340.682	1	35	Feedback	AvoidedLoss	True
343.121	2.681	Lose2	0.5832999999999999	n/a	Yes	2.681	n/a	n/a	GoodResponse	0	0.0	n/a	1	35	ISIslide	AvoidedLoss	True
345.829	0.25	Control	0.5676	0.0	No	2.671	0.029	n/a	LatePress	0	n/a	n/a	1	36	Cue	Neutral	True
346.08	4.0	Control	0.5676	0.0	No	2.671	0.001	n/a	LatePress	0	n/a	n/a	1	36	Fixation	Neutral	True
350.075	0.24	Control	0.5676	0.004	No	2.671	-0.004	2.0	LatePress	0	0.24	349.315	1	36	Target	Neutral	True
350.315	0.3	Control	0.5676	0.004	No	2.671	-0.004	2.0	LatePress	0	0.24	n/a	1	36	ButtonPress	Neutral	True
350.326	0.46	Control	0.5676	n/a	No	2.671	n/a	n/a	LatePress	0	n/a	n/a	1	36	Blank	Neutral	True
350.778	1.45	Control	0.5676	n/a	No	2.671	n/a	5.0	LatePress	0	0.025	349.803	1	36	Feedback	Neutral	True
352.232	2.671	Control	0.5676	n/a	No	2.671	n/a	n/a	LatePress	0	0.0	n/a	1	36	ISIslide	Neutral	True
354.923	0.25	Win2	0.5789	0.0	Yes	2.877	0.023	n/a	GoodResponse	1	n/a	n/a	2	37	Cue	Win	True
355.174	4.0	Win2	0.5789	0.0	Yes	2.877	0.001	n/a	GoodResponse	1	n/a	n/a	2	37	Fixation	Win	True
359.169	0.25	Win2	0.5789	0.004	Yes	2.877	-0.004	2.0	GoodResponse	1	0.192	358.361	2	37	Target	Win	True
359.361	0.3	Win2	0.5789	0.004	Yes	2.877	-0.004	2.0	GoodResponse	1	0.192	n/a	2	37	ButtonPress	Win	True
359.42	0.45	Win2	0.5789	n/a	Yes	2.877	n/a	n/a	GoodResponse	1	n/a	n/a	2	37	Blank	Win	True
359.871	1.45	Win2	0.5789	n/a	Yes	2.877	n/a	5.0	GoodResponse	1	0.007	358.878	2	37	Feedback	Win	True
361.326	2.877	Win2	0.5789	n/a	Yes	2.877	n/a	n/a	GoodResponse	1	0.0	n/a	2	37	ISIslide	Win	True
364.218	0.25	Lose2	0.5640999999999999	0.0	No	2.832	0.018	n/a	PrematurePress	-1	n/a	n/a	1	38	Cue	Loss	True
364.469	3.95	Lose2	0.5640999999999999	0.0	No	2.832	0.001	n/a	PrematurePress	-1	n/a	n/a	1	38	Fixation	Loss	True
368.414	0.26	Lose2	0.5640999999999999	0.004	No	2.832	-0.004	2.0	PrematurePress	-1	0.09	367.504	1	38	Target	Loss	True
368.504	0.3	Lose2	0.5640999999999999	0.004	No	2.832	-0.004	2.0	PrematurePress	-1	0.09	n/a	1	38	ButtonPress	Loss	True
368.681	0.44	Lose2	0.5640999999999999	n/a	No	2.832	n/a	n/a	PrematurePress	-1	n/a	n/a	1	38	Blank	Loss	True
369.116	1.45	Lose2	0.5640999999999999	n/a	No	2.832	n/a	5.0	PrematurePress	-1	0.029	368.145	1	38	Feedback	Loss	True
370.57	2.832	Lose2	0.5640999999999999	n/a	No	2.832	n/a	n/a	PrematurePress	-1	0.0	n/a	1	38	ISIslide	Loss	True
373.429	0.25	Win2	0.575	0.0	Yes	2.971	0.029	n/a	GoodResponse	1	n/a	n/a	2	39	Cue	Win	True
373.68	4.1	Win2	0.575	0.0	Yes	2.971	0.001	n/a	GoodResponse	1	n/a	n/a	2	39	Fixation	Win	True
377.775	0.27	Win2	0.575	0.004	Yes	2.971	-0.004	2.0	GoodResponse	1	0.241	377.016	2	39	Target	Win	True
378.016	0.3	Win2	0.575	0.004	Yes	2.971	-0.004	2.0	GoodResponse	1	0.241	n/a	2	39	ButtonPress	Win	True
378.059	0.43	Win2	0.575	n/a	Yes	2.971	n/a	n/a	GoodResponse	1	n/a	n/a	2	39	Blank	Win	True
378.477	1.45	Win2	0.575	n/a	Yes	2.971	n/a	5.0	GoodResponse	1	0.034	377.511	2	39	Feedback	Win	True
379.932	2.971	Win2	0.575	n/a	Yes	2.971	n/a	n/a	GoodResponse	1	0.0	n/a	2	39	ISIslide	Win	True
382.924	0.25	Win2	0.5854	0.0	Yes	2.726	0.024	n/a	GoodResponse	1	n/a	n/a	3	40	Cue	Win	True
383.175	3.95	Win2	0.5854	0.0	Yes	2.726	0.001	n/a	GoodResponse	1	n/a	n/a	3	40	Fixation	Win	True
387.12	0.28	Win2	0.5854	0.004	Yes	2.726	-0.004	2.0	GoodResponse	1	0.185	386.305	3	40	Target	Win	True
387.305	0.3	Win2	0.5854	0.004	Yes	2.726	-0.004	2.0	GoodResponse	1	0.185	n/a	3	40	ButtonPress	Win	True
387.404	0.42	Win2	0.5854	n/a	Yes	2.726	n/a	n/a	GoodResponse	1	n/a	n/a	3	40	Blank	Win	True
387.822	1.45	Win2	0.5854	n/a	Yes	2.726	n/a	5.0	GoodResponse	1	0.007	386.829	3	40	Feedback	Win	True
389.276	2.726	Win2	0.5854	n/a	Yes	2.726	n/a	n/a	GoodResponse	1	0.0	n/a	3	40	ISIslide	Win	True
392.018	0.25	Win2	0.5952000000000001	0.0	Yes	2.782	0.018	n/a	GoodResponse	1	n/a	n/a	4	41	Cue	Win	True
392.269	3.9	Win2	0.5952000000000001	0.0	Yes	2.782	0.001	n/a	GoodResponse	1	n/a	n/a	4	41	Fixation	Win	True
396.164	0.29	Win2	0.5952000000000001	0.004	Yes	2.782	-0.004	2.0	GoodResponse	1	0.204	395.368	4	41	Target	Win	True
396.368	0.3	Win2	0.5952000000000001	0.004	Yes	2.782	-0.004	2.0	GoodResponse	1	0.204	n/a	4	41	ButtonPress	Win	True
396.465	0.41	Win2	0.5952000000000001	n/a	Yes	2.782	n/a	n/a	GoodResponse	1	n/a	n/a	4	41	Blank	Win	True
396.866	1.45	Win2	0.5952000000000001	n/a	Yes	2.782	n/a	5.0	GoodResponse	1	0.035	395.901	4	41	Feedback	Win	True
398.32	2.782	Win2	0.5952000000000001	n/a	Yes	2.782	n/a	n/a	GoodResponse	1	0.0	n/a	4	41	ISIslide	Win	True
401.129	0.25	Control	0.5814	0.0	No	2.921	0.029	n/a	PrematurePress	0	n/a	n/a	4	42	Cue	Neutral	True
401.379	3.85	Control	0.5814	0.0	No	2.921	0.0	n/a	PrematurePress	0	n/a	n/a	4	42	Fixation	Neutral	True
405.241	0.3	Control	0.5814	0.0	No	2.921	0.012	2.0	PrematurePress	0	0.015	404.256	4	42	Target	Neutral	True
405.256	0.3	Control	0.5814	0.0	No	2.921	0.012	2.0	PrematurePress	0	0.015	n/a	4	42	ButtonPress	Neutral	True
405.525	0.4	Control	0.5814	n/a	No	2.921	n/a	n/a	PrematurePress	0	n/a	n/a	4	42	Blank	Neutral	True
405.926	1.45	Control	0.5814	n/a	No	2.921	n/a	5.0	PrematurePress	0	0.049	404.975	4	42	Feedback	Neutral	True
407.381	2.921	Control	0.5814	n/a	No	2.921	n/a	n/a	PrematurePress	0	0.0	n/a	4	42	ISIslide	Neutral	True
410.323	0.25	Win2	0.5909	0.0	Yes	3.177	0.023	n/a	GoodResponse	1	n/a	n/a	5	43	Cue	Win	True
410.574	4.0	Win2	0.5909	0.0	Yes	3.177	0.001	n/a	GoodResponse	1	n/a	n/a	5	43	Fixation	Win	True
414.569	0.31	Win2	0.5909	0.004	Yes	3.177	-0.004	2.0	GoodResponse	1	0.227	413.796	5	43	Target	Win	True
414.796	0.3	Win2	0.5909	0.004	Yes	3.177	-0.004	2.0	GoodResponse	1	0.227	n/a	5	43	ButtonPress	Win	True
414.887	0.39	Win2	0.5909	n/a	Yes	3.177	n/a	n/a	GoodResponse	1	n/a	n/a	5	43	Blank	Win	True
415.271	1.45	Win2	0.5909	n/a	Yes	3.177	n/a	5.0	GoodResponse	1	0.021	414.292	5	43	Feedback	Win	True
416.725	3.177	Win2	0.5909	n/a	Yes	3.177	n/a	n/a	GoodResponse	1	0.0	n/a	5	43	ISIslide	Win	True
419.918	0.25	Win2	0.6	0.0	Yes	2.982	0.018	n/a	GoodResponse	1	n/a	n/a	6	44	Cue	Win	True
420.169	4.0	Win2	0.6	0.0	Yes	2.982	0.001	n/a	GoodResponse	1	n/a	n/a	6	44	Fixation	Win	True
424.164	0.32	Win2	0.6	0.004	Yes	2.982	-0.004	2.0	GoodResponse	1	0.262	423.426	6	44	Target	Win	True
424.426	0.3	Win2	0.6	0.004	Yes	2.982	-0.004	2.0	GoodResponse	1	0.262	n/a	6	44	ButtonPress	Win	True
424.499	0.38	Win2	0.6	n/a	Yes	2.982	n/a	n/a	GoodResponse	1	n/a	n/a	6	44	Blank	Win	True
424.866	1.45	Win2	0.6	n/a	Yes	2.982	n/a	5.0	GoodResponse	1	0.035	423.901	6	44	Feedback	Win	True
426.321	2.982	Win2	0.6	n/a	Yes	2.982	n/a	n/a	GoodResponse	1	0.0	n/a	6	44	ISIslide	Win	True
429.33	0.25	Control	0.6087	0.0	Yes	2.87	0.03	n/a	GoodResponse	0	n/a	n/a	6	45	Cue	Neutral	True
429.581	4.1	Control	0.6087	0.0	Yes	2.87	0.001	n/a	GoodResponse	0	n/a	n/a	6	45	Fixation	Neutral	True
433.676	0.33	Control	0.6087	0.004	Yes	2.87	-0.004	2.0	GoodResponse	0	0.223	432.899	6	45	Target	Neutral	True
433.899	0.3	Control	0.6087	0.004	Yes	2.87	-0.004	2.0	GoodResponse	0	0.223	n/a	6	45	ButtonPress	Neutral	True
434.011	0.37	Control	0.6087	n/a	Yes	2.87	n/a	n/a	GoodResponse	0	n/a	n/a	6	45	Blank	Neutral	True
434.378	1.45	Control	0.6087	n/a	Yes	2.87	n/a	5.0	GoodResponse	0	0.035	433.413	6	45	Feedback	Neutral	True
435.833	2.87	Control	0.6087	n/a	Yes	2.87	n/a	n/a	GoodResponse	0	0.0	n/a	6	45	ISIslide	Neutral	True
438.725	0.25	Lose2	0.617	0.0	Yes	3.375	0.025	n/a	GoodResponse	0	n/a	n/a	6	46	Cue	AvoidedLoss	True
438.975	4.0	Lose2	0.617	0.001	Yes	3.375	0.0	n/a	GoodResponse	0	n/a	n/a	6	46	Fixation	AvoidedLoss	True
442.971	0.34	Lose2	0.617	0.004	Yes	3.375	-0.004	2.0	GoodResponse	0	0.223	442.194	6	46	Target	AvoidedLoss	True
443.194	0.3	Lose2	0.617	0.004	Yes	3.375	-0.004	2.0	GoodResponse	0	0.223	n/a	6	46	ButtonPress	AvoidedLoss	True
443.322	0.36	Lose2	0.617	n/a	Yes	3.375	n/a	n/a	GoodResponse	0	n/a	n/a	6	46	Blank	AvoidedLoss	True
443.673	1.45	Lose2	0.617	n/a	Yes	3.375	n/a	5.0	GoodResponse	0	0.008	442.681	6	46	Feedback	AvoidedLoss	True
445.127	3.375	Lose2	0.617	n/a	Yes	3.375	n/a	n/a	GoodResponse	0	0.0	n/a	6	46	ISIslide	AvoidedLoss	True
448.521	0.25	Lose2	0.625	0.0	Yes	2.679	0.021	n/a	GoodResponse	0	n/a	n/a	6	47	Cue	AvoidedLoss	True
448.772	4.0	Lose2	0.625	0.0	Yes	2.679	0.001	n/a	GoodResponse	0	n/a	n/a	6	47	Fixation	AvoidedLoss	True
452.767	0.35	Lose2	0.625	0.004	Yes	2.679	-0.004	2.0	GoodResponse	0	0.242	452.009	6	47	Target	AvoidedLoss	True
453.009	0.3	Lose2	0.625	0.004	Yes	2.679	-0.004	2.0	GoodResponse	0	0.242	n/a	6	47	ButtonPress	AvoidedLoss	True
453.118	0.35	Lose2	0.625	n/a	Yes	2.679	n/a	n/a	GoodResponse	0	n/a	n/a	6	47	Blank	AvoidedLoss	True
453.469	1.45	Lose2	0.625	n/a	Yes	2.679	n/a	5.0	GoodResponse	0	0.017	452.486	6	47	Feedback	AvoidedLoss	True
454.923	2.679	Lose2	0.625	n/a	Yes	2.679	n/a	n/a	GoodResponse	0	0.0	n/a	6	47	ISIslide	AvoidedLoss	True
457.615	0.25	Lose2	0.6327	0.0	Yes	3.035	0.015	n/a	GoodResponse	0	n/a	n/a	6	48	Cue	AvoidedLoss	True
457.865	3.95	Lose2	0.6327	0.001	Yes	3.035	0.0	n/a	GoodResponse	0	n/a	n/a	6	48	Fixation	AvoidedLoss	True
461.811	0.36	Lose2	0.6327	0.004	Yes	3.035	-0.004	2.0	GoodResponse	0	0.199	461.01	6	48	Target	AvoidedLoss	True
462.01	0.3	Lose2	0.6327	0.004	Yes	3.035	-0.004	2.0	GoodResponse	0	0.199	n/a	6	48	ButtonPress	AvoidedLoss	True
462.178	0.34	Lose2	0.6327	n/a	Yes	3.035	n/a	n/a	GoodResponse	0	n/a	n/a	6	48	Blank	AvoidedLoss	True
462.513	1.45	Lose2	0.6327	n/a	Yes	3.035	n/a	5.0	GoodResponse	0	0.046	461.559	6	48	Feedback	AvoidedLoss	True
463.967	3.035	Lose2	0.6327	n/a	Yes	3.035	n/a	n/a	GoodResponse	0	0.0	n/a	6	48	ISIslide	AvoidedLoss	True
467.026	0.25	Control	0.64	0.0	Yes	2.874	0.026	n/a	GoodResponse	0	n/a	n/a	6	49	Cue	Neutral	True
467.277	4.0	Control	0.64	0.0	Yes	2.874	0.001	n/a	GoodResponse	0	n/a	n/a	6	49	Fixation	Neutral	True
471.272	0.37	Control	0.64	0.004	Yes	2.874	-0.004	2.0	GoodResponse	0	0.24	470.512	6	49	Target	Neutral	True
471.512	0.3	Control	0.64	0.004	Yes	2.874	-0.004	2.0	GoodResponse	0	0.24	n/a	6	49	ButtonPress	Neutral	True
471.657	0.33	Control	0.64	n/a	Yes	2.874	n/a	n/a	GoodResponse	0	n/a	n/a	6	49	Blank	Neutral	True
471.974	1.45	Control	0.64	n/a	Yes	2.874	n/a	5.0	GoodResponse	0	0.049	471.023	6	49	Feedback	Neutral	True
473.429	2.874	Control	0.64	n/a	Yes	2.874	n/a	n/a	GoodResponse	0	0.0	n/a	6	49	ISIslide	Neutral	True
476.321	0.25	Control	0.6470999999999999	0.0	Yes	2.779	0.021	n/a	GoodResponse	0	n/a	n/a	6	50	Cue	Neutral	True
476.572	4.0	Control	0.6470999999999999	0.0	Yes	2.779	0.001	n/a	GoodResponse	0	n/a	n/a	6	50	Fixation	Neutral	True
480.567	0.38	Control	0.6470999999999999	0.004	Yes	2.779	-0.004	2.0	GoodResponse	0	0.231	479.798	6	50	Target	Neutral	True
480.798	0.3	Control	0.6470999999999999	0.004	Yes	2.779	-0.004	2.0	GoodResponse	0	0.231	n/a	6	50	ButtonPress	Neutral	True
480.951	0.32	Control	0.6470999999999999	n/a	Yes	2.779	n/a	n/a	GoodResponse	0	n/a	n/a	6	50	Blank	Neutral	True
481.269	1.45	Control	0.6470999999999999	n/a	Yes	2.779	n/a	5.0	GoodResponse	0	0.022	480.291	6	50	Feedback	Neutral	True
482.723	2.779	Control	0.6470999999999999	n/a	Yes	2.779	n/a	n/a	GoodResponse	0	0.0	n/a	6	50	ISIslide	Neutral	True
485.515	0.25	Control	0.6537999999999999	0.0	Yes	2.735	0.015	n/a	GoodResponse	0	n/a	n/a	6	51	Cue	Neutral	True
485.766	3.95	Control	0.6537999999999999	0.0	Yes	2.735	0.001	n/a	GoodResponse	0	n/a	n/a	6	51	Fixation	Neutral	True
489.711	0.39	Control	0.6537999999999999	0.004	Yes	2.735	-0.004	2.0	GoodResponse	0	0.242	488.953	6	51	Target	Neutral	True
489.953	0.3	Control	0.6537999999999999	0.004	Yes	2.735	-0.004	2.0	GoodResponse	0	0.242	n/a	6	51	ButtonPress	Neutral	True
490.112	0.31	Control	0.6537999999999999	n/a	Yes	2.735	n/a	n/a	GoodResponse	0	n/a	n/a	6	51	Blank	Neutral	True
490.413	1.45	Control	0.6537999999999999	n/a	Yes	2.735	n/a	5.0	GoodResponse	0	0.049	489.462	6	51	Feedback	Neutral	True
491.867	2.735	Control	0.6537999999999999	n/a	Yes	2.735	n/a	n/a	GoodResponse	0	0.0	n/a	6	51	ISIslide	Neutral	True
494.626	0.25	Control	0.6604000000000001	0.0	Yes	2.624	0.026	n/a	GoodResponse	0	n/a	n/a	6	52	Cue	Neutral	True
494.876	4.05	Control	0.6604000000000001	0.001	Yes	2.624	0.0	n/a	GoodResponse	0	n/a	n/a	6	52	Fixation	Neutral	True
498.922	0.4	Control	0.6604000000000001	0.004	Yes	2.624	-0.004	2.0	GoodResponse	0	0.187	498.109	6	52	Target	Neutral	True
499.109	0.3	Control	0.6604000000000001	0.004	Yes	2.624	-0.004	2.0	GoodResponse	0	0.187	n/a	6	52	ButtonPress	Neutral	True
499.323	0.3	Control	0.6604000000000001	n/a	Yes	2.624	n/a	n/a	GoodResponse	0	n/a	n/a	6	52	Blank	Neutral	True
499.624	1.45	Control	0.6604000000000001	n/a	Yes	2.624	n/a	5.0	GoodResponse	0	0.008	498.632	6	52	Feedback	Neutral	True
501.078	2.624	Control	0.6604000000000001	n/a	Yes	2.624	n/a	n/a	GoodResponse	0	0.0	n/a	6	52	ISIslide	Neutral	True
503.72	0.25	Win2	0.6667000000000001	0.0	Yes	2.93	0.02	n/a	GoodResponse	1	n/a	n/a	7	53	Cue	Win	True
503.97	4.05	Win2	0.6667000000000001	0.001	Yes	2.93	0.0	n/a	GoodResponse	1	n/a	n/a	7	53	Fixation	Win	True
508.016	0.4	Win2	0.6667000000000001	0.004	Yes	2.93	-0.004	2.0	GoodResponse	1	0.226	507.242	7	53	Target	Win	True
508.242	0.3	Win2	0.6667000000000001	0.004	Yes	2.93	-0.004	2.0	GoodResponse	1	0.226	n/a	7	53	ButtonPress	Win	True
508.417	0.3	Win2	0.6667000000000001	n/a	Yes	2.93	n/a	n/a	GoodResponse	1	n/a	n/a	7	53	Blank	Win	True
508.718	1.45	Win2	0.6667000000000001	n/a	Yes	2.93	n/a	5.0	GoodResponse	1	0.036	507.754	7	53	Feedback	Win	True
510.172	2.93	Win2	0.6667000000000001	n/a	Yes	2.93	n/a	n/a	GoodResponse	1	0.0	n/a	7	53	ISIslide	Win	True
513.115	0.25	Win2	0.6727	0.0	Yes	2.735	0.015	n/a	GoodResponse	1	n/a	n/a	8	54	Cue	Win	True
513.365	3.95	Win2	0.6727	0.0	Yes	2.735	0.0	n/a	GoodResponse	1	n/a	n/a	8	54	Fixation	Win	True
517.327	0.39	Win2	0.6727	0.0	Yes	2.735	0.012	2.0	GoodResponse	1	0.221	516.548	8	54	Target	Win	True
517.548	0.3	Win2	0.6727	0.0	Yes	2.735	0.012	2.0	GoodResponse	1	0.221	n/a	8	54	ButtonPress	Win	True
517.712	0.31	Win2	0.6727	n/a	Yes	2.735	n/a	n/a	GoodResponse	1	n/a	n/a	8	54	Blank	Win	True
518.013	1.45	Win2	0.6727	n/a	Yes	2.735	n/a	5.0	GoodResponse	1	0.01	517.023	8	54	Feedback	Win	True
519.467	2.735	Win2	0.6727	n/a	Yes	2.735	n/a	n/a	GoodResponse	1	0.0	n/a	8	54	ISIslide	Win	True
522.225	0.25	Control	0.6786	0.0	Yes	3.025	0.025	n/a	GoodResponse	0	n/a	n/a	8	55	Cue	Neutral	True
522.476	3.95	Control	0.6786	0.0	Yes	3.025	0.001	n/a	GoodResponse	0	n/a	n/a	8	55	Fixation	Neutral	True
526.421	0.38	Control	0.6786	0.004	Yes	3.025	-0.004	2.0	GoodResponse	0	0.201	525.622	8	55	Target	Neutral	True
526.622	0.3	Control	0.6786	0.004	Yes	3.025	-0.004	2.0	GoodResponse	0	0.201	n/a	8	55	ButtonPress	Neutral	True
526.806	0.32	Control	0.6786	n/a	Yes	3.025	n/a	n/a	GoodResponse	0	n/a	n/a	8	55	Blank	Neutral	True
527.123	1.45	Control	0.6786	n/a	Yes	3.025	n/a	5.0	GoodResponse	0	0.022	526.145	8	55	Feedback	Neutral	True
528.578	3.025	Control	0.6786	n/a	Yes	3.025	n/a	n/a	GoodResponse	0	0.0	n/a	8	55	ISIslide	Neutral	True
531.62	0.25	Control	0.6842	0.0	Yes	2.83	0.02	n/a	GoodResponse	0	n/a	n/a	8	56	Cue	Neutral	True
531.871	3.95	Control	0.6842	0.0	Yes	2.83	0.001	n/a	GoodResponse	0	n/a	n/a	8	56	Fixation	Neutral	True
535.816	0.37	Control	0.6842	0.004	Yes	2.83	-0.004	2.0	GoodResponse	0	0.228	535.044	8	56	Target	Neutral	True
536.044	0.3	Control	0.6842	0.004	Yes	2.83	-0.004	2.0	GoodResponse	0	0.228	n/a	8	56	ButtonPress	Neutral	True
536.2	0.33	Control	0.6842	n/a	Yes	2.83	n/a	n/a	GoodResponse	0	n/a	n/a	8	56	Blank	Neutral	True
536.518	1.45	Control	0.6842	n/a	Yes	2.83	n/a	5.0	GoodResponse	0	0.041	535.559	8	56	Feedback	Neutral	True
537.972	2.83	Control	0.6842	n/a	Yes	2.83	n/a	n/a	GoodResponse	0	0.0	n/a	8	56	ISIslide	Neutral	True
540.814	0.25	Control	0.6724	0.0	No	3.486	0.014	n/a	NoResponse	0	n/a	n/a	8	57	Cue	Neutral	True
541.065	4.0	Control	0.6724	0.0	No	3.486	0.001	n/a	NoResponse	0	n/a	n/a	8	57	Fixation	Neutral	True
545.06	0.36	Control	0.6724	0.004	No	3.486	-0.004	2.0	NoResponse	0	0.476	544.536	8	57	Target	Neutral	True
545.428	0.34	Control	0.6724	n/a	No	3.486	n/a	n/a	NoResponse	0	n/a	n/a	8	57	Blank	Neutral	True
545.536	0.3	Control	0.6724	0.004	No	3.486	-0.004	2.0	NoResponse	0	0.476	n/a	8	57	ButtonPress	Neutral	True
545.762	1.45	Control	0.6724	n/a	No	3.486	n/a	5.0	NoResponse	0	0.017	544.779	8	57	Feedback	Neutral	True
547.217	3.486	Control	0.6724	n/a	No	3.486	n/a	n/a	NoResponse	0	0.0	n/a	8	57	ISIslide	Neutral	True
550.727	0.25	Win2	0.6779999999999999	0.0	Yes	2.723	0.027	n/a	GoodResponse	1	n/a	n/a	9	58	Cue	Win	True
550.978	4.05	Win2	0.6779999999999999	0.0	Yes	2.723	0.001	n/a	GoodResponse	1	n/a	n/a	9	58	Fixation	Win	True
555.024	0.35	Win2	0.6779999999999999	0.003	Yes	2.723	-0.003	2.0	GoodResponse	1	0.201	554.225	9	58	Target	Win	True
555.225	0.3	Win2	0.6779999999999999	0.003	Yes	2.723	-0.003	2.0	GoodResponse	1	0.201	n/a	9	58	ButtonPress	Win	True
555.375	0.35	Win2	0.6779999999999999	n/a	Yes	2.723	n/a	n/a	GoodResponse	1	n/a	n/a	9	58	Blank	Win	True
555.726	1.45	Win2	0.6779999999999999	n/a	Yes	2.723	n/a	5.0	GoodResponse	1	0.004	554.73	9	58	Feedback	Win	True
557.18	2.723	Win2	0.6779999999999999	n/a	Yes	2.723	n/a	n/a	GoodResponse	1	0.0	n/a	9	58	ISIslide	Win	True
559.922	0.25	Lose2	0.6833	0.0	Yes	2.678	0.022	n/a	GoodResponse	0	n/a	n/a	9	59	Cue	AvoidedLoss	True
560.172	4.0	Lose2	0.6833	0.0	Yes	2.678	0.0	n/a	GoodResponse	0	n/a	n/a	9	59	Fixation	AvoidedLoss	True
564.168	0.34	Lose2	0.6833	0.004	Yes	2.678	-0.004	2.0	GoodResponse	0	0.209	563.377	9	59	Target	AvoidedLoss	True
564.377	0.3	Lose2	0.6833	0.004	Yes	2.678	-0.004	2.0	GoodResponse	0	0.209	n/a	9	59	ButtonPress	AvoidedLoss	True
564.519	0.36	Lose2	0.6833	n/a	Yes	2.678	n/a	n/a	GoodResponse	0	n/a	n/a	9	59	Blank	AvoidedLoss	True
564.87	1.45	Lose2	0.6833	n/a	Yes	2.678	n/a	5.0	GoodResponse	0	0.031	563.901	9	59	Feedback	AvoidedLoss	True
566.324	2.678	Lose2	0.6833	n/a	Yes	2.678	n/a	n/a	GoodResponse	0	0.0	n/a	9	59	ISIslide	AvoidedLoss	True
569.016	0.25	Control	0.6884999999999999	0.0	Yes	2.684	0.016	n/a	GoodResponse	0	n/a	n/a	9	60	Cue	Neutral	True
569.266	4.0	Control	0.6884999999999999	0.0	Yes	2.684	0.0	n/a	GoodResponse	0	n/a	n/a	9	60	Fixation	Neutral	True
573.262	0.33	Control	0.6884999999999999	0.004	Yes	2.684	-0.004	2.0	GoodResponse	0	0.245	572.507	9	60	Target	Neutral	True
573.507	0.3	Control	0.6884999999999999	0.004	Yes	2.684	-0.004	2.0	GoodResponse	0	0.245	n/a	9	60	ButtonPress	Neutral	True
573.596	0.37	Control	0.6884999999999999	n/a	Yes	2.684	n/a	n/a	GoodResponse	0	n/a	n/a	9	60	Blank	Neutral	True
573.964	1.45	Control	0.6884999999999999	n/a	Yes	2.684	n/a	5.0	GoodResponse	0	0.009	572.973	9	60	Feedback	Neutral	True
575.418	2.684	Control	0.6884999999999999	n/a	Yes	2.684	n/a	n/a	GoodResponse	0	0.0	n/a	9	60	ISIslide	Neutral	True
578.126	0.25	Lose2	0.6934999999999999	0.0	Yes	2.974	0.026	n/a	GoodResponse	0	n/a	n/a	9	61	Cue	AvoidedLoss	True
578.377	4.0	Lose2	0.6934999999999999	0.0	Yes	2.974	0.001	n/a	GoodResponse	0	n/a	n/a	9	61	Fixation	AvoidedLoss	True
582.372	0.32	Lose2	0.6934999999999999	0.004	Yes	2.974	-0.004	2.0	GoodResponse	0	0.213	581.585	9	61	Target	AvoidedLoss	True
582.585	0.3	Lose2	0.6934999999999999	0.004	Yes	2.974	-0.004	2.0	GoodResponse	0	0.213	n/a	9	61	ButtonPress	AvoidedLoss	True
582.707	0.38	Lose2	0.6934999999999999	n/a	Yes	2.974	n/a	n/a	GoodResponse	0	n/a	n/a	9	61	Blank	AvoidedLoss	True
583.074	1.45	Lose2	0.6934999999999999	n/a	Yes	2.974	n/a	5.0	GoodResponse	0	0.021	582.095	9	61	Feedback	AvoidedLoss	True
584.529	2.974	Lose2	0.6934999999999999	n/a	Yes	2.974	n/a	n/a	GoodResponse	0	0.0	n/a	9	61	ISIslide	AvoidedLoss	True
587.521	0.25	Lose2	0.6984	0.0	Yes	2.879	0.021	n/a	GoodResponse	0	n/a	n/a	9	62	Cue	AvoidedLoss	True
587.772	3.9	Lose2	0.6984	0.0	Yes	2.879	0.001	n/a	GoodResponse	0	n/a	n/a	9	62	Fixation	AvoidedLoss	True
591.667	0.31	Lose2	0.6984	0.004	Yes	2.879	-0.004	2.0	GoodResponse	0	0.217	590.884	9	62	Target	AvoidedLoss	True
591.884	0.3	Lose2	0.6984	0.004	Yes	2.879	-0.004	2.0	GoodResponse	0	0.217	n/a	9	62	ButtonPress	AvoidedLoss	True
591.984	0.39	Lose2	0.6984	n/a	Yes	2.879	n/a	n/a	GoodResponse	0	n/a	n/a	9	62	Blank	AvoidedLoss	True
592.369	1.45	Lose2	0.6984	n/a	Yes	2.879	n/a	5.0	GoodResponse	0	0.044	591.413	9	62	Feedback	AvoidedLoss	True
593.823	2.879	Lose2	0.6984	n/a	Yes	2.879	n/a	n/a	GoodResponse	0	0.0	n/a	9	62	ISIslide	AvoidedLoss	True
596.715	0.25	Lose2	0.7031000000000001	0.0	Yes	2.635	0.015	n/a	GoodResponse	0	n/a	n/a	9	63	Cue	AvoidedLoss	True
596.966	4.05	Lose2	0.7031000000000001	0.0	Yes	2.635	0.001	n/a	GoodResponse	0	n/a	n/a	9	63	Fixation	AvoidedLoss	True
601.012	0.3	Lose2	0.7031000000000001	0.003	Yes	2.635	-0.003	2.0	GoodResponse	0	0.208	600.22	9	63	Target	AvoidedLoss	True
601.22	0.3	Lose2	0.7031000000000001	0.003	Yes	2.635	-0.003	2.0	GoodResponse	0	0.208	n/a	9	63	ButtonPress	AvoidedLoss	True
601.312	0.4	Lose2	0.7031000000000001	n/a	Yes	2.635	n/a	n/a	GoodResponse	0	n/a	n/a	9	63	Blank	AvoidedLoss	True
601.714	1.45	Lose2	0.7031000000000001	n/a	Yes	2.635	n/a	5.0	GoodResponse	0	0.016	600.73	9	63	Feedback	AvoidedLoss	True
603.168	2.635	Lose2	0.7031000000000001	n/a	Yes	2.635	n/a	n/a	GoodResponse	0	0.0	n/a	9	63	ISIslide	AvoidedLoss	True
605.826	0.25	Win2	0.7077	0.0	Yes	3.124	0.026	n/a	GoodResponse	1	n/a	n/a	10	64	Cue	Win	True
606.077	4.15	Win2	0.7077	0.0	Yes	3.124	0.001	n/a	GoodResponse	1	n/a	n/a	10	64	Fixation	Win	True
610.223	0.29	Win2	0.7077	0.003	Yes	3.124	-0.003	2.0	GoodResponse	1	0.204	609.427	10	64	Target	Win	True
610.427	0.3	Win2	0.7077	0.003	Yes	3.124	-0.003	2.0	GoodResponse	1	0.204	n/a	10	64	ButtonPress	Win	True
610.523	0.41	Win2	0.7077	n/a	Yes	3.124	n/a	n/a	GoodResponse	1	n/a	n/a	10	64	Blank	Win	True
610.925	1.45	Win2	0.7077	n/a	Yes	3.124	n/a	5.0	GoodResponse	1	0.024	609.949	10	64	Feedback	Win	True
612.379	3.124	Win2	0.7077	n/a	Yes	3.124	n/a	n/a	GoodResponse	1	0.0	n/a	10	64	ISIslide	Win	True
615.522	0.25	Control	0.7121	0.0	Yes	2.778	0.022	n/a	GoodResponse	0	n/a	n/a	10	65	Cue	Neutral	True
615.772	4.0	Control	0.7121	0.001	Yes	2.778	0.0	n/a	GoodResponse	0	n/a	n/a	10	65	Fixation	Neutral	True
619.768	0.28	Control	0.7121	0.004	Yes	2.778	-0.004	2.0	GoodResponse	0	0.206	618.974	10	65	Target	Neutral	True
619.974	0.3	Control	0.7121	0.004	Yes	2.778	-0.004	2.0	GoodResponse	0	0.206	n/a	10	65	ButtonPress	Neutral	True
620.052	0.42	Control	0.7121	n/a	Yes	2.778	n/a	n/a	GoodResponse	0	n/a	n/a	10	65	Blank	Neutral	True
620.47	1.45	Control	0.7121	n/a	Yes	2.778	n/a	5.0	GoodResponse	0	0.04	619.51	10	65	Feedback	Neutral	True
621.924	2.778	Control	0.7121	n/a	Yes	2.778	n/a	n/a	GoodResponse	0	0.0	n/a	10	65	ISIslide	Neutral	True
624.716	0.25	Win2	0.7164	0.0	Yes	2.784	0.016	n/a	GoodResponse	1	n/a	n/a	11	66	Cue	Win	True
624.967	3.9	Win2	0.7164	0.0	Yes	2.784	0.001	n/a	GoodResponse	1	n/a	n/a	11	66	Fixation	Win	True
628.862	0.27	Win2	0.7164	0.004	Yes	2.784	-0.004	2.0	GoodResponse	1	0.215	628.077	11	66	Target	Win	True
629.077	0.3	Win2	0.7164	0.004	Yes	2.784	-0.004	2.0	GoodResponse	1	0.215	n/a	11	66	ButtonPress	Win	True
629.146	0.43	Win2	0.7164	n/a	Yes	2.784	n/a	n/a	GoodResponse	1	n/a	n/a	11	66	Blank	Win	True
629.564	1.45	Win2	0.7164	n/a	Yes	2.784	n/a	5.0	GoodResponse	1	0.02	628.584	11	66	Feedback	Win	True
631.018	2.784	Win2	0.7164	n/a	Yes	2.784	n/a	n/a	GoodResponse	1	0.0	n/a	11	66	ISIslide	Win	True
633.827	0.25	Control	0.7206	0.0	Yes	2.723	0.027	n/a	GoodResponse	0	n/a	n/a	11	67	Cue	Neutral	True
634.077	3.95	Control	0.7206	0.0	Yes	2.723	0.0	n/a	GoodResponse	0	n/a	n/a	11	67	Fixation	Neutral	True
638.023	0.26	Control	0.7206	0.004	Yes	2.723	-0.004	2.0	GoodResponse	0	0.239	637.262	11	67	Target	Neutral	True
638.262	0.3	Control	0.7206	0.004	Yes	2.723	-0.004	2.0	GoodResponse	0	0.239	n/a	11	67	ButtonPress	Neutral	True
638.29	0.44	Control	0.7206	n/a	Yes	2.723	n/a	n/a	GoodResponse	0	n/a	n/a	11	67	Blank	Neutral	True
638.725	1.45	Control	0.7206	n/a	Yes	2.723	n/a	5.0	GoodResponse	0	0.03	637.755	11	67	Feedback	Neutral	True
640.179	2.723	Control	0.7206	n/a	Yes	2.723	n/a	n/a	GoodResponse	0	0.0	n/a	11	67	ISIslide	Neutral	True
642.921	0.25	Win2	0.7245999999999999	0.0	Yes	3.079	0.021	n/a	GoodResponse	1	n/a	n/a	12	68	Cue	Win	True
643.171	4.0	Win2	0.7245999999999999	0.0	Yes	3.079	0.0	n/a	GoodResponse	1	n/a	n/a	12	68	Fixation	Win	True
647.167	0.25	Win2	0.7245999999999999	0.004	Yes	3.079	-0.004	2.0	GoodResponse	1	0.198	646.365	12	68	Target	Win	True
647.365	0.3	Win2	0.7245999999999999	0.004	Yes	3.079	-0.004	2.0	GoodResponse	1	0.198	n/a	12	68	ButtonPress	Win	True
647.417	0.45	Win2	0.7245999999999999	n/a	Yes	3.079	n/a	n/a	GoodResponse	1	n/a	n/a	12	68	Blank	Win	True
647.869	1.45	Win2	0.7245999999999999	n/a	Yes	3.079	n/a	5.0	GoodResponse	1	0.007	646.876	12	68	Feedback	Win	True
649.323	3.079	Win2	0.7245999999999999	n/a	Yes	3.079	n/a	n/a	GoodResponse	1	0.0	n/a	12	68	ISIslide	Win	True
652.416	0.25	Win2	0.7286	0.0	Yes	3.234	0.016	n/a	GoodResponse	1	n/a	n/a	13	69	Cue	Win	True
652.666	3.95	Win2	0.7286	0.001	Yes	3.234	0.0	n/a	GoodResponse	1	n/a	n/a	13	69	Fixation	Win	True
656.612	0.24	Win2	0.7286	0.004	Yes	3.234	-0.004	2.0	GoodResponse	1	0.213	655.825	13	69	Target	Win	True
656.825	0.3	Win2	0.7286	0.004	Yes	3.234	-0.004	2.0	GoodResponse	1	0.213	n/a	13	69	ButtonPress	Win	True
656.862	0.46	Win2	0.7286	n/a	Yes	3.234	n/a	n/a	GoodResponse	1	n/a	n/a	13	69	Blank	Win	True
657.314	1.45	Win2	0.7286	n/a	Yes	3.234	n/a	5.0	GoodResponse	1	0.025	656.339	13	69	Feedback	Win	True
658.768	3.234	Win2	0.7286	n/a	Yes	3.234	n/a	n/a	GoodResponse	1	0.0	n/a	13	69	ISIslide	Win	True
662.028	0.25	Lose2	0.7323999999999999	0.0	Yes	3.022	0.028	n/a	GoodResponse	0	n/a	n/a	13	70	Cue	AvoidedLoss	True
662.279	4.05	Lose2	0.7323999999999999	0.0	Yes	3.022	0.001	n/a	GoodResponse	0	n/a	n/a	13	70	Fixation	AvoidedLoss	True
666.324	0.23	Lose2	0.7323999999999999	0.004	Yes	3.022	-0.004	2.0	GoodResponse	0	0.214	665.538	13	70	Target	AvoidedLoss	True
666.538	0.3	Lose2	0.7323999999999999	0.004	Yes	3.022	-0.004	2.0	GoodResponse	0	0.214	n/a	13	70	ButtonPress	AvoidedLoss	True
666.558	0.47	Lose2	0.7323999999999999	n/a	Yes	3.022	n/a	n/a	GoodResponse	0	n/a	n/a	13	70	Blank	AvoidedLoss	True
667.026	1.45	Lose2	0.7323999999999999	n/a	Yes	3.022	n/a	5.0	GoodResponse	0	0.021	666.047	13	70	Feedback	AvoidedLoss	True
668.481	3.022	Lose2	0.7323999999999999	n/a	Yes	3.022	n/a	n/a	GoodResponse	0	0.0	n/a	13	70	ISIslide	AvoidedLoss	True
671.523	0.25	Win2	0.7361	0.0	Yes	2.727	0.023	n/a	GoodResponse	1	n/a	n/a	14	71	Cue	Win	True
671.774	4.05	Win2	0.7361	0.0	Yes	2.727	0.001	n/a	GoodResponse	1	n/a	n/a	14	71	Fixation	Win	True
675.819	0.22	Win2	0.7361	0.004	Yes	2.727	-0.004	2.0	GoodResponse	1	0.19	675.009	14	71	Target	Win	True
676.009	0.3	Win2	0.7361	0.004	Yes	2.727	-0.004	2.0	GoodResponse	1	0.19	n/a	14	71	ButtonPress	Win	True
676.053	0.48	Win2	0.7361	n/a	Yes	2.727	n/a	n/a	GoodResponse	1	n/a	n/a	14	71	Blank	Win	True
676.521	1.45	Win2	0.7361	n/a	Yes	2.727	n/a	5.0	GoodResponse	1	0.038	675.559	14	71	Feedback	Win	True
677.976	2.727	Win2	0.7361	n/a	Yes	2.727	n/a	n/a	GoodResponse	1	0.0	n/a	14	71	ISIslide	Win	True
680.717	0.25	Win2	0.7397	0.0	Yes	2.783	0.017	n/a	GoodResponse	1	n/a	n/a	15	72	Cue	Win	True
680.968	4.1	Win2	0.7397	0.0	Yes	2.783	0.001	n/a	GoodResponse	1	n/a	n/a	15	72	Fixation	Win	True
685.064	0.21	Win2	0.7397	0.003	Yes	2.783	-0.003	2.0	GoodResponse	1	0.2	684.264	15	72	Target	Win	True
685.264	0.3	Win2	0.7397	0.003	Yes	2.783	-0.003	2.0	GoodResponse	1	0.2	n/a	15	72	ButtonPress	Win	True
685.281	0.49	Win2	0.7397	n/a	Yes	2.783	n/a	n/a	GoodResponse	1	n/a	n/a	15	72	Blank	Win	True
685.766	1.45	Win2	0.7397	n/a	Yes	2.783	n/a	5.0	GoodResponse	1	0.012	684.778	15	72	Feedback	Win	True
687.22	2.783	Win2	0.7397	n/a	Yes	2.783	n/a	n/a	GoodResponse	1	0.0	n/a	15	72	ISIslide	Win	True
690.029	0.25	Win2	0.7432	0.0	Yes	2.671	0.029	n/a	GoodResponse	1	n/a	n/a	16	73	Cue	Win	True
690.279	4.0	Win2	0.7432	0.0	Yes	2.671	0.0	n/a	GoodResponse	1	n/a	n/a	16	73	Fixation	Win	True
694.275	0.2	Win2	0.7432	0.004	Yes	2.671	-0.004	2.0	GoodResponse	1	0.198	693.473	16	73	Target	Win	True
694.473	0.3	Win2	0.7432	0.004	Yes	2.671	-0.004	2.0	GoodResponse	1	0.198	n/a	16	73	ButtonPress	Win	True
694.475	0.5	Win2	0.7432	n/a	Yes	2.671	n/a	n/a	GoodResponse	1	n/a	n/a	16	73	Blank	Win	True
694.977	1.45	Win2	0.7432	n/a	Yes	2.671	n/a	5.0	GoodResponse	1	0.021	693.998	16	73	Feedback	Win	True
696.431	2.671	Win2	0.7432	n/a	Yes	2.671	n/a	n/a	GoodResponse	1	0.0	n/a	16	73	ISIslide	Win	True
699.123	0.25	Lose2	0.7333	0.0	No	2.627	0.023	n/a	NoResponse	-1	n/a	n/a	15	74	Cue	Loss	True
699.373	4.05	Lose2	0.7333	0.0	No	2.627	0.0	n/a	NoResponse	-1	n/a	n/a	15	74	Fixation	Loss	True
703.419	0.19	Lose2	0.7333	0.004	No	2.627	-0.004	2.0	NoResponse	-1	0.228	702.647	15	74	Target	Loss	True
703.619	0.51	Lose2	0.7333	n/a	No	2.627	n/a	n/a	NoResponse	-1	n/a	n/a	15	74	Blank	Loss	True
703.647	0.3	Lose2	0.7333	0.004	No	2.627	-0.004	2.0	NoResponse	-1	0.228	n/a	15	74	ButtonPress	Loss	True
704.121	1.45	Lose2	0.7333	n/a	No	2.627	n/a	5.0	NoResponse	-1	0.048	703.169	15	74	Feedback	Loss	True
705.575	2.627	Lose2	0.7333	n/a	No	2.627	n/a	n/a	NoResponse	-1	0.0	n/a	15	74	ISIslide	Loss	True
708.216	0.25	Lose2	0.7237	0.001	No	2.934	0.016	n/a	NoResponse	-1	n/a	n/a	14	75	Cue	Loss	True
708.467	3.95	Lose2	0.7237	0.0	No	2.934	0.001	n/a	NoResponse	-1	n/a	n/a	14	75	Fixation	Loss	True
712.412	0.18	Lose2	0.7237	0.004	No	2.934	-0.004	2.0	NoResponse	-1	0.213	711.625	14	75	Target	Loss	True
712.596	0.52	Lose2	0.7237	n/a	No	2.934	n/a	n/a	NoResponse	-1	n/a	n/a	14	75	Blank	Loss	True
712.625	0.3	Lose2	0.7237	0.004	No	2.934	-0.004	2.0	NoResponse	-1	0.213	n/a	14	75	ButtonPress	Loss	True
713.114	1.45	Lose2	0.7237	n/a	No	2.934	n/a	5.0	NoResponse	-1	0.031	712.145	14	75	Feedback	Loss	True
714.569	2.934	Lose2	0.7237	n/a	No	2.934	n/a	n/a	NoResponse	-1	0.0	n/a	14	75	ISIslide	Loss	True
717.528	0.25	Control	0.7273000000000001	0.0	Yes	3.222	0.028	n/a	GoodResponse	0	n/a	n/a	14	76	Cue	Neutral	False
717.779	4.05	Control	0.7273000000000001	0.0	Yes	3.222	0.001	2.0	GoodResponse	0	3.599	720.378	14	76	Fixation	Neutral	False
721.378	0.3	Control	0.7273000000000001	0.0	Yes	3.222	0.001	2.0	GoodResponse	0	3.599	n/a	14	76	ButtonPress	Neutral	False
721.824	0.17	Control	0.7273000000000001	0.004	Yes	3.222	-0.004	2.0	GoodResponse	0	0.132	720.956	14	76	Target	Neutral	False
721.956	0.3	Control	0.7273000000000001	0.004	Yes	3.222	-0.004	2.0	GoodResponse	0	0.132	n/a	14	76	ButtonPress	Neutral	False
722.008	0.53	Control	0.7273000000000001	n/a	Yes	3.222	n/a	n/a	GoodResponse	0	n/a	n/a	14	76	Blank	Neutral	False
722.526	1.45	Control	0.7273000000000001	n/a	Yes	3.222	n/a	5.0	GoodResponse	0	0.032	721.558	14	76	Feedback	Neutral	False
723.98	3.222	Control	0.7273000000000001	n/a	Yes	3.222	n/a	n/a	GoodResponse	0	0.0	n/a	14	76	ISIslide	Neutral	False
727.223	0.25	Lose2	0.7179000000000001	0.001	No	2.577	0.023	n/a	NoResponse	-1	n/a	n/a	13	77	Cue	Loss	True
727.474	3.95	Lose2	0.7179000000000001	0.0	No	2.577	0.001	n/a	NoResponse	-1	n/a	n/a	13	77	Fixation	Loss	True
731.419	0.16	Lose2	0.7179000000000001	0.004	No	2.577	-0.004	2.0	NoResponse	-1	0.189	730.608	13	77	Target	Loss	True
731.587	0.54	Lose2	0.7179000000000001	n/a	No	2.577	n/a	n/a	NoResponse	-1	n/a	n/a	13	77	Blank	Loss	True
731.608	0.3	Lose2	0.7179000000000001	0.004	No	2.577	-0.004	2.0	NoResponse	-1	0.189	n/a	13	77	ButtonPress	Loss	True
732.122	1.45	Lose2	0.7179000000000001	n/a	No	2.577	n/a	5.0	NoResponse	-1	0.046	731.168	13	77	Feedback	Loss	True
733.576	2.577	Lose2	0.7179000000000001	n/a	No	2.577	n/a	n/a	NoResponse	-1	0.0	n/a	13	77	ISIslide	Loss	True
