onset	duration	cue_type	current_mean_accuracy	duration_error	is_hit	isi_adjusted	onset_delay	response	response_type	reward	rt	rt_time	total_reward	trial_number	trial_phase	trial_type	one_press
11.11	0.25	Control	1.0	0.0	Yes	2.94	0.01	n/a	GoodResponse	0	n/a	n/a	0	0	Cue	Neutral	True
11.361	3.85	Control	1.0	0.0	Yes	2.94	0.001	n/a	GoodResponse	0	n/a	n/a	0	0	Fixation	Neutral	True
15.206	0.4	Control	1.0	0.004	Yes	2.94	-0.004	4.0	GoodResponse	0	0.213	14.419	0	0	Target	Neutral	True
15.419	0.3	Control	1.0	0.004	Yes	2.94	-0.004	4.0	GoodResponse	0	0.213	n/a	0	0	ButtonPress	Neutral	True
15.607	0.3	Control	1.0	n/a	Yes	2.94	n/a	n/a	GoodResponse	0	n/a	n/a	0	0	Blank	Neutral	True
15.908	1.45	Control	1.0	n/a	Yes	2.94	n/a	5.0	GoodResponse	0	0.019	14.927	0	0	Feedback	Neutral	True
17.362	2.94	Control	1.0	n/a	Yes	2.94	n/a	n/a	GoodResponse	0	0.0	n/a	0	0	ISIslide	Neutral	True
20.321	0.25	Lose2	1.0	0.0	Yes	2.779	0.021	n/a	GoodResponse	0	n/a	n/a	0	1	Cue	AvoidedLoss	True
20.572	4.0	Lose2	1.0	0.0	Yes	2.779	0.001	n/a	GoodResponse	0	n/a	n/a	0	1	Fixation	AvoidedLoss	True
24.567	0.39	Lose2	1.0	0.004	Yes	2.779	-0.004	4.0	GoodResponse	0	0.194	23.761	0	1	Target	AvoidedLoss	True
24.761	0.3	Lose2	1.0	0.004	Yes	2.779	-0.004	4.0	GoodResponse	0	0.194	n/a	0	1	ButtonPress	AvoidedLoss	True
24.968	0.31	Lose2	1.0	n/a	Yes	2.779	n/a	n/a	GoodResponse	0	n/a	n/a	0	1	Blank	AvoidedLoss	True
25.269	1.45	Lose2	1.0	n/a	Yes	2.779	n/a	5.0	GoodResponse	0	0.024	24.293	0	1	Feedback	AvoidedLoss	True
26.723	2.779	Lose2	1.0	n/a	Yes	2.779	n/a	n/a	GoodResponse	0	0.0	n/a	0	1	ISIslide	AvoidedLoss	True
29.515	0.25	Control	1.0	0.0	Yes	2.585	0.015	n/a	GoodResponse	0	n/a	n/a	0	2	Cue	Neutral	True
29.766	4.1	Control	1.0	0.0	Yes	2.585	0.001	n/a	GoodResponse	0	n/a	n/a	0	2	Fixation	Neutral	True
33.861	0.38	Control	1.0	0.004	Yes	2.585	-0.004	4.0	GoodResponse	0	0.213	33.074	0	2	Target	Neutral	True
34.074	0.3	Control	1.0	0.004	Yes	2.585	-0.004	4.0	GoodResponse	0	0.213	n/a	0	2	ButtonPress	Neutral	True
34.246	0.32	Control	1.0	n/a	Yes	2.585	n/a	n/a	GoodResponse	0	n/a	n/a	0	2	Blank	Neutral	True
34.564	1.45	Control	1.0	n/a	Yes	2.585	n/a	5.0	GoodResponse	0	0.046	33.61	0	2	Feedback	Neutral	True
36.018	2.585	Control	1.0	n/a	Yes	2.585	n/a	n/a	GoodResponse	0	0.0	n/a	0	2	ISIslide	Neutral	True
38.626	0.25	Win2	1.0	0.0	Yes	2.824	0.026	n/a	GoodResponse	1	n/a	n/a	1	3	Cue	Win	True
38.877	3.95	Win2	1.0	0.0	Yes	2.824	0.001	n/a	GoodResponse	1	n/a	n/a	1	3	Fixation	Win	True
42.822	0.37	Win2	1.0	0.004	Yes	2.824	-0.004	4.0	GoodResponse	1	0.203	42.025	1	3	Target	Win	True
43.025	0.3	Win2	1.0	0.004	Yes	2.824	-0.004	4.0	GoodResponse	1	0.203	n/a	1	3	ButtonPress	Win	True
43.206	0.33	Win2	1.0	n/a	Yes	2.824	n/a	n/a	GoodResponse	1	n/a	n/a	1	3	Blank	Win	True
43.524	1.45	Win2	1.0	n/a	Yes	2.824	n/a	5.0	GoodResponse	1	0.013	42.537	1	3	Feedback	Win	True
44.978	2.824	Win2	1.0	n/a	Yes	2.824	n/a	n/a	GoodResponse	1	0.0	n/a	1	3	ISIslide	Win	True
47.82	0.25	Win2	1.0	0.0	Yes	3.28	0.02	n/a	GoodResponse	1	n/a	n/a	2	4	Cue	Win	True
48.071	4.0	Win2	1.0	0.0	Yes	3.28	0.001	n/a	GoodResponse	1	n/a	n/a	2	4	Fixation	Win	True
52.066	0.36	Win2	1.0	0.004	Yes	3.28	-0.004	4.0	GoodResponse	1	0.229	51.295	2	4	Target	Win	True
52.295	0.3	Win2	1.0	0.004	Yes	3.28	-0.004	4.0	GoodResponse	1	0.229	n/a	2	4	ButtonPress	Win	True
52.434	0.34	Win2	1.0	n/a	Yes	3.28	n/a	n/a	GoodResponse	1	n/a	n/a	2	4	Blank	Win	True
52.768	1.45	Win2	1.0	n/a	Yes	3.28	n/a	5.0	GoodResponse	1	0.037	51.805	2	4	Feedback	Win	True
54.223	3.28	Win2	1.0	n/a	Yes	3.28	n/a	n/a	GoodResponse	1	0.0	n/a	2	4	ISIslide	Win	True
57.516	0.25	Win2	1.0	0.0	Yes	2.784	0.016	n/a	GoodResponse	1	n/a	n/a	3	5	Cue	Win	True
57.767	4.0	Win2	1.0	0.0	Yes	2.784	0.001	n/a	GoodResponse	1	n/a	n/a	3	5	Fixation	Win	True
61.762	0.35	Win2	1.0	0.004	Yes	2.784	-0.004	4.0	GoodResponse	1	0.18	60.942	3	5	Target	Win	True
61.942	0.3	Win2	1.0	0.004	Yes	2.784	-0.004	4.0	GoodResponse	1	0.18	n/a	3	5	ButtonPress	Win	True
62.113	0.35	Win2	1.0	n/a	Yes	2.784	n/a	n/a	GoodResponse	1	n/a	n/a	3	5	Blank	Win	True
62.464	1.45	Win2	1.0	n/a	Yes	2.784	n/a	5.0	GoodResponse	1	0.048	61.512	3	5	Feedback	Win	True
63.918	2.784	Win2	1.0	n/a	Yes	2.784	n/a	n/a	GoodResponse	1	0.0	n/a	3	5	ISIslide	Win	True
66.727	0.25	Lose2	1.0	0.0	Yes	2.723	0.027	n/a	GoodResponse	0	n/a	n/a	3	6	Cue	AvoidedLoss	True
66.977	3.95	Lose2	1.0	0.001	Yes	2.723	0.0	n/a	GoodResponse	0	n/a	n/a	3	6	Fixation	AvoidedLoss	True
70.923	0.34	Lose2	1.0	0.004	Yes	2.723	-0.004	4.0	GoodResponse	0	0.196	70.119	3	6	Target	AvoidedLoss	True
71.119	0.3	Lose2	1.0	0.004	Yes	2.723	-0.004	4.0	GoodResponse	0	0.196	n/a	3	6	ButtonPress	AvoidedLoss	True
71.274	0.36	Lose2	1.0	n/a	Yes	2.723	n/a	n/a	GoodResponse	0	n/a	n/a	3	6	Blank	AvoidedLoss	True
71.625	1.45	Lose2	1.0	n/a	Yes	2.723	n/a	5.0	GoodResponse	0	0.009	70.634	3	6	Feedback	AvoidedLoss	True
73.079	2.723	Lose2	1.0	n/a	Yes	2.723	n/a	n/a	GoodResponse	0	0.0	n/a	3	6	ISIslide	AvoidedLoss	True
75.821	0.25	Lose2	1.0	0.0	Yes	4.029	0.021	n/a	GoodResponse	0	n/a	n/a	3	7	Cue	AvoidedLoss	True
76.071	4.05	Lose2	1.0	0.001	Yes	4.029	0.0	n/a	GoodResponse	0	n/a	n/a	3	7	Fixation	AvoidedLoss	True
80.117	0.33	Lose2	1.0	0.004	Yes	4.029	-0.004	4.0	GoodResponse	0	0.232	79.349	3	7	Target	AvoidedLoss	True
80.349	0.3	Lose2	1.0	0.004	Yes	4.029	-0.004	4.0	GoodResponse	0	0.232	n/a	3	7	ButtonPress	AvoidedLoss	True
80.451	0.37	Lose2	1.0	n/a	Yes	4.029	n/a	n/a	GoodResponse	0	n/a	n/a	3	7	Blank	AvoidedLoss	True
80.819	1.45	Lose2	1.0	n/a	Yes	4.029	n/a	5.0	GoodResponse	0	0.035	79.854	3	7	Feedback	AvoidedLoss	True
82.273	4.029	Lose2	1.0	n/a	Yes	4.029	n/a	n/a	GoodResponse	0	0.0	n/a	3	7	ISIslide	AvoidedLoss	True
86.319	0.25	Lose2	1.0	0.0	Yes	3.031	0.019	n/a	GoodResponse	0	n/a	n/a	3	8	Cue	AvoidedLoss	True
86.57	3.95	Lose2	1.0	0.0	Yes	3.031	0.001	n/a	GoodResponse	0	n/a	n/a	3	8	Fixation	AvoidedLoss	True
90.515	0.32	Lose2	1.0	0.004	Yes	3.031	-0.004	4.0	GoodResponse	0	0.239	89.754	3	8	Target	AvoidedLoss	True
90.754	0.3	Lose2	1.0	0.004	Yes	3.031	-0.004	4.0	GoodResponse	0	0.239	n/a	3	8	ButtonPress	AvoidedLoss	True
90.849	0.38	Lose2	1.0	n/a	Yes	3.031	n/a	n/a	GoodResponse	0	n/a	n/a	3	8	Blank	AvoidedLoss	True
91.217	1.45	Lose2	1.0	n/a	Yes	3.031	n/a	5.0	GoodResponse	0	0.027	90.244	3	8	Feedback	AvoidedLoss	True
92.671	3.031	Lose2	1.0	n/a	Yes	3.031	n/a	n/a	GoodResponse	0	0.0	n/a	3	8	ISIslide	AvoidedLoss	True
95.73	0.25	Lose2	1.0	0.0	Yes	3.12	0.03	n/a	GoodResponse	0	n/a	n/a	3	9	Cue	AvoidedLoss	True
95.981	3.95	Lose2	1.0	0.0	Yes	3.12	0.001	n/a	GoodResponse	0	n/a	n/a	3	9	Fixation	AvoidedLoss	True
99.926	0.31	Lose2	1.0	0.004	Yes	3.12	-0.004	4.0	GoodResponse	0	0.215	99.141	3	9	Target	AvoidedLoss	True
100.141	0.3	Lose2	1.0	0.004	Yes	3.12	-0.004	4.0	GoodResponse	0	0.215	n/a	3	9	ButtonPress	AvoidedLoss	True
100.244	0.39	Lose2	1.0	n/a	Yes	3.12	n/a	n/a	GoodResponse	0	n/a	n/a	3	9	Blank	AvoidedLoss	True
100.628	1.45	Lose2	1.0	n/a	Yes	3.12	n/a	5.0	GoodResponse	0	0.031	99.659	3	9	Feedback	AvoidedLoss	True
102.083	3.12	Lose2	1.0	n/a	Yes	3.12	n/a	n/a	GoodResponse	0	0.0	n/a	3	9	ISIslide	AvoidedLoss	True
105.226	0.25	Control	1.0	0.0	Yes	3.274	0.026	n/a	GoodResponse	0	n/a	n/a	3	10	Cue	Neutral	True
105.476	4.0	Control	1.0	0.0	Yes	3.274	0.0	n/a	GoodResponse	0	n/a	n/a	3	10	Fixation	Neutral	True
109.472	0.3	Control	1.0	0.004	Yes	3.274	-0.004	4.0	GoodResponse	0	0.203	108.675	3	10	Target	Neutral	True
109.675	0.3	Control	1.0	0.004	Yes	3.274	-0.004	4.0	GoodResponse	0	0.203	n/a	3	10	ButtonPress	Neutral	True
109.773	0.4	Control	1.0	n/a	Yes	3.274	n/a	n/a	GoodResponse	0	n/a	n/a	3	10	Blank	Neutral	True
110.174	1.45	Control	1.0	n/a	Yes	3.274	n/a	5.0	GoodResponse	0	0.046	109.22	3	10	Feedback	Neutral	True
111.628	3.274	Control	1.0	n/a	Yes	3.274	n/a	n/a	GoodResponse	0	0.0	n/a	3	10	ISIslide	Neutral	True
114.921	0.25	Lose2	1.0	0.0	Yes	2.729	0.021	n/a	GoodResponse	0	n/a	n/a	3	11	Cue	AvoidedLoss	True
115.172	4.05	Lose2	1.0	0.0	Yes	2.729	0.001	n/a	GoodResponse	0	n/a	n/a	3	11	Fixation	AvoidedLoss	True
119.218	0.29	Lose2	1.0	0.003	Yes	2.729	-0.003	4.0	GoodResponse	0	0.226	118.444	3	11	Target	AvoidedLoss	True
119.444	0.3	Lose2	1.0	0.003	Yes	2.729	-0.003	4.0	GoodResponse	0	0.226	n/a	3	11	ButtonPress	AvoidedLoss	True
119.518	0.41	Lose2	1.0	n/a	Yes	2.729	n/a	n/a	GoodResponse	0	n/a	n/a	3	11	Blank	AvoidedLoss	True
119.92	1.45	Lose2	1.0	n/a	Yes	2.729	n/a	5.0	GoodResponse	0	0.007	118.927	3	11	Feedback	AvoidedLoss	True
121.374	2.729	Lose2	1.0	n/a	Yes	2.729	n/a	n/a	GoodResponse	0	0.0	n/a	3	11	ISIslide	AvoidedLoss	True
124.116	0.25	Control	1.0	0.0	Yes	2.984	0.016	n/a	GoodResponse	0	n/a	n/a	3	12	Cue	Neutral	True
124.366	3.9	Control	1.0	0.0	Yes	2.984	0.0	n/a	GoodResponse	0	n/a	n/a	3	12	Fixation	Neutral	True
128.278	0.28	Control	1.0	0.0	Yes	2.984	0.012	4.0	GoodResponse	0	0.213	127.491	3	12	Target	Neutral	True
128.491	0.3	Control	1.0	0.0	Yes	2.984	0.012	4.0	GoodResponse	0	0.213	n/a	3	12	ButtonPress	Neutral	True
128.546	0.42	Control	1.0	n/a	Yes	2.984	n/a	n/a	GoodResponse	0	n/a	n/a	3	12	Blank	Neutral	True
128.963	1.45	Control	1.0	n/a	Yes	2.984	n/a	5.0	GoodResponse	0	0.037	128.0	3	12	Feedback	Neutral	True
130.418	2.984	Control	1.0	n/a	Yes	2.984	n/a	n/a	GoodResponse	0	0.0	n/a	3	12	ISIslide	Neutral	True
133.427	0.25	Control	1.0	0.0	Yes	2.773	0.027	n/a	GoodResponse	0	n/a	n/a	3	13	Cue	Neutral	True
133.678	4.0	Control	1.0	0.0	Yes	2.773	0.001	n/a	GoodResponse	0	n/a	n/a	3	13	Fixation	Neutral	True
137.673	0.27	Control	1.0	0.004	Yes	2.773	-0.004	4.0	GoodResponse	0	0.186	136.859	3	13	Target	Neutral	True
137.859	0.3	Control	1.0	0.004	Yes	2.773	-0.004	4.0	GoodResponse	0	0.186	n/a	3	13	ButtonPress	Neutral	True
137.957	0.43	Control	1.0	n/a	Yes	2.773	n/a	n/a	GoodResponse	0	n/a	n/a	3	13	Blank	Neutral	True
138.375	1.45	Control	1.0	n/a	Yes	2.773	n/a	5.0	GoodResponse	0	0.039	137.414	3	13	Feedback	Neutral	True
139.829	2.773	Control	1.0	n/a	Yes	2.773	n/a	n/a	GoodResponse	0	0.0	n/a	3	13	ISIslide	Neutral	True
142.621	0.25	Win2	1.0	0.0	Yes	2.679	0.021	n/a	GoodResponse	1	n/a	n/a	4	14	Cue	Win	False
142.872	4.1	Win2	1.0	0.0	Yes	2.679	0.001	4.0	GoodResponse	1	3.585	145.457	4	14	Fixation	Win	False
146.457	0.3	Win2	1.0	0.0	Yes	2.679	0.001	4.0	GoodResponse	1	3.585	n/a	4	14	ButtonPress	Win	False
146.967	0.26	Win2	1.0	0.004	Yes	2.679	-0.004	4.0	GoodResponse	1	0.182	146.149	4	14	Target	Win	False
147.149	0.3	Win2	1.0	0.004	Yes	2.679	-0.004	4.0	GoodResponse	1	0.182	n/a	4	14	ButtonPress	Win	False
147.235	0.44	Win2	1.0	n/a	Yes	2.679	n/a	n/a	GoodResponse	1	n/a	n/a	4	14	Blank	Win	False
147.67	1.45	Win2	1.0	n/a	Yes	2.679	n/a	5.0	GoodResponse	1	0.013	146.683	4	14	Feedback	Win	False
149.124	2.679	Win2	1.0	n/a	Yes	2.679	n/a	n/a	GoodResponse	1	0.0	n/a	4	14	ISIslide	Win	False
151.815	0.25	Control	1.0	0.0	Yes	2.985	0.015	n/a	GoodResponse	0	n/a	n/a	4	15	Cue	Neutral	True
152.066	4.0	Control	1.0	0.0	Yes	2.985	0.001	n/a	GoodResponse	0	n/a	n/a	4	15	Fixation	Neutral	True
156.061	0.25	Control	1.0	0.004	Yes	2.985	-0.004	4.0	GoodResponse	0	0.227	155.288	4	15	Target	Neutral	True
156.288	0.3	Control	1.0	0.004	Yes	2.985	-0.004	4.0	GoodResponse	0	0.227	n/a	4	15	ButtonPress	Neutral	True
156.312	0.45	Control	1.0	n/a	Yes	2.985	n/a	n/a	GoodResponse	0	n/a	n/a	4	15	Blank	Neutral	True
156.764	1.45	Control	1.0	n/a	Yes	2.985	n/a	5.0	GoodResponse	0	0.041	155.805	4	15	Feedback	Neutral	True
158.218	2.985	Control	1.0	n/a	Yes	2.985	n/a	n/a	GoodResponse	0	0.0	n/a	4	15	ISIslide	Neutral	True
161.227	0.25	Win2	1.0	0.0	Yes	2.873	0.027	n/a	GoodResponse	1	n/a	n/a	5	16	Cue	Win	True
161.478	4.0	Win2	1.0	0.0	Yes	2.873	0.001	n/a	GoodResponse	1	n/a	n/a	5	16	Fixation	Win	True
165.473	0.24	Win2	1.0	0.004	Yes	2.873	-0.004	4.0	GoodResponse	1	0.219	164.692	5	16	Target	Win	True
165.692	0.3	Win2	1.0	0.004	Yes	2.873	-0.004	4.0	GoodResponse	1	0.219	n/a	5	16	ButtonPress	Win	True
165.724	0.46	Win2	1.0	n/a	Yes	2.873	n/a	n/a	GoodResponse	1	n/a	n/a	5	16	Blank	Win	True
166.175	1.45	Win2	1.0	n/a	Yes	2.873	n/a	5.0	GoodResponse	1	0.044	165.219	5	16	Feedback	Win	True
167.629	2.873	Win2	1.0	n/a	Yes	2.873	n/a	n/a	GoodResponse	1	0.0	n/a	5	16	ISIslide	Win	True
170.521	0.25	Lose2	0.9444	0.001	No	2.729	0.021	n/a	LatePress	-1	n/a	n/a	4	17	Cue	Loss	True
170.772	3.95	Lose2	0.9444	0.0	No	2.729	0.001	n/a	LatePress	-1	n/a	n/a	4	17	Fixation	Loss	True
174.717	0.23	Lose2	0.9444	0.004	No	2.729	-0.004	4.0	LatePress	-1	0.231	173.948	4	17	Target	Loss	True
174.948	0.3	Lose2	0.9444	0.004	No	2.729	-0.004	4.0	LatePress	-1	0.231	n/a	4	17	ButtonPress	Loss	True
174.951	0.47	Lose2	0.9444	n/a	No	2.729	n/a	n/a	LatePress	-1	n/a	n/a	4	17	Blank	Loss	True
175.419	1.45	Lose2	0.9444	n/a	No	2.729	n/a	5.0	LatePress	-1	0.02	174.439	4	17	Feedback	Loss	True
176.874	2.729	Lose2	0.9444	n/a	No	2.729	n/a	n/a	LatePress	-1	0.0	n/a	4	17	ISIslide	Loss	True
179.615	0.25	Lose2	0.9473999999999999	0.0	Yes	2.735	0.015	n/a	GoodResponse	0	n/a	n/a	4	18	Cue	AvoidedLoss	True
179.866	4.05	Lose2	0.9473999999999999	0.0	Yes	2.735	0.001	n/a	GoodResponse	0	n/a	n/a	4	18	Fixation	AvoidedLoss	True
183.912	0.22	Lose2	0.9473999999999999	0.003	Yes	2.735	-0.003	4.0	GoodResponse	0	0.188	183.1	4	18	Target	AvoidedLoss	True
184.1	0.3	Lose2	0.9473999999999999	0.003	Yes	2.735	-0.003	4.0	GoodResponse	0	0.188	n/a	4	18	ButtonPress	AvoidedLoss	True
184.146	0.48	Lose2	0.9473999999999999	n/a	Yes	2.735	n/a	n/a	GoodResponse	0	n/a	n/a	4	18	Blank	AvoidedLoss	True
184.614	1.45	Lose2	0.9473999999999999	n/a	Yes	2.735	n/a	5.0	GoodResponse	0	0.045	183.659	4	18	Feedback	AvoidedLoss	True
186.068	2.735	Lose2	0.9473999999999999	n/a	Yes	2.735	n/a	n/a	GoodResponse	0	0.0	n/a	4	18	ISIslide	AvoidedLoss	True
188.826	0.25	Control	0.9	0.0	No	2.924	0.026	n/a	LatePress	0	n/a	n/a	4	19	Cue	Neutral	True
189.077	3.95	Control	0.9	0.0	No	2.924	0.001	n/a	LatePress	0	n/a	n/a	4	19	Fixation	Neutral	True
193.022	0.21	Control	0.9	0.004	No	2.924	-0.004	4.0	LatePress	0	0.211	192.233	4	19	Target	Neutral	True
193.233	0.3	Control	0.9	0.004	No	2.924	-0.004	4.0	LatePress	0	0.211	n/a	4	19	ButtonPress	Neutral	True
193.24	0.49	Control	0.9	n/a	No	2.924	n/a	n/a	LatePress	0	n/a	n/a	4	19	Blank	Neutral	True
193.724	1.45	Control	0.9	n/a	No	2.924	n/a	5.0	LatePress	0	0.008	192.732	4	19	Feedback	Neutral	True
195.179	2.924	Control	0.9	n/a	No	2.924	n/a	n/a	LatePress	0	0.0	n/a	4	19	ISIslide	Neutral	True
198.121	0.25	Control	0.8571	0.0	No	2.629	0.021	n/a	NoResponse	0	n/a	n/a	4	20	Cue	Neutral	True
198.372	4.05	Control	0.8571	0.0	No	2.629	0.001	n/a	NoResponse	0	n/a	n/a	4	20	Fixation	Neutral	True
202.417	0.2	Control	0.8571	0.004	No	2.629	-0.004	4.0	NoResponse	0	0.239	201.656	4	20	Target	Neutral	True
202.618	0.5	Control	0.8571	n/a	No	2.629	n/a	n/a	NoResponse	0	n/a	n/a	4	20	Blank	Neutral	True
202.656	0.3	Control	0.8571	0.004	No	2.629	-0.004	4.0	NoResponse	0	0.239	n/a	4	20	ButtonPress	Neutral	True
203.119	1.45	Control	0.8571	n/a	No	2.629	n/a	5.0	NoResponse	0	0.027	202.146	4	20	Feedback	Neutral	True
204.574	2.629	Control	0.8571	n/a	No	2.629	n/a	n/a	NoResponse	0	0.0	n/a	4	20	ISIslide	Neutral	True
207.215	0.25	Control	0.8636	0.0	Yes	2.785	0.015	n/a	GoodResponse	0	n/a	n/a	4	21	Cue	Neutral	True
207.466	4.1	Control	0.8636	0.0	Yes	2.785	0.001	n/a	GoodResponse	0	n/a	n/a	4	21	Fixation	Neutral	True
211.561	0.19	Control	0.8636	0.004	Yes	2.785	-0.004	4.0	GoodResponse	0	0.189	210.75	4	21	Target	Neutral	True
211.75	0.3	Control	0.8636	0.004	Yes	2.785	-0.004	4.0	GoodResponse	0	0.189	n/a	4	21	ButtonPress	Neutral	True
211.762	0.51	Control	0.8636	n/a	Yes	2.785	n/a	n/a	GoodResponse	0	n/a	n/a	4	21	Blank	Neutral	True
212.263	1.45	Control	0.8636	n/a	Yes	2.785	n/a	5.0	GoodResponse	0	0.006	211.269	4	21	Feedback	Neutral	True
213.718	2.785	Control	0.8636	n/a	Yes	2.785	n/a	n/a	GoodResponse	0	0.0	n/a	4	21	ISIslide	Neutral	True
216.526	0.25	Control	0.8261	0.0	No	2.774	0.026	n/a	NoResponse	0	n/a	n/a	4	22	Cue	Neutral	True
216.777	4.0	Control	0.8261	0.0	No	2.774	0.001	n/a	NoResponse	0	n/a	n/a	4	22	Fixation	Neutral	True
220.772	0.18	Control	0.8261	0.004	No	2.774	-0.004	4.0	NoResponse	0	0.218	219.99	4	22	Target	Neutral	True
220.956	0.52	Control	0.8261	n/a	No	2.774	n/a	n/a	NoResponse	0	n/a	n/a	4	22	Blank	Neutral	True
220.99	0.3	Control	0.8261	0.004	No	2.774	-0.004	4.0	NoResponse	0	0.218	n/a	4	22	ButtonPress	Neutral	True
221.474	1.45	Control	0.8261	n/a	No	2.774	n/a	5.0	NoResponse	0	0.013	220.487	4	22	Feedback	Neutral	True
222.929	2.774	Control	0.8261	n/a	No	2.774	n/a	n/a	NoResponse	0	0.0	n/a	4	22	ISIslide	Neutral	True
225.72	0.25	Control	0.8332999999999999	0.0	Yes	2.78	0.02	n/a	GoodResponse	0	n/a	n/a	4	23	Cue	Neutral	True
225.971	3.9	Control	0.8332999999999999	0.0	Yes	2.78	0.001	n/a	GoodResponse	0	n/a	n/a	4	23	Fixation	Neutral	True
229.866	0.17	Control	0.8332999999999999	0.004	Yes	2.78	-0.004	4.0	GoodResponse	0	0.139	229.005	4	23	Target	Neutral	True
230.005	0.3	Control	0.8332999999999999	0.004	Yes	2.78	-0.004	4.0	GoodResponse	0	0.139	n/a	4	23	ButtonPress	Neutral	True
230.05	0.53	Control	0.8332999999999999	n/a	Yes	2.78	n/a	n/a	GoodResponse	0	n/a	n/a	4	23	Blank	Neutral	True
230.568	1.45	Control	0.8332999999999999	n/a	Yes	2.78	n/a	5.0	GoodResponse	0	0.041	229.609	4	23	Feedback	Neutral	True
232.023	2.78	Control	0.8332999999999999	n/a	Yes	2.78	n/a	n/a	GoodResponse	0	0.0	n/a	4	23	ISIslide	Neutral	True
234.831	0.25	Win2	0.8	0.0	No	3.119	0.031	n/a	NoResponse	0	n/a	n/a	4	24	Cue	MissedWin	True
235.082	3.95	Win2	0.8	0.0	No	3.119	0.001	n/a	NoResponse	0	n/a	n/a	4	24	Fixation	MissedWin	True
239.027	0.16	Win2	0.8	0.004	No	3.119	-0.004	4.0	NoResponse	0	0.185	238.212	4	24	Target	MissedWin	True
239.194	0.54	Win2	0.8	n/a	No	3.119	n/a	n/a	NoResponse	0	n/a	n/a	4	24	Blank	MissedWin	True
239.212	0.3	Win2	0.8	0.004	No	3.119	-0.004	4.0	NoResponse	0	0.185	n/a	4	24	ButtonPress	MissedWin	True
239.729	1.45	Win2	0.8	n/a	No	3.119	n/a	5.0	NoResponse	0	0.002	238.731	4	24	Feedback	MissedWin	True
241.183	3.119	Win2	0.8	n/a	No	3.119	n/a	n/a	NoResponse	0	0.0	n/a	4	24	ISIslide	MissedWin	True
244.326	0.25	Win2	0.7692	0.0	No	3.074	0.026	n/a	NoResponse	0	n/a	n/a	4	25	Cue	MissedWin	True
244.577	4.0	Win2	0.7692	0.0	No	3.074	0.001	4.0	NoResponse	0	3.909	247.486	4	25	Fixation	MissedWin	True
248.486	0.3	Win2	0.7692	0.0	No	3.074	0.001	4.0	NoResponse	0	3.909	n/a	4	25	ButtonPress	MissedWin	True
248.572	0.15	Win2	0.7692	0.004	No	3.074	-0.004	n/a	NoResponse	0	n/a	n/a	4	25	Target	MissedWin	True
248.723	0.55	Win2	0.7692	n/a	No	3.074	n/a	n/a	NoResponse	0	n/a	n/a	4	25	Blank	MissedWin	True
249.274	1.45	Win2	0.7692	n/a	No	3.074	n/a	5.0	NoResponse	0	0.019	248.293	4	25	Feedback	MissedWin	True
250.729	3.074	Win2	0.7692	n/a	No	3.074	n/a	n/a	NoResponse	0	0.0	n/a	4	25	ISIslide	MissedWin	True
253.821	0.25	Win2	0.7406999999999999	0.0	No	2.929	0.021	n/a	NoResponse	0	n/a	n/a	4	26	Cue	MissedWin	True
254.072	3.95	Win2	0.7406999999999999	0.0	No	2.929	0.001	n/a	NoResponse	0	n/a	n/a	4	26	Fixation	MissedWin	True
258.017	0.15	Win2	0.7406999999999999	0.004	No	2.929	-0.004	4.0	NoResponse	0	0.242	257.259	4	26	Target	MissedWin	True
258.168	0.55	Win2	0.7406999999999999	n/a	No	2.929	n/a	n/a	NoResponse	0	n/a	n/a	4	26	Blank	MissedWin	True
258.259	0.3	Win2	0.7406999999999999	0.004	No	2.929	-0.004	4.0	NoResponse	0	0.242	n/a	4	26	ButtonPress	MissedWin	True
258.719	1.45	Win2	0.7406999999999999	n/a	No	2.929	n/a	5.0	NoResponse	0	0.037	257.756	4	26	Feedback	MissedWin	True
260.174	2.929	Win2	0.7406999999999999	n/a	No	2.929	n/a	n/a	NoResponse	0	0.0	n/a	4	26	ISIslide	MissedWin	True
263.116	0.25	Lose2	0.7143	0.0	No	2.834	0.016	n/a	NoResponse	-1	n/a	n/a	3	27	Cue	Loss	True
263.367	4.05	Lose2	0.7143	0.0	No	2.834	0.001	n/a	NoResponse	-1	n/a	n/a	3	27	Fixation	Loss	True
267.412	0.15	Lose2	0.7143	0.004	No	2.834	-0.004	4.0	NoResponse	-1	0.179	266.591	3	27	Target	Loss	True
267.563	0.55	Lose2	0.7143	n/a	No	2.834	n/a	n/a	NoResponse	-1	n/a	n/a	3	27	Blank	Loss	True
267.591	0.3	Lose2	0.7143	0.004	No	2.834	-0.004	4.0	NoResponse	-1	0.179	n/a	3	27	ButtonPress	Loss	True
268.114	1.45	Lose2	0.7143	n/a	No	2.834	n/a	5.0	NoResponse	-1	0.008	267.122	3	27	Feedback	Loss	True
269.569	2.834	Lose2	0.7143	n/a	No	2.834	n/a	n/a	NoResponse	-1	0.0	n/a	3	27	ISIslide	Loss	True
272.427	0.25	Control	0.6897	0.0	No	2.823	0.027	n/a	NoResponse	0	n/a	n/a	3	28	Cue	Neutral	True
272.678	4.05	Control	0.6897	0.0	No	2.823	0.001	n/a	NoResponse	0	n/a	n/a	3	28	Fixation	Neutral	True
276.723	0.15	Control	0.6897	0.004	No	2.823	-0.004	4.0	NoResponse	0	0.203	275.926	3	28	Target	Neutral	True
276.874	0.55	Control	0.6897	n/a	No	2.823	n/a	n/a	NoResponse	0	n/a	n/a	3	28	Blank	Neutral	True
276.926	0.3	Control	0.6897	0.004	No	2.823	-0.004	4.0	NoResponse	0	0.203	n/a	3	28	ButtonPress	Neutral	True
277.425	1.45	Control	0.6897	n/a	No	2.823	n/a	5.0	NoResponse	0	0.013	276.438	3	28	Feedback	Neutral	True
278.88	2.823	Control	0.6897	n/a	No	2.823	n/a	n/a	NoResponse	0	0.0	n/a	3	28	ISIslide	Neutral	True
281.722	0.25	Lose2	0.6667000000000001	0.0	No	2.828	0.022	n/a	NoResponse	-1	n/a	n/a	2	29	Cue	Loss	True
281.972	3.95	Lose2	0.6667000000000001	0.001	No	2.828	0.0	n/a	NoResponse	-1	n/a	n/a	2	29	Fixation	Loss	True
285.918	0.15	Lose2	0.6667000000000001	0.004	No	2.828	-0.004	4.0	NoResponse	-1	0.201	285.119	2	29	Target	Loss	True
286.068	0.55	Lose2	0.6667000000000001	n/a	No	2.828	n/a	n/a	NoResponse	-1	n/a	n/a	2	29	Blank	Loss	True
286.119	0.3	Lose2	0.6667000000000001	0.004	No	2.828	-0.004	4.0	NoResponse	-1	0.201	n/a	2	29	ButtonPress	Loss	True
286.62	1.45	Lose2	0.6667000000000001	n/a	No	2.828	n/a	5.0	NoResponse	-1	0.038	285.658	2	29	Feedback	Loss	True
288.074	2.828	Lose2	0.6667000000000001	n/a	No	2.828	n/a	n/a	NoResponse	-1	0.0	n/a	2	29	ISIslide	Loss	True
290.916	0.25	Win2	0.6452	0.0	No	2.784	0.016	n/a	PrematurePress	0	n/a	n/a	2	30	Cue	MissedWin	True
291.167	3.9	Win2	0.6452	0.0	No	2.784	0.001	n/a	PrematurePress	0	n/a	n/a	2	30	Fixation	MissedWin	True
295.062	0.15	Win2	0.6452	0.004	No	2.784	-0.004	4.0	PrematurePress	0	0.058	294.12	2	30	Target	MissedWin	True
295.12	0.3	Win2	0.6452	0.004	No	2.784	-0.004	4.0	PrematurePress	0	0.058	n/a	2	30	ButtonPress	MissedWin	True
295.212	0.55	Win2	0.6452	n/a	No	2.784	n/a	n/a	PrematurePress	0	n/a	n/a	2	30	Blank	MissedWin	True
295.764	1.45	Win2	0.6452	n/a	No	2.784	n/a	5.0	PrematurePress	0	0.016	294.78	2	30	Feedback	MissedWin	True
297.218	2.784	Win2	0.6452	n/a	No	2.784	n/a	n/a	PrematurePress	0	0.0	n/a	2	30	ISIslide	MissedWin	True
300.027	0.25	Lose2	0.625	0.0	No	2.823	0.027	n/a	NoResponse	-1	n/a	n/a	1	31	Cue	Loss	True
300.277	4.05	Lose2	0.625	0.0	No	2.823	0.0	n/a	NoResponse	-1	n/a	n/a	1	31	Fixation	Loss	True
304.323	0.16	Lose2	0.625	0.004	No	2.823	-0.004	4.0	NoResponse	-1	0.21	303.533	1	31	Target	Loss	True
304.49	0.54	Lose2	0.625	n/a	No	2.823	n/a	n/a	NoResponse	-1	n/a	n/a	1	31	Blank	Loss	True
304.533	0.3	Lose2	0.625	0.004	No	2.823	-0.004	4.0	NoResponse	-1	0.21	n/a	1	31	ButtonPress	Loss	True
305.025	1.45	Lose2	0.625	n/a	No	2.823	n/a	5.0	NoResponse	-1	0.023	304.048	1	31	Feedback	Loss	True
306.479	2.823	Lose2	0.625	n/a	No	2.823	n/a	n/a	NoResponse	-1	0.0	n/a	1	31	ISIslide	Loss	True
309.321	0.25	Lose2	0.6061	0.0	No	2.629	0.021	n/a	NoResponse	-1	n/a	n/a	0	32	Cue	Loss	True
309.572	4.15	Lose2	0.6061	0.0	No	2.629	0.001	n/a	NoResponse	-1	n/a	n/a	0	32	Fixation	Loss	True
313.718	0.17	Lose2	0.6061	0.003	No	2.629	-0.003	4.0	NoResponse	-1	0.232	312.95	0	32	Target	Loss	True
313.902	0.53	Lose2	0.6061	n/a	No	2.629	n/a	n/a	NoResponse	-1	n/a	n/a	0	32	Blank	Loss	True
313.95	0.3	Lose2	0.6061	0.003	No	2.629	-0.003	4.0	NoResponse	-1	0.232	n/a	0	32	ButtonPress	Loss	True
314.42	1.45	Lose2	0.6061	n/a	No	2.629	n/a	5.0	NoResponse	-1	0.043	313.463	0	32	Feedback	Loss	True
315.874	2.629	Lose2	0.6061	n/a	No	2.629	n/a	n/a	NoResponse	-1	0.0	n/a	0	32	ISIslide	Loss	True
318.515	0.25	Win2	0.6175999999999999	0.0	Yes	2.685	0.015	n/a	GoodResponse	1	n/a	n/a	1	33	Cue	Win	True
318.766	4.0	Win2	0.6175999999999999	0.0	Yes	2.685	0.001	n/a	GoodResponse	1	n/a	n/a	1	33	Fixation	Win	True
322.761	0.18	Win2	0.6175999999999999	0.004	Yes	2.685	-0.004	4.0	GoodResponse	1	0.163	321.924	1	33	Target	Win	True
322.924	0.3	Win2	0.6175999999999999	0.004	Yes	2.685	-0.004	4.0	GoodResponse	1	0.163	n/a	1	33	ButtonPress	Win	True
322.945	0.52	Win2	0.6175999999999999	n/a	Yes	2.685	n/a	n/a	GoodResponse	1	n/a	n/a	1	33	Blank	Win	True
323.464	1.45	Win2	0.6175999999999999	n/a	Yes	2.685	n/a	5.0	GoodResponse	1	0.023	322.487	1	33	Feedback	Win	True
324.918	2.685	Win2	0.6175999999999999	n/a	Yes	2.685	n/a	n/a	GoodResponse	1	0.0	n/a	1	33	ISIslide	Win	True
327.626	0.25	Lose2	0.6286	0.0	Yes	2.624	0.026	n/a	GoodResponse	0	n/a	n/a	1	34	Cue	AvoidedLoss	True
327.877	4.05	Lose2	0.6286	0.0	Yes	2.624	0.001	n/a	GoodResponse	0	n/a	n/a	1	34	Fixation	AvoidedLoss	True
331.922	0.19	Lose2	0.6286	0.004	Yes	2.624	-0.004	4.0	GoodResponse	0	0.159	331.081	1	34	Target	AvoidedLoss	True
332.081	0.3	Lose2	0.6286	0.004	Yes	2.624	-0.004	4.0	GoodResponse	0	0.159	n/a	1	34	ButtonPress	AvoidedLoss	True
332.123	0.51	Lose2	0.6286	n/a	Yes	2.624	n/a	n/a	GoodResponse	0	n/a	n/a	1	34	Blank	AvoidedLoss	True
332.624	1.45	Lose2	0.6286	n/a	Yes	2.624	n/a	5.0	GoodResponse	0	0.034	331.658	1	34	Feedback	AvoidedLoss	True
334.079	2.624	Lose2	0.6286	n/a	Yes	2.624	n/a	n/a	GoodResponse	0	0.0	n/a	1	34	ISIslide	AvoidedLoss	True
336.72	0.25	Lose2	0.6111	0.0	No	2.68	0.02	n/a	NoResponse	-1	n/a	n/a	0	35	Cue	Loss	True
336.971	4.0	Lose2	0.6111	0.0	No	2.68	0.001	n/a	NoResponse	-1	n/a	n/a	0	35	Fixation	Loss	True
340.966	0.2	Lose2	0.6111	0.004	No	2.68	-0.004	4.0	NoResponse	-1	0.212	340.178	0	35	Target	Loss	True
341.167	0.5	Lose2	0.6111	n/a	No	2.68	n/a	n/a	NoResponse	-1	n/a	n/a	0	35	Blank	Loss	True
341.178	0.3	Lose2	0.6111	0.004	No	2.68	-0.004	4.0	NoResponse	-1	0.212	n/a	0	35	ButtonPress	Loss	True
341.668	1.45	Lose2	0.6111	n/a	No	2.68	n/a	5.0	NoResponse	-1	0.015	340.683	0	35	Feedback	Loss	True
343.123	2.68	Lose2	0.6111	n/a	No	2.68	n/a	n/a	NoResponse	-1	0.0	n/a	0	35	ISIslide	Loss	True
345.814	0.25	Control	0.5946	0.0	No	2.686	0.014	n/a	LatePress	0	n/a	n/a	0	36	Cue	Neutral	True
346.065	4.0	Control	0.5946	0.0	No	2.686	0.001	n/a	LatePress	0	n/a	n/a	0	36	Fixation	Neutral	True
350.06	0.21	Control	0.5946	0.004	No	2.686	-0.004	4.0	LatePress	0	0.211	349.271	0	36	Target	Neutral	True
350.271	0.3	Control	0.5946	0.004	No	2.686	-0.004	4.0	LatePress	0	0.211	n/a	0	36	ButtonPress	Neutral	True
350.277	0.49	Control	0.5946	n/a	No	2.686	n/a	n/a	LatePress	0	n/a	n/a	0	36	Blank	Neutral	True
350.762	1.45	Control	0.5946	n/a	No	2.686	n/a	5.0	LatePress	0	0.042	349.804	0	36	Feedback	Neutral	True
352.216	2.686	Control	0.5946	n/a	No	2.686	n/a	n/a	LatePress	0	0.0	n/a	0	36	ISIslide	Neutral	True
354.925	0.25	Win2	0.6053000000000001	0.0	Yes	2.875	0.025	n/a	GoodResponse	1	n/a	n/a	1	37	Cue	Win	True
355.175	4.0	Win2	0.6053000000000001	0.0	Yes	2.875	0.0	n/a	GoodResponse	1	n/a	n/a	1	37	Fixation	Win	True
359.171	0.22	Win2	0.6053000000000001	0.004	Yes	2.875	-0.004	4.0	GoodResponse	1	0.194	358.365	1	37	Target	Win	True
359.365	0.3	Win2	0.6053000000000001	0.004	Yes	2.875	-0.004	4.0	GoodResponse	1	0.194	n/a	1	37	ButtonPress	Win	True
359.405	0.48	Win2	0.6053000000000001	n/a	Yes	2.875	n/a	n/a	GoodResponse	1	n/a	n/a	1	37	Blank	Win	True
359.873	1.45	Win2	0.6053000000000001	n/a	Yes	2.875	n/a	5.0	GoodResponse	1	0.004	358.877	1	37	Feedback	Win	True
361.327	2.875	Win2	0.6053000000000001	n/a	Yes	2.875	n/a	n/a	GoodResponse	1	0.0	n/a	1	37	ISIslide	Win	True
364.219	0.25	Lose2	0.6154	0.0	Yes	2.831	0.019	n/a	GoodResponse	0	n/a	n/a	1	38	Cue	AvoidedLoss	True
364.47	3.95	Lose2	0.6154	0.0	Yes	2.831	0.001	n/a	GoodResponse	0	n/a	n/a	1	38	Fixation	AvoidedLoss	True
368.415	0.23	Lose2	0.6154	0.004	Yes	2.831	-0.004	4.0	GoodResponse	0	0.182	367.597	1	38	Target	AvoidedLoss	True
368.597	0.3	Lose2	0.6154	0.004	Yes	2.831	-0.004	4.0	GoodResponse	0	0.182	n/a	1	38	ButtonPress	AvoidedLoss	True
368.649	0.47	Lose2	0.6154	n/a	Yes	2.831	n/a	n/a	GoodResponse	0	n/a	n/a	1	38	Blank	AvoidedLoss	True
369.117	1.45	Lose2	0.6154	n/a	Yes	2.831	n/a	5.0	GoodResponse	0	0.029	368.146	1	38	Feedback	AvoidedLoss	True
370.572	2.831	Lose2	0.6154	n/a	Yes	2.831	n/a	n/a	GoodResponse	0	0.0	n/a	1	38	ISIslide	AvoidedLoss	True
373.413	0.25	Win2	0.6	0.001	No	2.987	0.013	n/a	LatePress	0	n/a	n/a	1	39	Cue	MissedWin	True
373.664	4.1	Win2	0.6	0.0	No	2.987	0.001	n/a	LatePress	0	n/a	n/a	1	39	Fixation	MissedWin	True
377.76	0.24	Win2	0.6	0.003	No	2.987	-0.003	4.0	LatePress	0	0.247	377.007	1	39	Target	MissedWin	True
378.007	0.3	Win2	0.6	0.003	No	2.987	-0.003	4.0	LatePress	0	0.247	n/a	1	39	ButtonPress	MissedWin	True
378.011	0.46	Win2	0.6	n/a	No	2.987	n/a	n/a	LatePress	0	n/a	n/a	1	39	Blank	MissedWin	True
378.462	1.45	Win2	0.6	n/a	No	2.987	n/a	5.0	LatePress	0	0.001	377.463	1	39	Feedback	MissedWin	True
379.916	2.987	Win2	0.6	n/a	No	2.987	n/a	n/a	LatePress	0	0.0	n/a	1	39	ISIslide	MissedWin	True
382.925	0.25	Win2	0.6098	0.0	Yes	2.725	0.025	n/a	GoodResponse	1	n/a	n/a	2	40	Cue	Win	True
383.176	3.95	Win2	0.6098	0.0	Yes	2.725	0.001	n/a	GoodResponse	1	n/a	n/a	2	40	Fixation	Win	True
387.121	0.25	Win2	0.6098	0.004	Yes	2.725	-0.004	4.0	GoodResponse	1	0.18	386.301	2	40	Target	Win	True
387.301	0.3	Win2	0.6098	0.004	Yes	2.725	-0.004	4.0	GoodResponse	1	0.18	n/a	2	40	ButtonPress	Win	True
387.372	0.45	Win2	0.6098	n/a	Yes	2.725	n/a	n/a	GoodResponse	1	n/a	n/a	2	40	Blank	Win	True
387.823	1.45	Win2	0.6098	n/a	Yes	2.725	n/a	5.0	GoodResponse	1	0.006	386.829	2	40	Feedback	Win	True
389.278	2.725	Win2	0.6098	n/a	Yes	2.725	n/a	n/a	GoodResponse	1	0.0	n/a	2	40	ISIslide	Win	True
392.019	0.25	Win2	0.619	0.0	Yes	2.781	0.019	n/a	GoodResponse	1	n/a	n/a	3	41	Cue	Win	True
392.27	3.9	Win2	0.619	0.0	Yes	2.781	0.001	n/a	GoodResponse	1	n/a	n/a	3	41	Fixation	Win	True
396.165	0.26	Win2	0.619	0.004	Yes	2.781	-0.004	4.0	GoodResponse	1	0.214	395.379	3	41	Target	Win	True
396.379	0.3	Win2	0.619	0.004	Yes	2.781	-0.004	4.0	GoodResponse	1	0.214	n/a	3	41	ButtonPress	Win	True
396.432	0.44	Win2	0.619	n/a	Yes	2.781	n/a	n/a	GoodResponse	1	n/a	n/a	3	41	Blank	Win	True
396.867	1.45	Win2	0.619	n/a	Yes	2.781	n/a	5.0	GoodResponse	1	0.035	395.902	3	41	Feedback	Win	True
398.321	2.781	Win2	0.619	n/a	Yes	2.781	n/a	n/a	GoodResponse	1	0.0	n/a	3	41	ISIslide	Win	True
401.113	0.25	Control	0.6279	0.0	Yes	2.937	0.013	n/a	GoodResponse	0	n/a	n/a	3	42	Cue	Neutral	True
401.364	3.85	Control	0.6279	0.0	Yes	2.937	0.001	n/a	GoodResponse	0	n/a	n/a	3	42	Fixation	Neutral	True
405.209	0.27	Control	0.6279	0.004	Yes	2.937	-0.004	4.0	GoodResponse	0	0.208	404.417	3	42	Target	Neutral	True
405.417	0.3	Control	0.6279	0.004	Yes	2.937	-0.004	4.0	GoodResponse	0	0.208	n/a	3	42	ButtonPress	Neutral	True
405.493	0.43	Control	0.6279	n/a	Yes	2.937	n/a	n/a	GoodResponse	0	n/a	n/a	3	42	Blank	Neutral	True
405.911	1.45	Control	0.6279	n/a	Yes	2.937	n/a	5.0	GoodResponse	0	0.015	404.926	3	42	Feedback	Neutral	True
407.365	2.937	Control	0.6279	n/a	Yes	2.937	n/a	n/a	GoodResponse	0	0.0	n/a	3	42	ISIslide	Neutral	True
410.324	0.25	Win2	0.6364	0.0	Yes	3.176	0.024	n/a	GoodResponse	1	n/a	n/a	4	43	Cue	Win	True
410.575	4.0	Win2	0.6364	0.0	Yes	3.176	0.001	n/a	GoodResponse	1	n/a	n/a	4	43	Fixation	Win	True
414.57	0.28	Win2	0.6364	0.004	Yes	3.176	-0.004	4.0	GoodResponse	1	0.203	413.773	4	43	Target	Win	True
414.773	0.3	Win2	0.6364	0.004	Yes	3.176	-0.004	4.0	GoodResponse	1	0.203	n/a	4	43	ButtonPress	Win	True
414.854	0.42	Win2	0.6364	n/a	Yes	3.176	n/a	n/a	GoodResponse	1	n/a	n/a	4	43	Blank	Win	True
415.272	1.45	Win2	0.6364	n/a	Yes	3.176	n/a	5.0	GoodResponse	1	0.02	414.292	4	43	Feedback	Win	True
416.727	3.176	Win2	0.6364	n/a	Yes	3.176	n/a	n/a	GoodResponse	1	0.0	n/a	4	43	ISIslide	Win	True
419.92	0.25	Win2	0.6444	0.0	Yes	2.98	0.02	n/a	GoodResponse	1	n/a	n/a	5	44	Cue	Win	True
420.17	4.0	Win2	0.6444	0.0	Yes	2.98	0.0	n/a	GoodResponse	1	n/a	n/a	5	44	Fixation	Win	True
424.166	0.29	Win2	0.6444	0.004	Yes	2.98	-0.004	4.0	GoodResponse	1	0.216	423.382	5	44	Target	Win	True
424.382	0.3	Win2	0.6444	0.004	Yes	2.98	-0.004	4.0	GoodResponse	1	0.216	n/a	5	44	ButtonPress	Win	True
424.467	0.41	Win2	0.6444	n/a	Yes	2.98	n/a	n/a	GoodResponse	1	n/a	n/a	5	44	Blank	Win	True
424.868	1.45	Win2	0.6444	n/a	Yes	2.98	n/a	5.0	GoodResponse	1	0.033	423.901	5	44	Feedback	Win	True
426.322	2.98	Win2	0.6444	n/a	Yes	2.98	n/a	n/a	GoodResponse	1	0.0	n/a	5	44	ISIslide	Win	True
429.314	0.25	Control	0.6304	0.001	No	2.886	0.014	n/a	NoResponse	0	n/a	n/a	5	45	Cue	Neutral	True
429.565	4.1	Control	0.6304	0.0	No	2.886	0.001	n/a	NoResponse	0	n/a	n/a	5	45	Fixation	Neutral	True
433.661	0.3	Control	0.6304	0.003	No	2.886	-0.003	4.0	NoResponse	0	0.406	433.067	5	45	Target	Neutral	True
433.962	0.4	Control	0.6304	n/a	No	2.886	n/a	n/a	NoResponse	0	n/a	n/a	5	45	Blank	Neutral	True
434.067	0.3	Control	0.6304	0.003	No	2.886	-0.003	4.0	NoResponse	0	0.406	n/a	5	45	ButtonPress	Neutral	True
434.363	1.45	Control	0.6304	n/a	No	2.886	n/a	5.0	NoResponse	0	0.003	433.366	5	45	Feedback	Neutral	True
435.817	2.886	Control	0.6304	n/a	No	2.886	n/a	n/a	NoResponse	0	0.0	n/a	5	45	ISIslide	Neutral	True
438.726	0.25	Lose2	0.6383	0.0	Yes	3.374	0.026	n/a	GoodResponse	0	n/a	n/a	5	46	Cue	AvoidedLoss	True
438.977	4.0	Lose2	0.6383	0.0	Yes	3.374	0.001	n/a	GoodResponse	0	n/a	n/a	5	46	Fixation	AvoidedLoss	True
442.972	0.31	Lose2	0.6383	0.004	Yes	3.374	-0.004	4.0	GoodResponse	0	0.204	442.176	5	46	Target	AvoidedLoss	True
443.176	0.3	Lose2	0.6383	0.004	Yes	3.374	-0.004	4.0	GoodResponse	0	0.204	n/a	5	46	ButtonPress	AvoidedLoss	True
443.29	0.39	Lose2	0.6383	n/a	Yes	3.374	n/a	n/a	GoodResponse	0	n/a	n/a	5	46	Blank	AvoidedLoss	True
443.674	1.45	Lose2	0.6383	n/a	Yes	3.374	n/a	5.0	GoodResponse	0	0.008	442.682	5	46	Feedback	AvoidedLoss	True
445.129	3.374	Lose2	0.6383	n/a	Yes	3.374	n/a	n/a	GoodResponse	0	0.0	n/a	5	46	ISIslide	AvoidedLoss	True
448.522	0.25	Lose2	0.6457999999999999	0.0	Yes	2.678	0.022	n/a	GoodResponse	0	n/a	n/a	5	47	Cue	AvoidedLoss	True
448.773	4.0	Lose2	0.6457999999999999	0.0	Yes	2.678	0.001	n/a	GoodResponse	0	n/a	n/a	5	47	Fixation	AvoidedLoss	True
452.768	0.32	Lose2	0.6457999999999999	0.004	Yes	2.678	-0.004	4.0	GoodResponse	0	0.209	451.977	5	47	Target	AvoidedLoss	True
452.977	0.3	Lose2	0.6457999999999999	0.004	Yes	2.678	-0.004	4.0	GoodResponse	0	0.209	n/a	5	47	ButtonPress	AvoidedLoss	True
453.102	0.38	Lose2	0.6457999999999999	n/a	Yes	2.678	n/a	n/a	GoodResponse	0	n/a	n/a	5	47	Blank	AvoidedLoss	True
453.47	1.45	Lose2	0.6457999999999999	n/a	Yes	2.678	n/a	5.0	GoodResponse	0	0.017	452.487	5	47	Feedback	AvoidedLoss	True
454.925	2.678	Lose2	0.6457999999999999	n/a	Yes	2.678	n/a	n/a	GoodResponse	0	0.0	n/a	5	47	ISIslide	AvoidedLoss	True
457.616	0.25	Lose2	0.6531	0.0	Yes	3.034	0.016	n/a	GoodResponse	0	n/a	n/a	5	48	Cue	AvoidedLoss	True
457.867	3.95	Lose2	0.6531	0.0	Yes	3.034	0.001	n/a	GoodResponse	0	n/a	n/a	5	48	Fixation	AvoidedLoss	True
461.812	0.33	Lose2	0.6531	0.004	Yes	3.034	-0.004	4.0	GoodResponse	0	0.207	461.019	5	48	Target	AvoidedLoss	True
462.019	0.3	Lose2	0.6531	0.004	Yes	3.034	-0.004	4.0	GoodResponse	0	0.207	n/a	5	48	ButtonPress	AvoidedLoss	True
462.146	0.37	Lose2	0.6531	n/a	Yes	3.034	n/a	n/a	GoodResponse	0	n/a	n/a	5	48	Blank	AvoidedLoss	True
462.514	1.45	Lose2	0.6531	n/a	Yes	3.034	n/a	5.0	GoodResponse	0	0.046	461.56	5	48	Feedback	AvoidedLoss	True
463.968	3.034	Lose2	0.6531	n/a	Yes	3.034	n/a	n/a	GoodResponse	0	0.0	n/a	5	48	ISIslide	AvoidedLoss	True
467.028	0.25	Control	0.66	0.0	Yes	2.872	0.028	n/a	GoodResponse	0	n/a	n/a	5	49	Cue	Neutral	True
467.278	4.0	Control	0.66	0.0	Yes	2.872	0.0	n/a	GoodResponse	0	n/a	n/a	5	49	Fixation	Neutral	True
471.274	0.34	Control	0.66	0.004	Yes	2.872	-0.004	4.0	GoodResponse	0	0.209	470.483	5	49	Target	Neutral	True
471.483	0.3	Control	0.66	0.004	Yes	2.872	-0.004	4.0	GoodResponse	0	0.209	n/a	5	49	ButtonPress	Neutral	True
471.625	0.36	Control	0.66	n/a	Yes	2.872	n/a	n/a	GoodResponse	0	n/a	n/a	5	49	Blank	Neutral	True
471.976	1.45	Control	0.66	n/a	Yes	2.872	n/a	5.0	GoodResponse	0	0.048	471.024	5	49	Feedback	Neutral	True
473.43	2.872	Control	0.66	n/a	Yes	2.872	n/a	n/a	GoodResponse	0	0.0	n/a	5	49	ISIslide	Neutral	True
476.322	0.25	Control	0.6667000000000001	0.0	Yes	2.778	0.022	n/a	GoodResponse	0	n/a	n/a	5	50	Cue	Neutral	True
476.573	4.0	Control	0.6667000000000001	0.0	Yes	2.778	0.001	n/a	GoodResponse	0	n/a	n/a	5	50	Fixation	Neutral	True
480.568	0.34	Control	0.6667000000000001	0.004	Yes	2.778	-0.004	4.0	GoodResponse	0	0.283	479.851	5	50	Target	Neutral	True
480.851	0.3	Control	0.6667000000000001	0.004	Yes	2.778	-0.004	4.0	GoodResponse	0	0.283	n/a	5	50	ButtonPress	Neutral	True
480.919	0.36	Control	0.6667000000000001	n/a	Yes	2.778	n/a	n/a	GoodResponse	0	n/a	n/a	5	50	Blank	Neutral	True
481.27	1.45	Control	0.6667000000000001	n/a	Yes	2.778	n/a	5.0	GoodResponse	0	0.022	480.292	5	50	Feedback	Neutral	True
482.725	2.778	Control	0.6667000000000001	n/a	Yes	2.778	n/a	n/a	GoodResponse	0	0.0	n/a	5	50	ISIslide	Neutral	True
485.516	0.25	Control	0.6731	0.0	Yes	2.734	0.016	n/a	GoodResponse	0	n/a	n/a	5	51	Cue	Neutral	True
485.767	3.95	Control	0.6731	0.0	Yes	2.734	0.001	n/a	GoodResponse	0	n/a	n/a	5	51	Fixation	Neutral	True
489.712	0.33	Control	0.6731	0.004	Yes	2.734	-0.004	4.0	GoodResponse	0	0.19	488.902	5	51	Target	Neutral	True
489.902	0.3	Control	0.6731	0.004	Yes	2.734	-0.004	4.0	GoodResponse	0	0.19	n/a	5	51	ButtonPress	Neutral	True
490.047	0.37	Control	0.6731	n/a	Yes	2.734	n/a	n/a	GoodResponse	0	n/a	n/a	5	51	Blank	Neutral	True
490.414	1.45	Control	0.6731	n/a	Yes	2.734	n/a	5.0	GoodResponse	0	0.049	489.463	5	51	Feedback	Neutral	True
491.869	2.734	Control	0.6731	n/a	Yes	2.734	n/a	n/a	GoodResponse	0	0.0	n/a	5	51	ISIslide	Neutral	True
494.627	0.25	Control	0.6792	0.0	Yes	2.623	0.027	n/a	GoodResponse	0	n/a	n/a	5	52	Cue	Neutral	True
494.878	4.05	Control	0.6792	0.0	Yes	2.623	0.001	n/a	GoodResponse	0	n/a	n/a	5	52	Fixation	Neutral	True
498.923	0.32	Control	0.6792	0.004	Yes	2.623	-0.004	4.0	GoodResponse	0	0.247	498.17	5	52	Target	Neutral	True
499.17	0.3	Control	0.6792	0.004	Yes	2.623	-0.004	4.0	GoodResponse	0	0.247	n/a	5	52	ButtonPress	Neutral	True
499.258	0.38	Control	0.6792	n/a	Yes	2.623	n/a	n/a	GoodResponse	0	n/a	n/a	5	52	Blank	Neutral	True
499.625	1.45	Control	0.6792	n/a	Yes	2.623	n/a	5.0	GoodResponse	0	0.008	498.633	5	52	Feedback	Neutral	True
501.08	2.623	Control	0.6792	n/a	Yes	2.623	n/a	n/a	GoodResponse	0	0.0	n/a	5	52	ISIslide	Neutral	True
503.721	0.25	Win2	0.6851999999999999	0.0	Yes	2.929	0.021	n/a	GoodResponse	1	n/a	n/a	6	53	Cue	Win	True
503.972	4.05	Win2	0.6851999999999999	0.0	Yes	2.929	0.001	n/a	GoodResponse	1	n/a	n/a	6	53	Fixation	Win	True
508.017	0.31	Win2	0.6851999999999999	0.004	Yes	2.929	-0.004	4.0	GoodResponse	1	0.194	507.211	6	53	Target	Win	True
508.211	0.3	Win2	0.6851999999999999	0.004	Yes	2.929	-0.004	4.0	GoodResponse	1	0.194	n/a	6	53	ButtonPress	Win	True
508.335	0.39	Win2	0.6851999999999999	n/a	Yes	2.929	n/a	n/a	GoodResponse	1	n/a	n/a	6	53	Blank	Win	True
508.719	1.45	Win2	0.6851999999999999	n/a	Yes	2.929	n/a	5.0	GoodResponse	1	0.036	507.755	6	53	Feedback	Win	True
510.174	2.929	Win2	0.6851999999999999	n/a	Yes	2.929	n/a	n/a	GoodResponse	1	0.0	n/a	6	53	ISIslide	Win	True
513.116	0.25	Win2	0.6909000000000001	0.0	Yes	2.734	0.016	n/a	GoodResponse	1	n/a	n/a	7	54	Cue	Win	True
513.367	3.95	Win2	0.6909000000000001	0.0	Yes	2.734	0.001	n/a	GoodResponse	1	n/a	n/a	7	54	Fixation	Win	True
517.312	0.3	Win2	0.6909000000000001	0.004	Yes	2.734	-0.004	4.0	GoodResponse	1	0.269	516.581	7	54	Target	Win	True
517.581	0.3	Win2	0.6909000000000001	0.004	Yes	2.734	-0.004	4.0	GoodResponse	1	0.269	n/a	7	54	ButtonPress	Win	True
517.613	0.4	Win2	0.6909000000000001	n/a	Yes	2.734	n/a	n/a	GoodResponse	1	n/a	n/a	7	54	Blank	Win	True
518.014	1.45	Win2	0.6909000000000001	n/a	Yes	2.734	n/a	5.0	GoodResponse	1	0.009	517.023	7	54	Feedback	Win	True
519.468	2.734	Win2	0.6909000000000001	n/a	Yes	2.734	n/a	n/a	GoodResponse	1	0.0	n/a	7	54	ISIslide	Win	True
522.226	0.25	Control	0.6964	0.001	Yes	3.024	0.026	n/a	GoodResponse	0	n/a	n/a	7	55	Cue	Neutral	True
522.477	3.95	Control	0.6964	0.0	Yes	3.024	0.001	n/a	GoodResponse	0	n/a	n/a	7	55	Fixation	Neutral	True
526.422	0.29	Control	0.6964	0.004	Yes	3.024	-0.004	4.0	GoodResponse	0	0.198	525.62	7	55	Target	Neutral	True
526.62	0.3	Control	0.6964	0.004	Yes	3.024	-0.004	4.0	GoodResponse	0	0.198	n/a	7	55	ButtonPress	Neutral	True
526.723	0.41	Control	0.6964	n/a	Yes	3.024	n/a	n/a	GoodResponse	0	n/a	n/a	7	55	Blank	Neutral	True
527.125	1.45	Control	0.6964	n/a	Yes	3.024	n/a	5.0	GoodResponse	0	0.02	526.145	7	55	Feedback	Neutral	True
528.579	3.024	Control	0.6964	n/a	Yes	3.024	n/a	n/a	GoodResponse	0	0.0	n/a	7	55	ISIslide	Neutral	True
531.621	0.25	Control	0.6842	0.0	No	2.829	0.021	n/a	NoResponse	0	n/a	n/a	7	56	Cue	Neutral	True
531.872	3.95	Control	0.6842	0.0	No	2.829	0.001	n/a	NoResponse	0	n/a	n/a	7	56	Fixation	Neutral	True
535.817	0.28	Control	0.6842	0.004	No	2.829	-0.004	4.0	NoResponse	0	0.343	535.16	7	56	Target	Neutral	True
536.101	0.42	Control	0.6842	n/a	No	2.829	n/a	n/a	NoResponse	0	n/a	n/a	7	56	Blank	Neutral	True
536.16	0.3	Control	0.6842	0.004	No	2.829	-0.004	4.0	NoResponse	0	0.343	n/a	7	56	ButtonPress	Neutral	True
536.519	1.45	Control	0.6842	n/a	No	2.829	n/a	5.0	NoResponse	0	0.041	535.56	7	56	Feedback	Neutral	True
537.974	2.829	Control	0.6842	n/a	No	2.829	n/a	n/a	NoResponse	0	0.0	n/a	7	56	ISIslide	Neutral	True
540.816	0.25	Control	0.6897	0.0	Yes	3.484	0.016	n/a	GoodResponse	0	n/a	n/a	7	57	Cue	Neutral	True
541.066	4.0	Control	0.6897	0.0	Yes	3.484	0.0	n/a	GoodResponse	0	n/a	n/a	7	57	Fixation	Neutral	True
545.062	0.27	Control	0.6897	0.004	Yes	3.484	-0.004	4.0	GoodResponse	0	0.177	544.239	7	57	Target	Neutral	True
545.239	0.3	Control	0.6897	0.004	Yes	3.484	-0.004	4.0	GoodResponse	0	0.177	n/a	7	57	ButtonPress	Neutral	True
545.346	0.43	Control	0.6897	n/a	Yes	3.484	n/a	n/a	GoodResponse	0	n/a	n/a	7	57	Blank	Neutral	True
545.764	1.45	Control	0.6897	n/a	Yes	3.484	n/a	5.0	GoodResponse	0	0.016	544.78	7	57	Feedback	Neutral	True
547.218	3.484	Control	0.6897	n/a	Yes	3.484	n/a	n/a	GoodResponse	0	0.0	n/a	7	57	ISIslide	Neutral	True
550.729	0.25	Win2	0.6949	0.0	Yes	2.721	0.029	n/a	GoodResponse	1	n/a	n/a	8	58	Cue	Win	True
550.979	4.05	Win2	0.6949	0.0	Yes	2.721	0.0	n/a	GoodResponse	1	n/a	n/a	8	58	Fixation	Win	True
555.025	0.26	Win2	0.6949	0.004	Yes	2.721	-0.004	4.0	GoodResponse	1	0.21	554.235	8	58	Target	Win	True
555.235	0.3	Win2	0.6949	0.004	Yes	2.721	-0.004	4.0	GoodResponse	1	0.21	n/a	8	58	ButtonPress	Win	True
555.292	0.44	Win2	0.6949	n/a	Yes	2.721	n/a	n/a	GoodResponse	1	n/a	n/a	8	58	Blank	Win	True
555.727	1.45	Win2	0.6949	n/a	Yes	2.721	n/a	5.0	GoodResponse	1	0.004	554.731	8	58	Feedback	Win	True
557.181	2.721	Win2	0.6949	n/a	Yes	2.721	n/a	n/a	GoodResponse	1	0.0	n/a	8	58	ISIslide	Win	True
559.923	0.25	Lose2	0.7	0.0	Yes	2.677	0.023	n/a	GoodResponse	0	n/a	n/a	8	59	Cue	AvoidedLoss	True
560.174	4.0	Lose2	0.7	0.0	Yes	2.677	0.001	n/a	GoodResponse	0	n/a	n/a	8	59	Fixation	AvoidedLoss	True
564.169	0.25	Lose2	0.7	0.004	Yes	2.677	-0.004	4.0	GoodResponse	0	0.223	563.392	8	59	Target	AvoidedLoss	True
564.392	0.3	Lose2	0.7	0.004	Yes	2.677	-0.004	4.0	GoodResponse	0	0.223	n/a	8	59	ButtonPress	AvoidedLoss	True
564.42	0.45	Lose2	0.7	n/a	Yes	2.677	n/a	n/a	GoodResponse	0	n/a	n/a	8	59	Blank	AvoidedLoss	True
564.871	1.45	Lose2	0.7	n/a	Yes	2.677	n/a	5.0	GoodResponse	0	0.031	563.902	8	59	Feedback	AvoidedLoss	True
566.325	2.677	Lose2	0.7	n/a	Yes	2.677	n/a	n/a	GoodResponse	0	0.0	n/a	8	59	ISIslide	AvoidedLoss	True
569.017	0.25	Control	0.7049	0.0	Yes	2.683	0.017	n/a	GoodResponse	0	n/a	n/a	8	60	Cue	Neutral	True
569.268	4.0	Control	0.7049	0.0	Yes	2.683	0.001	n/a	GoodResponse	0	n/a	n/a	8	60	Fixation	Neutral	True
573.263	0.24	Control	0.7049	0.004	Yes	2.683	-0.004	4.0	GoodResponse	0	0.214	572.477	8	60	Target	Neutral	True
573.477	0.3	Control	0.7049	0.004	Yes	2.683	-0.004	4.0	GoodResponse	0	0.214	n/a	8	60	ButtonPress	Neutral	True
573.514	0.46	Control	0.7049	n/a	Yes	2.683	n/a	n/a	GoodResponse	0	n/a	n/a	8	60	Blank	Neutral	True
573.965	1.45	Control	0.7049	n/a	Yes	2.683	n/a	5.0	GoodResponse	0	0.009	572.974	8	60	Feedback	Neutral	True
575.419	2.683	Control	0.7049	n/a	Yes	2.683	n/a	n/a	GoodResponse	0	0.0	n/a	8	60	ISIslide	Neutral	True
578.128	0.25	Lose2	0.7097	0.0	Yes	2.972	0.028	n/a	GoodResponse	0	n/a	n/a	8	61	Cue	AvoidedLoss	True
578.378	4.0	Lose2	0.7097	0.0	Yes	2.972	0.0	n/a	GoodResponse	0	n/a	n/a	8	61	Fixation	AvoidedLoss	True
582.374	0.23	Lose2	0.7097	0.004	Yes	2.972	-0.004	4.0	GoodResponse	0	0.218	581.592	8	61	Target	AvoidedLoss	True
582.592	0.3	Lose2	0.7097	0.004	Yes	2.972	-0.004	4.0	GoodResponse	0	0.218	n/a	8	61	ButtonPress	AvoidedLoss	True
582.608	0.47	Lose2	0.7097	n/a	Yes	2.972	n/a	n/a	GoodResponse	0	n/a	n/a	8	61	Blank	AvoidedLoss	True
583.076	1.45	Lose2	0.7097	n/a	Yes	2.972	n/a	5.0	GoodResponse	0	0.02	582.096	8	61	Feedback	AvoidedLoss	True
584.53	2.972	Lose2	0.7097	n/a	Yes	2.972	n/a	n/a	GoodResponse	0	0.0	n/a	8	61	ISIslide	AvoidedLoss	True
587.522	0.25	Lose2	0.6984	0.0	No	2.878	0.022	n/a	NoResponse	-1	n/a	n/a	7	62	Cue	Loss	True
587.773	3.9	Lose2	0.6984	0.0	No	2.878	0.001	n/a	NoResponse	-1	n/a	n/a	7	62	Fixation	Loss	True
591.668	0.22	Lose2	0.6984	0.004	No	2.878	-0.004	4.0	NoResponse	-1	0.28	590.948	7	62	Target	Loss	True
591.902	0.48	Lose2	0.6984	n/a	No	2.878	n/a	n/a	NoResponse	-1	n/a	n/a	7	62	Blank	Loss	True
591.948	0.3	Lose2	0.6984	0.004	No	2.878	-0.004	4.0	NoResponse	-1	0.28	n/a	7	62	ButtonPress	Loss	True
592.37	1.45	Lose2	0.6984	n/a	No	2.878	n/a	5.0	NoResponse	-1	0.043	591.413	7	62	Feedback	Loss	True
593.825	2.878	Lose2	0.6984	n/a	No	2.878	n/a	n/a	NoResponse	-1	0.0	n/a	7	62	ISIslide	Loss	True
596.717	0.25	Lose2	0.7031000000000001	0.0	Yes	2.633	0.017	n/a	GoodResponse	0	n/a	n/a	7	63	Cue	AvoidedLoss	True
596.967	4.05	Lose2	0.7031000000000001	0.0	Yes	2.633	0.0	n/a	GoodResponse	0	n/a	n/a	7	63	Fixation	AvoidedLoss	True
601.013	0.21	Lose2	0.7031000000000001	0.004	Yes	2.633	-0.004	4.0	GoodResponse	0	0.199	600.212	7	63	Target	AvoidedLoss	True
601.212	0.3	Lose2	0.7031000000000001	0.004	Yes	2.633	-0.004	4.0	GoodResponse	0	0.199	n/a	7	63	ButtonPress	AvoidedLoss	True
601.23	0.49	Lose2	0.7031000000000001	n/a	Yes	2.633	n/a	n/a	GoodResponse	0	n/a	n/a	7	63	Blank	AvoidedLoss	True
601.715	1.45	Lose2	0.7031000000000001	n/a	Yes	2.633	n/a	5.0	GoodResponse	0	0.015	600.73	7	63	Feedback	AvoidedLoss	True
603.169	2.633	Lose2	0.7031000000000001	n/a	Yes	2.633	n/a	n/a	GoodResponse	0	0.0	n/a	7	63	ISIslide	AvoidedLoss	True
605.827	0.25	Win2	0.6923	0.0	No	3.123	0.027	n/a	NoResponse	0	n/a	n/a	7	64	Cue	MissedWin	True
606.078	4.15	Win2	0.6923	0.0	No	3.123	0.001	n/a	NoResponse	0	n/a	n/a	7	64	Fixation	MissedWin	True
610.224	0.2	Win2	0.6923	0.003	No	3.123	-0.003	4.0	NoResponse	0	0.215	609.439	7	64	Target	MissedWin	True
610.424	0.5	Win2	0.6923	n/a	No	3.123	n/a	n/a	NoResponse	0	n/a	n/a	7	64	Blank	MissedWin	True
610.439	0.3	Win2	0.6923	0.003	No	3.123	-0.003	4.0	NoResponse	0	0.215	n/a	7	64	ButtonPress	MissedWin	True
610.926	1.45	Win2	0.6923	n/a	No	3.123	n/a	5.0	NoResponse	0	0.024	609.95	7	64	Feedback	MissedWin	True
612.38	3.123	Win2	0.6923	n/a	No	3.123	n/a	n/a	NoResponse	0	0.0	n/a	7	64	ISIslide	MissedWin	True
615.523	0.25	Control	0.6818000000000001	0.0	No	2.777	0.023	n/a	NoResponse	0	n/a	n/a	7	65	Cue	Neutral	True
615.774	4.0	Control	0.6818000000000001	0.0	No	2.777	0.001	n/a	NoResponse	0	n/a	n/a	7	65	Fixation	Neutral	True
619.769	0.19	Control	0.6818000000000001	0.004	No	2.777	-0.004	4.0	NoResponse	0	0.27	619.039	7	65	Target	Neutral	True
619.97	0.51	Control	0.6818000000000001	n/a	No	2.777	n/a	n/a	NoResponse	0	n/a	n/a	7	65	Blank	Neutral	True
620.039	0.3	Control	0.6818000000000001	0.004	No	2.777	-0.004	4.0	NoResponse	0	0.27	n/a	7	65	ButtonPress	Neutral	True
620.471	1.45	Control	0.6818000000000001	n/a	No	2.777	n/a	5.0	NoResponse	0	0.04	619.511	7	65	Feedback	Neutral	True
621.926	2.777	Control	0.6818000000000001	n/a	No	2.777	n/a	n/a	NoResponse	0	0.0	n/a	7	65	ISIslide	Neutral	True
624.717	0.25	Win2	0.6716	0.0	No	2.783	0.017	n/a	NoResponse	0	n/a	n/a	7	66	Cue	MissedWin	True
624.968	3.9	Win2	0.6716	0.0	No	2.783	0.001	n/a	NoResponse	0	n/a	n/a	7	66	Fixation	MissedWin	True
628.863	0.18	Win2	0.6716	0.004	No	2.783	-0.004	4.0	NoResponse	0	0.2	628.063	7	66	Target	MissedWin	True
629.047	0.52	Win2	0.6716	n/a	No	2.783	n/a	n/a	NoResponse	0	n/a	n/a	7	66	Blank	MissedWin	True
629.063	0.3	Win2	0.6716	0.004	No	2.783	-0.004	4.0	NoResponse	0	0.2	n/a	7	66	ButtonPress	MissedWin	True
629.565	1.45	Win2	0.6716	n/a	No	2.783	n/a	5.0	NoResponse	0	0.019	628.584	7	66	Feedback	MissedWin	True
631.02	2.783	Win2	0.6716	n/a	No	2.783	n/a	n/a	NoResponse	0	0.0	n/a	7	66	ISIslide	MissedWin	True
633.828	0.25	Control	0.6618	0.0	No	2.722	0.028	n/a	NoResponse	0	n/a	n/a	7	67	Cue	Neutral	True
634.079	3.95	Control	0.6618	0.0	No	2.722	0.001	n/a	NoResponse	0	n/a	n/a	7	67	Fixation	Neutral	True
638.024	0.17	Control	0.6618	0.004	No	2.722	-0.004	4.0	NoResponse	0	0.245	637.269	7	67	Target	Neutral	True
638.208	0.53	Control	0.6618	n/a	No	2.722	n/a	n/a	NoResponse	0	n/a	n/a	7	67	Blank	Neutral	True
638.269	0.3	Control	0.6618	0.004	No	2.722	-0.004	4.0	NoResponse	0	0.245	n/a	7	67	ButtonPress	Neutral	True
638.726	1.45	Control	0.6618	n/a	No	2.722	n/a	5.0	NoResponse	0	0.029	637.755	7	67	Feedback	Neutral	True
640.18	2.722	Control	0.6618	n/a	No	2.722	n/a	n/a	NoResponse	0	0.0	n/a	7	67	ISIslide	Neutral	True
642.922	0.25	Win2	0.6522	0.0	No	3.078	0.022	n/a	NoResponse	0	n/a	n/a	7	68	Cue	MissedWin	True
643.173	4.0	Win2	0.6522	0.0	No	3.078	0.001	n/a	NoResponse	0	n/a	n/a	7	68	Fixation	MissedWin	True
647.168	0.17	Win2	0.6522	0.004	No	3.078	-0.004	4.0	NoResponse	0	0.191	646.359	7	68	Target	MissedWin	True
647.352	0.53	Win2	0.6522	n/a	No	3.078	n/a	n/a	NoResponse	0	n/a	n/a	7	68	Blank	MissedWin	True
647.359	0.3	Win2	0.6522	0.004	No	3.078	-0.004	4.0	NoResponse	0	0.191	n/a	7	68	ButtonPress	MissedWin	True
647.87	1.45	Win2	0.6522	n/a	No	3.078	n/a	5.0	NoResponse	0	0.006	646.876	7	68	Feedback	MissedWin	True
649.324	3.078	Win2	0.6522	n/a	No	3.078	n/a	n/a	NoResponse	0	0.0	n/a	7	68	ISIslide	MissedWin	True
652.417	0.25	Win2	0.6429	0.0	No	3.233	0.017	n/a	NoResponse	0	n/a	n/a	7	69	Cue	MissedWin	True
652.668	3.95	Win2	0.6429	0.0	No	3.233	0.001	n/a	NoResponse	0	n/a	n/a	7	69	Fixation	MissedWin	True
656.613	0.18	Win2	0.6429	0.004	No	3.233	-0.004	4.0	NoResponse	0	0.223	655.836	7	69	Target	MissedWin	True
656.797	0.52	Win2	0.6429	n/a	No	3.233	n/a	n/a	NoResponse	0	n/a	n/a	7	69	Blank	MissedWin	True
656.836	0.3	Win2	0.6429	0.004	No	3.233	-0.004	4.0	NoResponse	0	0.223	n/a	7	69	ButtonPress	MissedWin	True
657.315	1.45	Win2	0.6429	n/a	No	3.233	n/a	5.0	NoResponse	0	0.025	656.34	7	69	Feedback	MissedWin	True
658.769	3.233	Win2	0.6429	n/a	No	3.233	n/a	n/a	NoResponse	0	0.0	n/a	7	69	ISIslide	MissedWin	True
662.029	0.25	Lose2	0.6338	0.0	No	3.021	0.029	n/a	NoResponse	-1	n/a	n/a	6	70	Cue	Loss	True
662.28	4.05	Lose2	0.6338	0.0	No	3.021	0.001	n/a	NoResponse	-1	n/a	n/a	6	70	Fixation	Loss	True
666.325	0.19	Lose2	0.6338	0.004	No	3.021	-0.004	4.0	NoResponse	-1	0.209	665.534	6	70	Target	Loss	True
666.526	0.51	Lose2	0.6338	n/a	No	3.021	n/a	n/a	NoResponse	-1	n/a	n/a	6	70	Blank	Loss	True
666.534	0.3	Lose2	0.6338	0.004	No	3.021	-0.004	4.0	NoResponse	-1	0.209	n/a	6	70	ButtonPress	Loss	True
667.028	1.45	Lose2	0.6338	n/a	No	3.021	n/a	5.0	NoResponse	-1	0.019	666.047	6	70	Feedback	Loss	True
668.482	3.021	Lose2	0.6338	n/a	No	3.021	n/a	n/a	NoResponse	-1	0.0	n/a	6	70	ISIslide	Loss	True
671.524	0.25	Win2	0.625	0.0	No	2.726	0.024	n/a	NoResponse	0	n/a	n/a	6	71	Cue	MissedWin	True
671.775	4.05	Win2	0.625	0.0	No	2.726	0.001	n/a	NoResponse	0	n/a	n/a	6	71	Fixation	MissedWin	True
675.821	0.2	Win2	0.625	0.003	No	2.726	-0.003	4.0	NoResponse	0	0.213	675.034	6	71	Target	MissedWin	True
676.021	0.5	Win2	0.625	n/a	No	2.726	n/a	n/a	NoResponse	0	n/a	n/a	6	71	Blank	MissedWin	True
676.034	0.3	Win2	0.625	0.003	No	2.726	-0.003	4.0	NoResponse	0	0.213	n/a	6	71	ButtonPress	MissedWin	True
676.523	1.45	Win2	0.625	n/a	No	2.726	n/a	5.0	NoResponse	0	0.037	675.56	6	71	Feedback	MissedWin	True
677.977	2.726	Win2	0.625	n/a	No	2.726	n/a	n/a	NoResponse	0	0.0	n/a	6	71	ISIslide	MissedWin	True
680.719	0.25	Win2	0.6164000000000001	0.0	No	2.781	0.019	n/a	LatePress	0	n/a	n/a	6	72	Cue	MissedWin	True
680.969	4.1	Win2	0.6164000000000001	0.0	No	2.781	0.0	n/a	LatePress	0	n/a	n/a	6	72	Fixation	MissedWin	True
685.065	0.21	Win2	0.6164000000000001	0.004	No	2.781	-0.004	4.0	LatePress	0	0.213	684.278	6	72	Target	MissedWin	True
685.278	0.3	Win2	0.6164000000000001	0.004	No	2.781	-0.004	4.0	LatePress	0	0.213	n/a	6	72	ButtonPress	MissedWin	True
685.282	0.49	Win2	0.6164000000000001	n/a	No	2.781	n/a	n/a	LatePress	0	n/a	n/a	6	72	Blank	MissedWin	True
685.767	1.45	Win2	0.6164000000000001	n/a	No	2.781	n/a	5.0	LatePress	0	0.012	684.779	6	72	Feedback	MissedWin	True
687.221	2.781	Win2	0.6164000000000001	n/a	No	2.781	n/a	n/a	LatePress	0	0.0	n/a	6	72	ISIslide	MissedWin	True
690.03	0.25	Win2	0.6215999999999999	0.0	Yes	2.67	0.03	n/a	GoodResponse	1	n/a	n/a	7	73	Cue	Win	True
690.281	4.0	Win2	0.6215999999999999	0.0	Yes	2.67	0.001	n/a	GoodResponse	1	n/a	n/a	7	73	Fixation	Win	True
694.276	0.22	Win2	0.6215999999999999	0.004	Yes	2.67	-0.004	4.0	GoodResponse	1	0.191	693.467	7	73	Target	Win	True
694.467	0.3	Win2	0.6215999999999999	0.004	Yes	2.67	-0.004	4.0	GoodResponse	1	0.191	n/a	7	73	ButtonPress	Win	True
694.51	0.48	Win2	0.6215999999999999	n/a	Yes	2.67	n/a	n/a	GoodResponse	1	n/a	n/a	7	73	Blank	Win	True
694.978	1.45	Win2	0.6215999999999999	n/a	Yes	2.67	n/a	5.0	GoodResponse	1	0.021	693.999	7	73	Feedback	Win	True
696.432	2.67	Win2	0.6215999999999999	n/a	Yes	2.67	n/a	n/a	GoodResponse	1	0.0	n/a	7	73	ISIslide	Win	True
699.124	0.25	Lose2	0.6267	0.0	Yes	2.626	0.024	n/a	GoodResponse	0	n/a	n/a	7	74	Cue	AvoidedLoss	True
699.375	4.05	Lose2	0.6267	0.0	Yes	2.626	0.001	n/a	GoodResponse	0	n/a	n/a	7	74	Fixation	AvoidedLoss	True
703.42	0.23	Lose2	0.6267	0.004	Yes	2.626	-0.004	4.0	GoodResponse	0	0.189	702.609	7	74	Target	AvoidedLoss	True
703.609	0.3	Lose2	0.6267	0.004	Yes	2.626	-0.004	4.0	GoodResponse	0	0.189	n/a	7	74	ButtonPress	AvoidedLoss	True
703.654	0.47	Lose2	0.6267	n/a	Yes	2.626	n/a	n/a	GoodResponse	0	n/a	n/a	7	74	Blank	AvoidedLoss	True
704.122	1.45	Lose2	0.6267	n/a	Yes	2.626	n/a	5.0	GoodResponse	0	0.048	703.17	7	74	Feedback	AvoidedLoss	True
705.577	2.626	Lose2	0.6267	n/a	Yes	2.626	n/a	n/a	GoodResponse	0	0.0	n/a	7	74	ISIslide	AvoidedLoss	True
708.218	0.25	Lose2	0.6315999999999999	0.0	Yes	2.932	0.018	n/a	GoodResponse	0	n/a	n/a	7	75	Cue	AvoidedLoss	True
708.469	3.95	Lose2	0.6315999999999999	0.0	Yes	2.932	0.001	n/a	GoodResponse	0	n/a	n/a	7	75	Fixation	AvoidedLoss	True
712.414	0.24	Lose2	0.6315999999999999	0.004	Yes	2.932	-0.004	4.0	GoodResponse	0	0.239	711.653	7	75	Target	AvoidedLoss	True
712.653	0.3	Lose2	0.6315999999999999	0.004	Yes	2.932	-0.004	4.0	GoodResponse	0	0.239	n/a	7	75	ButtonPress	AvoidedLoss	True
712.664	0.46	Lose2	0.6315999999999999	n/a	Yes	2.932	n/a	n/a	GoodResponse	0	n/a	n/a	7	75	Blank	AvoidedLoss	True
713.116	1.45	Lose2	0.6315999999999999	n/a	Yes	2.932	n/a	5.0	GoodResponse	0	0.029	712.145	7	75	Feedback	AvoidedLoss	True
714.57	2.932	Lose2	0.6315999999999999	n/a	Yes	2.932	n/a	n/a	GoodResponse	0	0.0	n/a	7	75	ISIslide	AvoidedLoss	True
717.512	0.25	Control	0.6364	0.0	Yes	3.238	0.012	n/a	GoodResponse	0	n/a	n/a	7	76	Cue	Neutral	True
717.763	4.05	Control	0.6364	0.0	Yes	3.238	0.001	n/a	GoodResponse	0	n/a	n/a	7	76	Fixation	Neutral	True
721.809	0.25	Control	0.6364	0.003	Yes	3.238	-0.003	4.0	GoodResponse	0	0.223	721.032	7	76	Target	Neutral	True
722.032	0.3	Control	0.6364	0.003	Yes	3.238	-0.003	4.0	GoodResponse	0	0.223	n/a	7	76	ButtonPress	Neutral	True
722.059	0.45	Control	0.6364	n/a	Yes	3.238	n/a	n/a	GoodResponse	0	n/a	n/a	7	76	Blank	Neutral	True
722.511	1.45	Control	0.6364	n/a	Yes	3.238	n/a	5.0	GoodResponse	0	0.048	721.559	7	76	Feedback	Neutral	True
723.965	3.238	Control	0.6364	n/a	Yes	3.238	n/a	n/a	GoodResponse	0	0.0	n/a	7	76	ISIslide	Neutral	True
727.225	0.25	Lose2	0.6409999999999999	0.0	Yes	2.575	0.025	n/a	GoodResponse	0	n/a	n/a	7	77	Cue	AvoidedLoss	True
727.476	3.95	Lose2	0.6409999999999999	0.0	Yes	2.575	0.001	n/a	GoodResponse	0	n/a	n/a	7	77	Fixation	AvoidedLoss	True
731.421	0.26	Lose2	0.6409999999999999	0.004	Yes	2.575	-0.004	4.0	GoodResponse	0	0.208	730.629	7	77	Target	AvoidedLoss	True
731.629	0.3	Lose2	0.6409999999999999	0.004	Yes	2.575	-0.004	4.0	GoodResponse	0	0.208	n/a	7	77	ButtonPress	AvoidedLoss	True
731.688	0.44	Lose2	0.6409999999999999	n/a	Yes	2.575	n/a	n/a	GoodResponse	0	n/a	n/a	7	77	Blank	AvoidedLoss	True
732.123	1.45	Lose2	0.6409999999999999	n/a	Yes	2.575	n/a	5.0	GoodResponse	0	0.046	731.169	7	77	Feedback	AvoidedLoss	True
733.577	2.575	Lose2	0.6409999999999999	n/a	Yes	2.575	n/a	n/a	GoodResponse	0	0.0	n/a	7	77	ISIslide	AvoidedLoss	True
