onset	duration	cue_type	current_mean_accuracy	duration_error	is_hit	isi_adjusted	onset_delay	response	response_type	reward	rt	rt_time	total_reward	trial_number	trial_phase	trial_type	one_press
11.096	0.25	Control	1.0	0.0	Yes	2.954	-0.004	n/a	GoodResponse	0	n/a	n/a	0	0	Cue	Neutral	True
11.347	3.85	Control	1.0	0.0	Yes	2.954	0.001	n/a	GoodResponse	0	n/a	n/a	0	0	Fixation	Neutral	True
15.192	0.4	Control	1.0	0.004	Yes	2.954	-0.004	4.0	GoodResponse	0	0.339	14.531	0	0	Target	Neutral	True
15.531	0.3	Control	1.0	0.004	Yes	2.954	-0.004	4.0	GoodResponse	0	0.339	n/a	0	0	ButtonPress	Neutral	True
15.593	0.3	Control	1.0	n/a	Yes	2.954	n/a	n/a	GoodResponse	0	n/a	n/a	0	0	Blank	Neutral	True
15.894	1.45	Control	1.0	n/a	Yes	2.954	n/a	5.0	GoodResponse	0	0.033	14.927	0	0	Feedback	Neutral	True
17.348	2.954	Control	1.0	n/a	Yes	2.954	n/a	n/a	GoodResponse	0	0.0	n/a	0	0	ISIslide	Neutral	True
20.324	0.25	Lose2	1.0	0.0	Yes	2.776	0.024	n/a	GoodResponse	0	n/a	n/a	0	1	Cue	AvoidedLoss	True
20.574	4.0	Lose2	1.0	0.0	Yes	2.776	0.0	n/a	GoodResponse	0	n/a	n/a	0	1	Fixation	AvoidedLoss	True
24.57	0.39	Lose2	1.0	0.004	Yes	2.776	-0.004	4.0	GoodResponse	0	0.178	23.748	0	1	Target	AvoidedLoss	True
24.748	0.3	Lose2	1.0	0.004	Yes	2.776	-0.004	4.0	GoodResponse	0	0.178	n/a	0	1	ButtonPress	AvoidedLoss	True
24.971	0.31	Lose2	1.0	n/a	Yes	2.776	n/a	n/a	GoodResponse	0	n/a	n/a	0	1	Blank	AvoidedLoss	True
25.272	1.45	Lose2	1.0	n/a	Yes	2.776	n/a	5.0	GoodResponse	0	0.021	24.293	0	1	Feedback	AvoidedLoss	True
26.726	2.776	Lose2	1.0	n/a	Yes	2.776	n/a	n/a	GoodResponse	0	0.0	n/a	0	1	ISIslide	AvoidedLoss	True
29.518	0.25	Control	1.0	0.0	Yes	2.582	0.018	n/a	GoodResponse	0	n/a	n/a	0	2	Cue	Neutral	True
29.769	4.1	Control	1.0	0.0	Yes	2.582	0.001	n/a	GoodResponse	0	n/a	n/a	0	2	Fixation	Neutral	True
33.864	0.38	Control	1.0	0.004	Yes	2.582	-0.004	4.0	GoodResponse	0	0.172	33.036	0	2	Target	Neutral	True
34.036	0.3	Control	1.0	0.004	Yes	2.582	-0.004	4.0	GoodResponse	0	0.172	n/a	0	2	ButtonPress	Neutral	True
34.249	0.32	Control	1.0	n/a	Yes	2.582	n/a	n/a	GoodResponse	0	n/a	n/a	0	2	Blank	Neutral	True
34.566	1.45	Control	1.0	n/a	Yes	2.582	n/a	5.0	GoodResponse	0	0.043	33.609	0	2	Feedback	Neutral	True
36.021	2.582	Control	1.0	n/a	Yes	2.582	n/a	n/a	GoodResponse	0	0.0	n/a	0	2	ISIslide	Neutral	True
38.628	0.25	Win2	1.0	0.0	Yes	2.822	0.028	n/a	GoodResponse	1	n/a	n/a	1	3	Cue	Win	True
38.879	3.95	Win2	1.0	0.0	Yes	2.822	0.001	n/a	GoodResponse	1	n/a	n/a	1	3	Fixation	Win	True
42.824	0.37	Win2	1.0	0.004	Yes	2.822	-0.004	4.0	GoodResponse	1	0.166	41.99	1	3	Target	Win	True
42.99	0.3	Win2	1.0	0.004	Yes	2.822	-0.004	4.0	GoodResponse	1	0.166	n/a	1	3	ButtonPress	Win	True
43.209	0.33	Win2	1.0	n/a	Yes	2.822	n/a	n/a	GoodResponse	1	n/a	n/a	1	3	Blank	Win	True
43.526	1.45	Win2	1.0	n/a	Yes	2.822	n/a	5.0	GoodResponse	1	0.01	42.536	1	3	Feedback	Win	True
44.981	2.822	Win2	1.0	n/a	Yes	2.822	n/a	n/a	GoodResponse	1	0.0	n/a	1	3	ISIslide	Win	True
47.823	0.25	Win2	1.0	0.0	Yes	3.277	0.023	n/a	GoodResponse	1	n/a	n/a	2	4	Cue	Win	True
48.073	4.0	Win2	1.0	0.0	Yes	3.277	0.0	n/a	GoodResponse	1	n/a	n/a	2	4	Fixation	Win	True
52.069	0.36	Win2	1.0	0.004	Yes	3.277	-0.004	4.0	GoodResponse	1	0.172	51.241	2	4	Target	Win	True
52.241	0.3	Win2	1.0	0.004	Yes	3.277	-0.004	4.0	GoodResponse	1	0.172	n/a	2	4	ButtonPress	Win	True
52.436	0.34	Win2	1.0	n/a	Yes	3.277	n/a	n/a	GoodResponse	1	n/a	n/a	2	4	Blank	Win	True
52.771	1.45	Win2	1.0	n/a	Yes	3.277	n/a	5.0	GoodResponse	1	0.033	51.804	2	4	Feedback	Win	True
54.225	3.277	Win2	1.0	n/a	Yes	3.277	n/a	n/a	GoodResponse	1	0.0	n/a	2	4	ISIslide	Win	True
57.518	0.25	Win2	1.0	0.0	Yes	2.782	0.018	n/a	GoodResponse	1	n/a	n/a	3	5	Cue	Win	True
57.769	4.0	Win2	1.0	0.0	Yes	2.782	0.001	n/a	GoodResponse	1	n/a	n/a	3	5	Fixation	Win	True
61.764	0.35	Win2	1.0	0.004	Yes	2.782	-0.004	4.0	GoodResponse	1	0.172	60.936	3	5	Target	Win	True
61.936	0.3	Win2	1.0	0.004	Yes	2.782	-0.004	4.0	GoodResponse	1	0.172	n/a	3	5	ButtonPress	Win	True
62.115	0.35	Win2	1.0	n/a	Yes	2.782	n/a	n/a	GoodResponse	1	n/a	n/a	3	5	Blank	Win	True
62.467	1.45	Win2	1.0	n/a	Yes	2.782	n/a	5.0	GoodResponse	1	0.045	61.512	3	5	Feedback	Win	True
63.921	2.782	Win2	1.0	n/a	Yes	2.782	n/a	n/a	GoodResponse	1	0.0	n/a	3	5	ISIslide	Win	True
66.729	0.25	Lose2	1.0	0.0	Yes	2.721	0.029	n/a	GoodResponse	0	n/a	n/a	3	6	Cue	AvoidedLoss	True
66.98	3.95	Lose2	1.0	0.0	Yes	2.721	0.001	n/a	GoodResponse	0	n/a	n/a	3	6	Fixation	AvoidedLoss	True
70.925	0.34	Lose2	1.0	0.004	Yes	2.721	-0.004	4.0	GoodResponse	0	0.178	70.103	3	6	Target	AvoidedLoss	True
71.103	0.3	Lose2	1.0	0.004	Yes	2.721	-0.004	4.0	GoodResponse	0	0.178	n/a	3	6	ButtonPress	AvoidedLoss	True
71.276	0.36	Lose2	1.0	n/a	Yes	2.721	n/a	n/a	GoodResponse	0	n/a	n/a	3	6	Blank	AvoidedLoss	True
71.627	1.45	Lose2	1.0	n/a	Yes	2.721	n/a	5.0	GoodResponse	0	0.007	70.634	3	6	Feedback	AvoidedLoss	True
73.082	2.721	Lose2	1.0	n/a	Yes	2.721	n/a	n/a	GoodResponse	0	0.0	n/a	3	6	ISIslide	AvoidedLoss	True
75.823	0.25	Lose2	1.0	0.0	Yes	4.027	0.023	n/a	GoodResponse	0	n/a	n/a	3	7	Cue	AvoidedLoss	True
76.074	4.05	Lose2	1.0	0.0	Yes	4.027	0.001	n/a	GoodResponse	0	n/a	n/a	3	7	Fixation	AvoidedLoss	True
80.119	0.33	Lose2	1.0	0.004	Yes	4.027	-0.004	4.0	GoodResponse	0	0.181	79.3	3	7	Target	AvoidedLoss	True
80.3	0.3	Lose2	1.0	0.004	Yes	4.027	-0.004	4.0	GoodResponse	0	0.181	n/a	3	7	ButtonPress	AvoidedLoss	True
80.454	0.37	Lose2	1.0	n/a	Yes	4.027	n/a	n/a	GoodResponse	0	n/a	n/a	3	7	Blank	AvoidedLoss	True
80.822	1.45	Lose2	1.0	n/a	Yes	4.027	n/a	5.0	GoodResponse	0	0.031	79.853	3	7	Feedback	AvoidedLoss	True
82.276	4.027	Lose2	1.0	n/a	Yes	4.027	n/a	n/a	GoodResponse	0	0.0	n/a	3	7	ISIslide	AvoidedLoss	True
86.321	0.25	Lose2	1.0	0.0	Yes	3.029	0.021	n/a	GoodResponse	0	n/a	n/a	3	8	Cue	AvoidedLoss	True
86.572	3.95	Lose2	1.0	0.0	Yes	3.029	0.001	n/a	GoodResponse	0	n/a	n/a	3	8	Fixation	AvoidedLoss	True
90.517	0.32	Lose2	1.0	0.004	Yes	3.029	-0.004	4.0	GoodResponse	0	0.197	89.714	3	8	Target	AvoidedLoss	True
90.714	0.3	Lose2	1.0	0.004	Yes	3.029	-0.004	4.0	GoodResponse	0	0.197	n/a	3	8	ButtonPress	AvoidedLoss	True
90.852	0.38	Lose2	1.0	n/a	Yes	3.029	n/a	n/a	GoodResponse	0	n/a	n/a	3	8	Blank	AvoidedLoss	True
91.219	1.45	Lose2	1.0	n/a	Yes	3.029	n/a	5.0	GoodResponse	0	0.024	90.243	3	8	Feedback	AvoidedLoss	True
92.674	3.029	Lose2	1.0	n/a	Yes	3.029	n/a	n/a	GoodResponse	0	0.0	n/a	3	8	ISIslide	AvoidedLoss	True
95.716	0.25	Lose2	0.9	0.0	No	3.134	0.016	n/a	NoResponse	-1	n/a	n/a	2	9	Cue	Loss	True
95.967	3.95	Lose2	0.9	0.0	No	3.134	0.001	n/a	NoResponse	-1	n/a	n/a	2	9	Fixation	Loss	True
99.912	0.31	Lose2	0.9	0.004	No	3.134	-0.004	4.0	NoResponse	-1	0.326	99.238	2	9	Target	Loss	True
100.23	0.39	Lose2	0.9	n/a	No	3.134	n/a	n/a	NoResponse	-1	n/a	n/a	2	9	Blank	Loss	True
100.238	0.3	Lose2	0.9	0.004	No	3.134	-0.004	4.0	NoResponse	-1	0.326	n/a	2	9	ButtonPress	Loss	True
100.614	1.45	Lose2	0.9	n/a	No	3.134	n/a	5.0	NoResponse	-1	0.043	99.657	2	9	Feedback	Loss	True
102.069	3.134	Lose2	0.9	n/a	No	3.134	n/a	n/a	NoResponse	-1	0.0	n/a	2	9	ISIslide	Loss	True
105.228	0.25	Control	0.9091	0.0	Yes	3.272	0.028	n/a	GoodResponse	0	n/a	n/a	2	10	Cue	Neutral	True
105.479	4.0	Control	0.9091	0.0	Yes	3.272	0.001	n/a	GoodResponse	0	n/a	n/a	2	10	Fixation	Neutral	True
109.474	0.3	Control	0.9091	0.004	Yes	3.272	-0.004	4.0	GoodResponse	0	0.164	108.638	2	10	Target	Neutral	True
109.638	0.3	Control	0.9091	0.004	Yes	3.272	-0.004	4.0	GoodResponse	0	0.164	n/a	2	10	ButtonPress	Neutral	True
109.775	0.4	Control	0.9091	n/a	Yes	3.272	n/a	n/a	GoodResponse	0	n/a	n/a	2	10	Blank	Neutral	True
110.176	1.45	Control	0.9091	n/a	Yes	3.272	n/a	5.0	GoodResponse	0	0.042	109.218	2	10	Feedback	Neutral	True
111.63	3.272	Control	0.9091	n/a	Yes	3.272	n/a	n/a	GoodResponse	0	0.0	n/a	2	10	ISIslide	Neutral	True
114.924	0.25	Lose2	0.9167000000000001	0.0	Yes	2.726	0.024	n/a	GoodResponse	0	n/a	n/a	2	11	Cue	AvoidedLoss	True
115.174	4.05	Lose2	0.9167000000000001	0.001	Yes	2.726	0.0	n/a	GoodResponse	0	n/a	n/a	2	11	Fixation	AvoidedLoss	True
119.22	0.29	Lose2	0.9167000000000001	0.004	Yes	2.726	-0.004	4.0	GoodResponse	0	0.143	118.363	2	11	Target	AvoidedLoss	True
119.363	0.3	Lose2	0.9167000000000001	0.004	Yes	2.726	-0.004	4.0	GoodResponse	0	0.143	n/a	2	11	ButtonPress	AvoidedLoss	True
119.521	0.41	Lose2	0.9167000000000001	n/a	Yes	2.726	n/a	n/a	GoodResponse	0	n/a	n/a	2	11	Blank	AvoidedLoss	True
119.922	1.45	Lose2	0.9167000000000001	n/a	Yes	2.726	n/a	5.0	GoodResponse	0	0.006	118.928	2	11	Feedback	AvoidedLoss	True
121.376	2.726	Lose2	0.9167000000000001	n/a	Yes	2.726	n/a	n/a	GoodResponse	0	0.0	n/a	2	11	ISIslide	AvoidedLoss	True
124.118	0.25	Control	0.9231	0.0	Yes	2.982	0.018	n/a	GoodResponse	0	n/a	n/a	2	12	Cue	Neutral	True
124.369	3.9	Control	0.9231	0.0	Yes	2.982	0.001	n/a	GoodResponse	0	n/a	n/a	2	12	Fixation	Neutral	True
128.264	0.28	Control	0.9231	0.004	Yes	2.982	-0.004	4.0	GoodResponse	0	0.197	127.461	2	12	Target	Neutral	True
128.461	0.3	Control	0.9231	0.004	Yes	2.982	-0.004	4.0	GoodResponse	0	0.197	n/a	2	12	ButtonPress	Neutral	True
128.548	0.42	Control	0.9231	n/a	Yes	2.982	n/a	n/a	GoodResponse	0	n/a	n/a	2	12	Blank	Neutral	True
128.966	1.45	Control	0.9231	n/a	Yes	2.982	n/a	5.0	GoodResponse	0	0.033	127.999	2	12	Feedback	Neutral	True
130.42	2.982	Control	0.9231	n/a	Yes	2.982	n/a	n/a	GoodResponse	0	0.0	n/a	2	12	ISIslide	Neutral	True
133.429	0.25	Control	0.9286	0.0	Yes	2.771	0.029	n/a	GoodResponse	0	n/a	n/a	2	13	Cue	Neutral	True
133.68	4.0	Control	0.9286	0.0	Yes	2.771	0.001	n/a	GoodResponse	0	n/a	n/a	2	13	Fixation	Neutral	True
137.675	0.27	Control	0.9286	0.004	Yes	2.771	-0.004	4.0	GoodResponse	0	0.199	136.874	2	13	Target	Neutral	True
137.874	0.3	Control	0.9286	0.004	Yes	2.771	-0.004	4.0	GoodResponse	0	0.199	n/a	2	13	ButtonPress	Neutral	True
137.959	0.43	Control	0.9286	n/a	Yes	2.771	n/a	n/a	GoodResponse	0	n/a	n/a	2	13	Blank	Neutral	True
138.377	1.45	Control	0.9286	n/a	Yes	2.771	n/a	5.0	GoodResponse	0	0.037	137.414	2	13	Feedback	Neutral	True
139.832	2.771	Control	0.9286	n/a	Yes	2.771	n/a	n/a	GoodResponse	0	0.0	n/a	2	13	ISIslide	Neutral	True
142.623	0.25	Win2	0.9333	0.0	Yes	2.677	0.023	n/a	GoodResponse	1	n/a	n/a	3	14	Cue	Win	True
142.874	4.1	Win2	0.9333	0.0	Yes	2.677	0.001	n/a	GoodResponse	1	n/a	n/a	3	14	Fixation	Win	True
146.97	0.26	Win2	0.9333	0.003	Yes	2.677	-0.003	4.0	GoodResponse	1	0.182	146.152	3	14	Target	Win	True
147.152	0.3	Win2	0.9333	0.003	Yes	2.677	-0.003	4.0	GoodResponse	1	0.182	n/a	3	14	ButtonPress	Win	True
147.237	0.44	Win2	0.9333	n/a	Yes	2.677	n/a	n/a	GoodResponse	1	n/a	n/a	3	14	Blank	Win	True
147.672	1.45	Win2	0.9333	n/a	Yes	2.677	n/a	5.0	GoodResponse	1	0.009	146.681	3	14	Feedback	Win	True
149.126	2.677	Win2	0.9333	n/a	Yes	2.677	n/a	n/a	GoodResponse	1	0.0	n/a	3	14	ISIslide	Win	True
151.818	0.25	Control	0.9375	0.0	Yes	2.982	0.018	n/a	GoodResponse	0	n/a	n/a	3	15	Cue	Neutral	True
152.068	4.0	Control	0.9375	0.0	Yes	2.982	0.0	n/a	GoodResponse	0	n/a	n/a	3	15	Fixation	Neutral	True
156.064	0.25	Control	0.9375	0.004	Yes	2.982	-0.004	4.0	GoodResponse	0	0.204	155.268	3	15	Target	Neutral	True
156.268	0.3	Control	0.9375	0.004	Yes	2.982	-0.004	4.0	GoodResponse	0	0.204	n/a	3	15	ButtonPress	Neutral	True
156.314	0.45	Control	0.9375	n/a	Yes	2.982	n/a	n/a	GoodResponse	0	n/a	n/a	3	15	Blank	Neutral	True
156.766	1.45	Control	0.9375	n/a	Yes	2.982	n/a	5.0	GoodResponse	0	0.037	155.803	3	15	Feedback	Neutral	True
158.22	2.982	Control	0.9375	n/a	Yes	2.982	n/a	n/a	GoodResponse	0	0.0	n/a	3	15	ISIslide	Neutral	True
161.229	0.25	Win2	0.9412	0.0	Yes	2.871	0.029	n/a	GoodResponse	1	n/a	n/a	4	16	Cue	Win	True
161.48	4.0	Win2	0.9412	0.0	Yes	2.871	0.001	n/a	GoodResponse	1	n/a	n/a	4	16	Fixation	Win	True
165.475	0.24	Win2	0.9412	0.004	Yes	2.871	-0.004	4.0	GoodResponse	1	0.209	164.684	4	16	Target	Win	True
165.684	0.3	Win2	0.9412	0.004	Yes	2.871	-0.004	4.0	GoodResponse	1	0.209	n/a	4	16	ButtonPress	Win	True
165.726	0.46	Win2	0.9412	n/a	Yes	2.871	n/a	n/a	GoodResponse	1	n/a	n/a	4	16	Blank	Win	True
166.177	1.45	Win2	0.9412	n/a	Yes	2.871	n/a	5.0	GoodResponse	1	0.041	165.218	4	16	Feedback	Win	True
167.632	2.871	Win2	0.9412	n/a	Yes	2.871	n/a	n/a	GoodResponse	1	0.0	n/a	4	16	ISIslide	Win	True
170.524	0.25	Lose2	0.8889	0.0	No	2.726	0.024	n/a	NoResponse	-1	n/a	n/a	3	17	Cue	Loss	True
170.774	3.95	Lose2	0.8889	0.0	No	2.726	0.0	4.0	NoResponse	-1	3.93	173.704	3	17	Fixation	Loss	True
174.704	0.3	Lose2	0.8889	0.0	No	2.726	0.0	4.0	NoResponse	-1	3.93	n/a	3	17	ButtonPress	Loss	True
174.72	0.23	Lose2	0.8889	0.004	No	2.726	-0.004	n/a	NoResponse	-1	n/a	n/a	3	17	Target	Loss	True
174.954	0.47	Lose2	0.8889	n/a	No	2.726	n/a	n/a	NoResponse	-1	n/a	n/a	3	17	Blank	Loss	True
175.422	1.45	Lose2	0.8889	n/a	No	2.726	n/a	5.0	NoResponse	-1	0.016	174.438	3	17	Feedback	Loss	True
176.876	2.726	Lose2	0.8889	n/a	No	2.726	n/a	n/a	NoResponse	-1	0.0	n/a	3	17	ISIslide	Loss	True
179.618	0.25	Lose2	0.8946999999999999	0.0	Yes	2.732	0.018	n/a	GoodResponse	0	n/a	n/a	3	18	Cue	AvoidedLoss	True
179.868	4.05	Lose2	0.8946999999999999	0.0	Yes	2.732	0.0	n/a	GoodResponse	0	n/a	n/a	3	18	Fixation	AvoidedLoss	True
183.914	0.22	Lose2	0.8946999999999999	0.004	Yes	2.732	-0.004	4.0	GoodResponse	0	0.187	183.101	3	18	Target	AvoidedLoss	True
184.101	0.3	Lose2	0.8946999999999999	0.004	Yes	2.732	-0.004	4.0	GoodResponse	0	0.187	n/a	3	18	ButtonPress	AvoidedLoss	True
184.148	0.48	Lose2	0.8946999999999999	n/a	Yes	2.732	n/a	n/a	GoodResponse	0	n/a	n/a	3	18	Blank	AvoidedLoss	True
184.616	1.45	Lose2	0.8946999999999999	n/a	Yes	2.732	n/a	5.0	GoodResponse	0	0.041	183.657	3	18	Feedback	AvoidedLoss	True
186.07	2.732	Lose2	0.8946999999999999	n/a	Yes	2.732	n/a	n/a	GoodResponse	0	0.0	n/a	3	18	ISIslide	AvoidedLoss	True
188.828	0.25	Control	0.9	0.001	Yes	2.922	0.028	n/a	GoodResponse	0	n/a	n/a	3	19	Cue	Neutral	True
189.079	3.95	Control	0.9	0.0	Yes	2.922	0.001	n/a	GoodResponse	0	n/a	n/a	3	19	Fixation	Neutral	True
193.024	0.21	Control	0.9	0.004	Yes	2.922	-0.004	4.0	GoodResponse	0	0.181	192.205	3	19	Target	Neutral	True
193.205	0.3	Control	0.9	0.004	Yes	2.922	-0.004	4.0	GoodResponse	0	0.181	n/a	3	19	ButtonPress	Neutral	True
193.242	0.49	Control	0.9	n/a	Yes	2.922	n/a	n/a	GoodResponse	0	n/a	n/a	3	19	Blank	Neutral	True
193.726	1.45	Control	0.9	n/a	Yes	2.922	n/a	5.0	GoodResponse	0	0.006	192.732	3	19	Feedback	Neutral	True
195.181	2.922	Control	0.9	n/a	Yes	2.922	n/a	n/a	GoodResponse	0	0.0	n/a	3	19	ISIslide	Neutral	True
198.123	0.25	Control	0.9048	0.0	Yes	2.627	0.023	n/a	GoodResponse	0	n/a	n/a	3	20	Cue	Neutral	True
198.374	4.05	Control	0.9048	0.0	Yes	2.627	0.001	n/a	GoodResponse	0	n/a	n/a	3	20	Fixation	Neutral	True
202.419	0.2	Control	0.9048	0.004	Yes	2.627	-0.004	4.0	GoodResponse	0	0.186	201.605	3	20	Target	Neutral	True
202.605	0.3	Control	0.9048	0.004	Yes	2.627	-0.004	4.0	GoodResponse	0	0.186	n/a	3	20	ButtonPress	Neutral	True
202.62	0.5	Control	0.9048	n/a	Yes	2.627	n/a	n/a	GoodResponse	0	n/a	n/a	3	20	Blank	Neutral	True
203.121	1.45	Control	0.9048	n/a	Yes	2.627	n/a	5.0	GoodResponse	0	0.024	202.145	3	20	Feedback	Neutral	True
204.576	2.627	Control	0.9048	n/a	Yes	2.627	n/a	n/a	GoodResponse	0	0.0	n/a	3	20	ISIslide	Neutral	True
207.217	0.25	Control	0.9091	0.0	Yes	2.783	0.017	n/a	GoodResponse	0	n/a	n/a	3	21	Cue	Neutral	True
207.468	4.1	Control	0.9091	0.0	Yes	2.783	0.001	n/a	GoodResponse	0	n/a	n/a	3	21	Fixation	Neutral	True
211.563	0.19	Control	0.9091	0.004	Yes	2.783	-0.004	4.0	GoodResponse	0	0.182	210.745	3	21	Target	Neutral	True
211.745	0.3	Control	0.9091	0.004	Yes	2.783	-0.004	4.0	GoodResponse	0	0.182	n/a	3	21	ButtonPress	Neutral	True
211.764	0.51	Control	0.9091	n/a	Yes	2.783	n/a	n/a	GoodResponse	0	n/a	n/a	3	21	Blank	Neutral	True
212.265	1.45	Control	0.9091	n/a	Yes	2.783	n/a	5.0	GoodResponse	0	0.001	211.266	3	21	Feedback	Neutral	True
213.72	2.783	Control	0.9091	n/a	Yes	2.783	n/a	n/a	GoodResponse	0	0.0	n/a	3	21	ISIslide	Neutral	True
216.528	0.25	Control	0.8695999999999999	0.0	No	2.772	0.028	n/a	LatePress	0	n/a	n/a	3	22	Cue	Neutral	True
216.779	4.0	Control	0.8695999999999999	0.0	No	2.772	0.001	n/a	LatePress	0	n/a	n/a	3	22	Fixation	Neutral	True
220.774	0.18	Control	0.8695999999999999	0.004	No	2.772	-0.004	4.0	LatePress	0	0.18	219.954	3	22	Target	Neutral	True
220.954	0.3	Control	0.8695999999999999	0.004	No	2.772	-0.004	4.0	LatePress	0	0.18	n/a	3	22	ButtonPress	Neutral	True
220.958	0.52	Control	0.8695999999999999	n/a	No	2.772	n/a	n/a	LatePress	0	n/a	n/a	3	22	Blank	Neutral	True
221.476	1.45	Control	0.8695999999999999	n/a	No	2.772	n/a	5.0	LatePress	0	0.01	220.486	3	22	Feedback	Neutral	True
222.931	2.772	Control	0.8695999999999999	n/a	No	2.772	n/a	n/a	LatePress	0	0.0	n/a	3	22	ISIslide	Neutral	True
225.722	0.25	Control	0.8332999999999999	0.0	No	2.778	0.022	n/a	LatePress	0	n/a	n/a	3	23	Cue	Neutral	True
225.973	3.9	Control	0.8332999999999999	0.0	No	2.778	0.001	n/a	LatePress	0	n/a	n/a	3	23	Fixation	Neutral	True
229.868	0.17	Control	0.8332999999999999	0.004	No	2.778	-0.004	4.0	LatePress	0	0.183	229.051	3	23	Target	Neutral	True
230.051	0.3	Control	0.8332999999999999	0.004	No	2.778	-0.004	4.0	LatePress	0	0.183	n/a	3	23	ButtonPress	Neutral	True
230.052	0.53	Control	0.8332999999999999	n/a	No	2.778	n/a	n/a	LatePress	0	n/a	n/a	3	23	Blank	Neutral	True
230.57	1.45	Control	0.8332999999999999	n/a	No	2.778	n/a	5.0	LatePress	0	0.038	229.608	3	23	Feedback	Neutral	True
232.025	2.778	Control	0.8332999999999999	n/a	No	2.778	n/a	n/a	LatePress	0	0.0	n/a	3	23	ISIslide	Neutral	True
234.816	0.25	Win2	0.8	0.0	No	3.134	0.016	n/a	NoResponse	0	n/a	n/a	3	24	Cue	MissedWin	True
235.067	3.95	Win2	0.8	0.0	No	3.134	0.001	n/a	NoResponse	0	n/a	n/a	3	24	Fixation	MissedWin	True
239.012	0.16	Win2	0.8	0.004	No	3.134	-0.004	4.0	NoResponse	0	0.179	238.191	3	24	Target	MissedWin	True
239.179	0.54	Win2	0.8	n/a	No	3.134	n/a	n/a	NoResponse	0	n/a	n/a	3	24	Blank	MissedWin	True
239.191	0.3	Win2	0.8	0.004	No	3.134	-0.004	4.0	NoResponse	0	0.179	n/a	3	24	ButtonPress	MissedWin	True
239.714	1.45	Win2	0.8	n/a	No	3.134	n/a	5.0	NoResponse	0	0.016	238.73	3	24	Feedback	MissedWin	True
241.169	3.134	Win2	0.8	n/a	No	3.134	n/a	n/a	NoResponse	0	0.0	n/a	3	24	ISIslide	MissedWin	True
244.328	0.25	Win2	0.7692	0.0	No	3.072	0.028	n/a	PrematurePress	0	n/a	n/a	3	25	Cue	MissedWin	True
244.579	4.0	Win2	0.7692	0.0	No	3.072	0.001	n/a	PrematurePress	0	n/a	n/a	3	25	Fixation	MissedWin	True
248.574	0.15	Win2	0.7692	0.004	No	3.072	-0.004	4.0	PrematurePress	0	0.084	247.658	3	25	Target	MissedWin	True
248.658	0.3	Win2	0.7692	0.004	No	3.072	-0.004	4.0	PrematurePress	0	0.084	n/a	3	25	ButtonPress	MissedWin	True
248.725	0.55	Win2	0.7692	n/a	No	3.072	n/a	n/a	PrematurePress	0	n/a	n/a	3	25	Blank	MissedWin	True
249.276	1.45	Win2	0.7692	n/a	No	3.072	n/a	5.0	PrematurePress	0	0.015	248.291	3	25	Feedback	MissedWin	True
250.731	3.072	Win2	0.7692	n/a	No	3.072	n/a	n/a	PrematurePress	0	0.0	n/a	3	25	ISIslide	MissedWin	True
253.823	0.25	Win2	0.7406999999999999	0.0	No	2.927	0.023	n/a	NoResponse	0	n/a	n/a	3	26	Cue	MissedWin	True
254.074	3.95	Win2	0.7406999999999999	0.0	No	2.927	0.001	n/a	NoResponse	0	n/a	n/a	3	26	Fixation	MissedWin	True
258.019	0.15	Win2	0.7406999999999999	0.004	No	2.927	-0.004	4.0	NoResponse	0	0.184	257.203	3	26	Target	MissedWin	True
258.17	0.55	Win2	0.7406999999999999	n/a	No	2.927	n/a	n/a	NoResponse	0	n/a	n/a	3	26	Blank	MissedWin	True
258.203	0.3	Win2	0.7406999999999999	0.004	No	2.927	-0.004	4.0	NoResponse	0	0.184	n/a	3	26	ButtonPress	MissedWin	True
258.721	1.45	Win2	0.7406999999999999	n/a	No	2.927	n/a	5.0	NoResponse	0	0.034	257.755	3	26	Feedback	MissedWin	True
260.176	2.927	Win2	0.7406999999999999	n/a	No	2.927	n/a	n/a	NoResponse	0	0.0	n/a	3	26	ISIslide	MissedWin	True
263.118	0.25	Lose2	0.7143	0.0	No	2.832	0.018	n/a	NoResponse	-1	n/a	n/a	2	27	Cue	Loss	True
263.368	4.05	Lose2	0.7143	0.001	No	2.832	0.0	n/a	NoResponse	-1	n/a	n/a	2	27	Fixation	Loss	True
267.414	0.15	Lose2	0.7143	0.004	No	2.832	-0.004	4.0	NoResponse	-1	0.177	266.591	2	27	Target	Loss	True
267.564	0.55	Lose2	0.7143	n/a	No	2.832	n/a	n/a	NoResponse	-1	n/a	n/a	2	27	Blank	Loss	True
267.591	0.3	Lose2	0.7143	0.004	No	2.832	-0.004	4.0	NoResponse	-1	0.177	n/a	2	27	ButtonPress	Loss	True
268.116	1.45	Lose2	0.7143	n/a	No	2.832	n/a	5.0	NoResponse	-1	0.005	267.121	2	27	Feedback	Loss	True
269.57	2.832	Lose2	0.7143	n/a	No	2.832	n/a	n/a	NoResponse	-1	0.0	n/a	2	27	ISIslide	Loss	True
272.429	0.25	Control	0.6897	0.0	No	2.821	0.029	n/a	NoResponse	0	n/a	n/a	2	28	Cue	Neutral	True
272.68	4.05	Control	0.6897	0.0	No	2.821	0.001	n/a	NoResponse	0	n/a	n/a	2	28	Fixation	Neutral	True
276.725	0.15	Control	0.6897	0.004	No	2.821	-0.004	4.0	NoResponse	0	0.17	275.895	2	28	Target	Neutral	True
276.876	0.55	Control	0.6897	n/a	No	2.821	n/a	n/a	NoResponse	0	n/a	n/a	2	28	Blank	Neutral	True
276.895	0.3	Control	0.6897	0.004	No	2.821	-0.004	4.0	NoResponse	0	0.17	n/a	2	28	ButtonPress	Neutral	True
277.427	1.45	Control	0.6897	n/a	No	2.821	n/a	5.0	NoResponse	0	0.01	276.437	2	28	Feedback	Neutral	True
278.882	2.821	Control	0.6897	n/a	No	2.821	n/a	n/a	NoResponse	0	0.0	n/a	2	28	ISIslide	Neutral	True
281.723	0.25	Lose2	0.6667000000000001	0.001	No	2.827	0.023	n/a	NoResponse	-1	n/a	n/a	1	29	Cue	Loss	False
281.974	3.95	Lose2	0.6667000000000001	0.0	No	2.827	0.001	4.0	NoResponse	-1	3.864	284.838	1	29	Fixation	Loss	False
285.838	0.3	Lose2	0.6667000000000001	0.0	No	2.827	0.001	4.0	NoResponse	-1	3.864	n/a	1	29	ButtonPress	Loss	False
285.919	0.15	Lose2	0.6667000000000001	0.004	No	2.827	-0.004	4.0	NoResponse	-1	0.37	285.289	1	29	Target	Loss	False
286.07	0.55	Lose2	0.6667000000000001	n/a	No	2.827	n/a	n/a	NoResponse	-1	n/a	n/a	1	29	Blank	Loss	False
286.289	0.3	Lose2	0.6667000000000001	0.004	No	2.827	-0.004	4.0	NoResponse	-1	0.37	n/a	1	29	ButtonPress	Loss	False
286.622	1.45	Lose2	0.6667000000000001	n/a	No	2.827	n/a	5.0	NoResponse	-1	0.034	285.656	1	29	Feedback	Loss	False
288.076	2.827	Lose2	0.6667000000000001	n/a	No	2.827	n/a	n/a	NoResponse	-1	0.0	n/a	1	29	ISIslide	Loss	False
290.918	0.25	Win2	0.6452	0.0	No	2.782	0.018	n/a	NoResponse	0	n/a	n/a	1	30	Cue	MissedWin	True
291.168	3.9	Win2	0.6452	0.001	No	2.782	0.0	n/a	NoResponse	0	n/a	n/a	1	30	Fixation	MissedWin	True
295.063	0.15	Win2	0.6452	0.005	No	2.782	-0.005	4.0	NoResponse	0	0.182	294.245	1	30	Target	MissedWin	True
295.214	0.55	Win2	0.6452	n/a	No	2.782	n/a	n/a	NoResponse	0	n/a	n/a	1	30	Blank	MissedWin	True
295.245	0.3	Win2	0.6452	0.005	No	2.782	-0.005	4.0	NoResponse	0	0.182	n/a	1	30	ButtonPress	MissedWin	True
295.766	1.45	Win2	0.6452	n/a	No	2.782	n/a	5.0	NoResponse	0	0.013	294.779	1	30	Feedback	MissedWin	True
297.22	2.782	Win2	0.6452	n/a	No	2.782	n/a	n/a	NoResponse	0	0.0	n/a	1	30	ISIslide	MissedWin	True
300.028	0.25	Lose2	0.625	0.0	No	2.822	0.028	n/a	NoResponse	-1	n/a	n/a	0	31	Cue	Loss	True
300.279	4.05	Lose2	0.625	0.0	No	2.822	0.001	n/a	NoResponse	-1	n/a	n/a	0	31	Fixation	Loss	True
304.325	0.16	Lose2	0.625	0.003	No	2.822	-0.003	4.0	NoResponse	-1	0.192	303.517	0	31	Target	Loss	True
304.492	0.54	Lose2	0.625	n/a	No	2.822	n/a	n/a	NoResponse	-1	n/a	n/a	0	31	Blank	Loss	True
304.517	0.3	Lose2	0.625	0.003	No	2.822	-0.003	4.0	NoResponse	-1	0.192	n/a	0	31	ButtonPress	Loss	True
305.027	1.45	Lose2	0.625	n/a	No	2.822	n/a	5.0	NoResponse	-1	0.02	304.047	0	31	Feedback	Loss	True
306.481	2.822	Lose2	0.625	n/a	No	2.822	n/a	n/a	NoResponse	-1	0.0	n/a	0	31	ISIslide	Loss	True
309.323	0.25	Lose2	0.6061	0.0	No	2.627	0.023	n/a	LatePress	-1	n/a	n/a	-1	32	Cue	Loss	True
309.574	4.15	Lose2	0.6061	0.0	No	2.627	0.001	n/a	LatePress	-1	n/a	n/a	-1	32	Fixation	Loss	True
313.719	0.17	Lose2	0.6061	0.004	No	2.627	-0.004	4.0	LatePress	-1	0.175	312.894	-1	32	Target	Loss	True
313.894	0.3	Lose2	0.6061	0.004	No	2.627	-0.004	4.0	LatePress	-1	0.175	n/a	-1	32	ButtonPress	Loss	True
313.903	0.53	Lose2	0.6061	n/a	No	2.627	n/a	n/a	LatePress	-1	n/a	n/a	-1	32	Blank	Loss	True
314.421	1.45	Lose2	0.6061	n/a	No	2.627	n/a	5.0	LatePress	-1	0.041	313.462	-1	32	Feedback	Loss	True
315.876	2.627	Lose2	0.6061	n/a	No	2.627	n/a	n/a	LatePress	-1	0.0	n/a	-1	32	ISIslide	Loss	True
318.517	0.25	Win2	0.6175999999999999	0.0	Yes	2.683	0.017	n/a	GoodResponse	1	n/a	n/a	0	33	Cue	Win	True
318.768	4.0	Win2	0.6175999999999999	0.0	Yes	2.683	0.001	n/a	GoodResponse	1	n/a	n/a	0	33	Fixation	Win	True
322.763	0.18	Win2	0.6175999999999999	0.004	Yes	2.683	-0.004	4.0	GoodResponse	1	0.173	321.936	0	33	Target	Win	True
322.936	0.3	Win2	0.6175999999999999	0.004	Yes	2.683	-0.004	4.0	GoodResponse	1	0.173	n/a	0	33	ButtonPress	Win	True
322.947	0.52	Win2	0.6175999999999999	n/a	Yes	2.683	n/a	n/a	GoodResponse	1	n/a	n/a	0	33	Blank	Win	True
323.465	1.45	Win2	0.6175999999999999	n/a	Yes	2.683	n/a	5.0	GoodResponse	1	0.021	322.486	0	33	Feedback	Win	True
324.92	2.683	Win2	0.6175999999999999	n/a	Yes	2.683	n/a	n/a	GoodResponse	1	0.0	n/a	0	33	ISIslide	Win	True
327.628	0.25	Lose2	0.6286	0.0	Yes	2.622	0.028	n/a	GoodResponse	0	n/a	n/a	0	34	Cue	AvoidedLoss	True
327.878	4.05	Lose2	0.6286	0.001	Yes	2.622	0.0	n/a	GoodResponse	0	n/a	n/a	0	34	Fixation	AvoidedLoss	True
331.924	0.19	Lose2	0.6286	0.004	Yes	2.622	-0.004	4.0	GoodResponse	0	0.177	331.101	0	34	Target	AvoidedLoss	True
332.101	0.3	Lose2	0.6286	0.004	Yes	2.622	-0.004	4.0	GoodResponse	0	0.177	n/a	0	34	ButtonPress	AvoidedLoss	True
332.125	0.51	Lose2	0.6286	n/a	Yes	2.622	n/a	n/a	GoodResponse	0	n/a	n/a	0	34	Blank	AvoidedLoss	True
332.626	1.45	Lose2	0.6286	n/a	Yes	2.622	n/a	5.0	GoodResponse	0	0.03	331.656	0	34	Feedback	AvoidedLoss	True
334.08	2.622	Lose2	0.6286	n/a	Yes	2.622	n/a	n/a	GoodResponse	0	0.0	n/a	0	34	ISIslide	AvoidedLoss	True
336.722	0.25	Lose2	0.6389	0.0	Yes	2.678	0.022	n/a	GoodResponse	0	n/a	n/a	0	35	Cue	AvoidedLoss	True
336.972	4.0	Lose2	0.6389	0.0	Yes	2.678	0.0	n/a	GoodResponse	0	n/a	n/a	0	35	Fixation	AvoidedLoss	True
340.968	0.2	Lose2	0.6389	0.004	Yes	2.678	-0.004	4.0	GoodResponse	0	0.169	340.137	0	35	Target	AvoidedLoss	True
341.137	0.3	Lose2	0.6389	0.004	Yes	2.678	-0.004	4.0	GoodResponse	0	0.169	n/a	0	35	ButtonPress	AvoidedLoss	True
341.168	0.5	Lose2	0.6389	n/a	Yes	2.678	n/a	n/a	GoodResponse	0	n/a	n/a	0	35	Blank	AvoidedLoss	True
341.67	1.45	Lose2	0.6389	n/a	Yes	2.678	n/a	5.0	GoodResponse	0	0.01	340.68	0	35	Feedback	AvoidedLoss	True
343.124	2.678	Lose2	0.6389	n/a	Yes	2.678	n/a	n/a	GoodResponse	0	0.0	n/a	0	35	ISIslide	AvoidedLoss	True
345.816	0.25	Control	0.6486	0.0	Yes	2.684	0.016	n/a	GoodResponse	0	n/a	n/a	0	36	Cue	Neutral	True
346.066	4.0	Control	0.6486	0.0	Yes	2.684	0.0	n/a	GoodResponse	0	n/a	n/a	0	36	Fixation	Neutral	True
350.062	0.21	Control	0.6486	0.004	Yes	2.684	-0.004	4.0	GoodResponse	0	0.17	349.232	0	36	Target	Neutral	True
350.232	0.3	Control	0.6486	0.004	Yes	2.684	-0.004	4.0	GoodResponse	0	0.17	n/a	0	36	ButtonPress	Neutral	True
350.279	0.49	Control	0.6486	n/a	Yes	2.684	n/a	n/a	GoodResponse	0	n/a	n/a	0	36	Blank	Neutral	True
350.764	1.45	Control	0.6486	n/a	Yes	2.684	n/a	5.0	GoodResponse	0	0.039	349.803	0	36	Feedback	Neutral	True
352.218	2.684	Control	0.6486	n/a	Yes	2.684	n/a	n/a	GoodResponse	0	0.0	n/a	0	36	ISIslide	Neutral	True
354.926	0.25	Win2	0.6579	0.0	Yes	2.874	0.026	n/a	GoodResponse	1	n/a	n/a	1	37	Cue	Win	True
355.177	4.0	Win2	0.6579	0.0	Yes	2.874	0.001	n/a	GoodResponse	1	n/a	n/a	1	37	Fixation	Win	True
359.172	0.22	Win2	0.6579	0.004	Yes	2.874	-0.004	4.0	GoodResponse	1	0.186	358.358	1	37	Target	Win	True
359.358	0.3	Win2	0.6579	0.004	Yes	2.874	-0.004	4.0	GoodResponse	1	0.186	n/a	1	37	ButtonPress	Win	True
359.406	0.48	Win2	0.6579	n/a	Yes	2.874	n/a	n/a	GoodResponse	1	n/a	n/a	1	37	Blank	Win	True
359.874	1.45	Win2	0.6579	n/a	Yes	2.874	n/a	5.0	GoodResponse	1	0.002	358.876	1	37	Feedback	Win	True
361.329	2.874	Win2	0.6579	n/a	Yes	2.874	n/a	n/a	GoodResponse	1	0.0	n/a	1	37	ISIslide	Win	True
364.221	0.25	Lose2	0.6409999999999999	0.0	No	2.829	0.021	n/a	NoResponse	-1	n/a	n/a	0	38	Cue	Loss	False
364.471	3.95	Lose2	0.6409999999999999	0.001	No	2.829	0.0	4.0	NoResponse	-1	3.895	367.366	0	38	Fixation	Loss	False
368.366	0.3	Lose2	0.6409999999999999	0.001	No	2.829	0.0	4.0	NoResponse	-1	3.895	n/a	0	38	ButtonPress	Loss	False
368.417	0.22	Lose2	0.6409999999999999	0.004	No	2.829	-0.004	4.0	NoResponse	-1	0.309	367.726	0	38	Target	Loss	False
368.651	0.48	Lose2	0.6409999999999999	n/a	No	2.829	n/a	n/a	NoResponse	-1	n/a	n/a	0	38	Blank	Loss	False
368.726	0.3	Lose2	0.6409999999999999	0.004	No	2.829	-0.004	4.0	NoResponse	-1	0.309	n/a	0	38	ButtonPress	Loss	False
369.119	1.45	Lose2	0.6409999999999999	n/a	No	2.829	n/a	5.0	NoResponse	-1	0.025	368.144	0	38	Feedback	Loss	False
370.573	2.829	Lose2	0.6409999999999999	n/a	No	2.829	n/a	n/a	NoResponse	-1	0.0	n/a	0	38	ISIslide	Loss	False
373.415	0.25	Win2	0.65	0.0	Yes	2.985	0.015	n/a	GoodResponse	1	n/a	n/a	1	39	Cue	Win	False
373.666	4.1	Win2	0.65	0.0	Yes	2.985	0.001	4.0	GoodResponse	1	4.014	376.68	1	39	Fixation	Win	False
377.68	0.3	Win2	0.65	0.0	Yes	2.985	0.001	4.0	GoodResponse	1	4.014	n/a	1	39	ButtonPress	Win	False
377.761	0.23	Win2	0.65	0.004	Yes	2.985	-0.004	4.0	GoodResponse	1	0.139	376.9	1	39	Target	Win	False
377.9	0.3	Win2	0.65	0.004	Yes	2.985	-0.004	4.0	GoodResponse	1	0.139	n/a	1	39	ButtonPress	Win	False
377.995	0.47	Win2	0.65	n/a	Yes	2.985	n/a	n/a	GoodResponse	1	n/a	n/a	1	39	Blank	Win	False
378.463	1.45	Win2	0.65	n/a	Yes	2.985	n/a	5.0	GoodResponse	1	0.047	377.51	1	39	Feedback	Win	False
379.918	2.985	Win2	0.65	n/a	Yes	2.985	n/a	n/a	GoodResponse	1	0.0	n/a	1	39	ISIslide	Win	False
382.927	0.25	Win2	0.6585	0.0	Yes	2.723	0.027	n/a	GoodResponse	1	n/a	n/a	2	40	Cue	Win	True
383.177	3.95	Win2	0.6585	0.001	Yes	2.723	0.0	n/a	GoodResponse	1	n/a	n/a	2	40	Fixation	Win	True
387.123	0.24	Win2	0.6585	0.004	Yes	2.723	-0.004	4.0	GoodResponse	1	0.169	386.292	2	40	Target	Win	True
387.292	0.3	Win2	0.6585	0.004	Yes	2.723	-0.004	4.0	GoodResponse	1	0.169	n/a	2	40	ButtonPress	Win	True
387.373	0.46	Win2	0.6585	n/a	Yes	2.723	n/a	n/a	GoodResponse	1	n/a	n/a	2	40	Blank	Win	True
387.825	1.45	Win2	0.6585	n/a	Yes	2.723	n/a	5.0	GoodResponse	1	0.001	386.826	2	40	Feedback	Win	True
389.279	2.723	Win2	0.6585	n/a	Yes	2.723	n/a	n/a	GoodResponse	1	0.0	n/a	2	40	ISIslide	Win	True
392.021	0.25	Win2	0.6667000000000001	0.0	Yes	2.779	0.021	n/a	GoodResponse	1	n/a	n/a	3	41	Cue	Win	True
392.271	3.9	Win2	0.6667000000000001	0.0	Yes	2.779	0.0	n/a	GoodResponse	1	n/a	n/a	3	41	Fixation	Win	True
396.183	0.24	Win2	0.6667000000000001	0.0	Yes	2.779	0.012	4.0	GoodResponse	1	0.158	395.341	3	41	Target	Win	True
396.341	0.3	Win2	0.6667000000000001	0.0	Yes	2.779	0.012	4.0	GoodResponse	1	0.158	n/a	3	41	ButtonPress	Win	True
396.417	0.46	Win2	0.6667000000000001	n/a	Yes	2.779	n/a	n/a	GoodResponse	1	n/a	n/a	3	41	Blank	Win	True
396.869	1.45	Win2	0.6667000000000001	n/a	Yes	2.779	n/a	5.0	GoodResponse	1	0.031	395.9	3	41	Feedback	Win	True
398.323	2.779	Win2	0.6667000000000001	n/a	Yes	2.779	n/a	n/a	GoodResponse	1	0.0	n/a	3	41	ISIslide	Win	True
401.115	0.25	Control	0.6744	0.0	Yes	2.935	0.015	n/a	GoodResponse	0	n/a	n/a	3	42	Cue	Neutral	True
401.365	3.85	Control	0.6744	0.0	Yes	2.935	0.0	n/a	GoodResponse	0	n/a	n/a	3	42	Fixation	Neutral	True
405.227	0.23	Control	0.6744	0.0	Yes	2.935	0.012	4.0	GoodResponse	0	0.199	404.426	3	42	Target	Neutral	True
405.426	0.3	Control	0.6744	0.0	Yes	2.935	0.012	4.0	GoodResponse	0	0.199	n/a	3	42	ButtonPress	Neutral	True
405.444	0.47	Control	0.6744	n/a	Yes	2.935	n/a	n/a	GoodResponse	0	n/a	n/a	3	42	Blank	Neutral	True
405.912	1.45	Control	0.6744	n/a	Yes	2.935	n/a	5.0	GoodResponse	0	0.012	404.924	3	42	Feedback	Neutral	True
407.367	2.935	Control	0.6744	n/a	Yes	2.935	n/a	n/a	GoodResponse	0	0.0	n/a	3	42	ISIslide	Neutral	True
410.326	0.25	Win2	0.6818000000000001	0.0	Yes	3.174	0.026	n/a	GoodResponse	1	n/a	n/a	4	43	Cue	Win	True
410.576	4.0	Win2	0.6818000000000001	0.0	Yes	3.174	0.0	n/a	GoodResponse	1	n/a	n/a	4	43	Fixation	Win	True
414.572	0.22	Win2	0.6818000000000001	0.004	Yes	3.174	-0.004	4.0	GoodResponse	1	0.155	413.727	4	43	Target	Win	True
414.727	0.3	Win2	0.6818000000000001	0.004	Yes	3.174	-0.004	4.0	GoodResponse	1	0.155	n/a	4	43	ButtonPress	Win	True
414.806	0.48	Win2	0.6818000000000001	n/a	Yes	3.174	n/a	n/a	GoodResponse	1	n/a	n/a	4	43	Blank	Win	True
415.274	1.45	Win2	0.6818000000000001	n/a	Yes	3.174	n/a	5.0	GoodResponse	1	0.016	414.29	4	43	Feedback	Win	True
416.728	3.174	Win2	0.6818000000000001	n/a	Yes	3.174	n/a	n/a	GoodResponse	1	0.0	n/a	4	43	ISIslide	Win	True
419.921	0.25	Win2	0.6889	0.0	Yes	2.979	0.021	n/a	GoodResponse	1	n/a	n/a	5	44	Cue	Win	True
420.172	4.0	Win2	0.6889	0.0	Yes	2.979	0.001	n/a	GoodResponse	1	n/a	n/a	5	44	Fixation	Win	True
424.167	0.21	Win2	0.6889	0.004	Yes	2.979	-0.004	4.0	GoodResponse	1	0.172	423.339	5	44	Target	Win	True
424.339	0.3	Win2	0.6889	0.004	Yes	2.979	-0.004	4.0	GoodResponse	1	0.172	n/a	5	44	ButtonPress	Win	True
424.384	0.49	Win2	0.6889	n/a	Yes	2.979	n/a	n/a	GoodResponse	1	n/a	n/a	5	44	Blank	Win	True
424.869	1.45	Win2	0.6889	n/a	Yes	2.979	n/a	5.0	GoodResponse	1	0.031	423.9	5	44	Feedback	Win	True
426.323	2.979	Win2	0.6889	n/a	Yes	2.979	n/a	n/a	GoodResponse	1	0.0	n/a	5	44	ISIslide	Win	True
429.316	0.25	Control	0.6739	0.0	No	2.884	0.016	n/a	NoResponse	0	n/a	n/a	5	45	Cue	Neutral	True
429.566	4.1	Control	0.6739	0.001	No	2.884	0.0	n/a	NoResponse	0	n/a	n/a	5	45	Fixation	Neutral	True
433.662	0.2	Control	0.6739	0.004	No	2.884	-0.004	4.0	NoResponse	0	0.221	432.883	5	45	Target	Neutral	True
433.863	0.5	Control	0.6739	n/a	No	2.884	n/a	n/a	NoResponse	0	n/a	n/a	5	45	Blank	Neutral	True
433.883	0.3	Control	0.6739	0.004	No	2.884	-0.004	4.0	NoResponse	0	0.221	n/a	5	45	ButtonPress	Neutral	True
434.364	1.45	Control	0.6739	n/a	No	2.884	n/a	5.0	NoResponse	0	0.048	433.412	5	45	Feedback	Neutral	True
435.819	2.884	Control	0.6739	n/a	No	2.884	n/a	n/a	NoResponse	0	0.0	n/a	5	45	ISIslide	Neutral	True
438.727	0.25	Lose2	0.6809000000000001	0.0	Yes	3.373	0.027	n/a	GoodResponse	0	n/a	n/a	5	46	Cue	AvoidedLoss	True
438.978	4.0	Lose2	0.6809000000000001	0.0	Yes	3.373	0.001	n/a	GoodResponse	0	n/a	n/a	5	46	Fixation	AvoidedLoss	True
442.973	0.19	Lose2	0.6809000000000001	0.004	Yes	3.373	-0.004	4.0	GoodResponse	0	0.179	442.152	5	46	Target	AvoidedLoss	True
443.152	0.3	Lose2	0.6809000000000001	0.004	Yes	3.373	-0.004	4.0	GoodResponse	0	0.179	n/a	5	46	ButtonPress	AvoidedLoss	True
443.174	0.51	Lose2	0.6809000000000001	n/a	Yes	3.373	n/a	n/a	GoodResponse	0	n/a	n/a	5	46	Blank	AvoidedLoss	True
443.675	1.45	Lose2	0.6809000000000001	n/a	Yes	3.373	n/a	5.0	GoodResponse	0	0.006	442.681	5	46	Feedback	AvoidedLoss	True
445.13	3.373	Lose2	0.6809000000000001	n/a	Yes	3.373	n/a	n/a	GoodResponse	0	0.0	n/a	5	46	ISIslide	AvoidedLoss	True
448.523	0.25	Lose2	0.6667000000000001	0.0	No	2.677	0.023	n/a	NoResponse	-1	n/a	n/a	4	47	Cue	Loss	True
448.774	4.0	Lose2	0.6667000000000001	0.0	No	2.677	0.001	n/a	NoResponse	-1	n/a	n/a	4	47	Fixation	Loss	True
452.769	0.18	Lose2	0.6667000000000001	0.004	No	2.677	-0.004	4.0	NoResponse	-1	0.201	451.97	4	47	Target	Loss	True
452.953	0.52	Lose2	0.6667000000000001	n/a	No	2.677	n/a	n/a	NoResponse	-1	n/a	n/a	4	47	Blank	Loss	True
452.97	0.3	Lose2	0.6667000000000001	0.004	No	2.677	-0.004	4.0	NoResponse	-1	0.201	n/a	4	47	ButtonPress	Loss	True
453.471	1.45	Lose2	0.6667000000000001	n/a	No	2.677	n/a	5.0	NoResponse	-1	0.014	452.485	4	47	Feedback	Loss	True
454.926	2.677	Lose2	0.6667000000000001	n/a	No	2.677	n/a	n/a	NoResponse	-1	0.0	n/a	4	47	ISIslide	Loss	True
457.617	0.25	Lose2	0.6531	0.0	No	3.033	0.017	n/a	LatePress	-1	n/a	n/a	3	48	Cue	Loss	True
457.868	3.95	Lose2	0.6531	0.0	No	3.033	0.001	n/a	LatePress	-1	n/a	n/a	3	48	Fixation	Loss	True
461.813	0.17	Lose2	0.6531	0.004	No	3.033	-0.004	4.0	LatePress	-1	0.179	460.992	3	48	Target	Loss	True
461.992	0.3	Lose2	0.6531	0.004	No	3.033	-0.004	4.0	LatePress	-1	0.179	n/a	3	48	ButtonPress	Loss	True
461.997	0.53	Lose2	0.6531	n/a	No	3.033	n/a	n/a	LatePress	-1	n/a	n/a	3	48	Blank	Loss	True
462.515	1.45	Lose2	0.6531	n/a	No	3.033	n/a	5.0	LatePress	-1	0.043	461.558	3	48	Feedback	Loss	True
463.97	3.033	Lose2	0.6531	n/a	No	3.033	n/a	n/a	LatePress	-1	0.0	n/a	3	48	ISIslide	Loss	True
467.029	0.25	Control	0.66	0.0	Yes	2.871	0.029	n/a	GoodResponse	0	n/a	n/a	3	49	Cue	Neutral	True
467.279	4.0	Control	0.66	0.001	Yes	2.871	0.0	n/a	GoodResponse	0	n/a	n/a	3	49	Fixation	Neutral	True
471.275	0.18	Control	0.66	0.004	Yes	2.871	-0.004	4.0	GoodResponse	0	0.173	470.448	3	49	Target	Neutral	True
471.448	0.3	Control	0.66	0.004	Yes	2.871	-0.004	4.0	GoodResponse	0	0.173	n/a	3	49	ButtonPress	Neutral	True
471.459	0.52	Control	0.66	n/a	Yes	2.871	n/a	n/a	GoodResponse	0	n/a	n/a	3	49	Blank	Neutral	True
471.977	1.45	Control	0.66	n/a	Yes	2.871	n/a	5.0	GoodResponse	0	0.044	471.021	3	49	Feedback	Neutral	True
473.431	2.871	Control	0.66	n/a	Yes	2.871	n/a	n/a	GoodResponse	0	0.0	n/a	3	49	ISIslide	Neutral	True
476.323	0.25	Control	0.6667000000000001	0.0	Yes	2.777	0.023	n/a	GoodResponse	0	n/a	n/a	3	50	Cue	Neutral	True
476.574	4.0	Control	0.6667000000000001	0.0	Yes	2.777	0.001	n/a	GoodResponse	0	n/a	n/a	3	50	Fixation	Neutral	True
480.569	0.18	Control	0.6667000000000001	0.004	Yes	2.777	-0.004	4.0	GoodResponse	0	0.178	479.747	3	50	Target	Neutral	True
480.747	0.3	Control	0.6667000000000001	0.004	Yes	2.777	-0.004	4.0	GoodResponse	0	0.178	n/a	3	50	ButtonPress	Neutral	True
480.753	0.52	Control	0.6667000000000001	n/a	Yes	2.777	n/a	n/a	GoodResponse	0	n/a	n/a	3	50	Blank	Neutral	True
481.271	1.45	Control	0.6667000000000001	n/a	Yes	2.777	n/a	5.0	GoodResponse	0	0.019	480.29	3	50	Feedback	Neutral	True
482.726	2.777	Control	0.6667000000000001	n/a	Yes	2.777	n/a	n/a	GoodResponse	0	0.0	n/a	3	50	ISIslide	Neutral	True
485.517	0.25	Control	0.6537999999999999	0.001	No	2.733	0.017	n/a	NoResponse	0	n/a	n/a	3	51	Cue	Neutral	False
485.768	3.95	Control	0.6537999999999999	0.0	No	2.733	0.001	4.0	NoResponse	0	3.878	488.646	3	51	Fixation	Neutral	False
489.646	0.3	Control	0.6537999999999999	0.0	No	2.733	0.001	4.0	NoResponse	0	3.878	n/a	3	51	ButtonPress	Neutral	False
489.713	0.17	Control	0.6537999999999999	0.004	No	2.733	-0.004	4.0	NoResponse	0	0.213	488.926	3	51	Target	Neutral	False
489.897	0.53	Control	0.6537999999999999	n/a	No	2.733	n/a	n/a	NoResponse	0	n/a	n/a	3	51	Blank	Neutral	False
489.926	0.3	Control	0.6537999999999999	0.004	No	2.733	-0.004	4.0	NoResponse	0	0.213	n/a	3	51	ButtonPress	Neutral	False
490.415	1.45	Control	0.6537999999999999	n/a	No	2.733	n/a	5.0	NoResponse	0	0.046	489.461	3	51	Feedback	Neutral	False
491.87	2.733	Control	0.6537999999999999	n/a	No	2.733	n/a	n/a	NoResponse	0	0.0	n/a	3	51	ISIslide	Neutral	False
494.628	0.25	Control	0.6415000000000001	0.0	No	2.622	0.028	n/a	NoResponse	0	n/a	n/a	3	52	Cue	Neutral	True
494.879	4.05	Control	0.6415000000000001	0.0	No	2.622	0.001	n/a	NoResponse	0	n/a	n/a	3	52	Fixation	Neutral	True
498.924	0.18	Control	0.6415000000000001	0.004	No	2.622	-0.004	4.0	NoResponse	0	0.202	498.126	3	52	Target	Neutral	True
499.108	0.52	Control	0.6415000000000001	n/a	No	2.622	n/a	n/a	NoResponse	0	n/a	n/a	3	52	Blank	Neutral	True
499.126	0.3	Control	0.6415000000000001	0.004	No	2.622	-0.004	4.0	NoResponse	0	0.202	n/a	3	52	ButtonPress	Neutral	True
499.626	1.45	Control	0.6415000000000001	n/a	No	2.622	n/a	5.0	NoResponse	0	0.005	498.631	3	52	Feedback	Neutral	True
501.081	2.622	Control	0.6415000000000001	n/a	No	2.622	n/a	n/a	NoResponse	0	0.0	n/a	3	52	ISIslide	Neutral	True
503.722	0.25	Win2	0.6481	0.0	Yes	2.928	0.022	n/a	GoodResponse	1	n/a	n/a	4	53	Cue	Win	True
503.973	4.05	Win2	0.6481	0.0	Yes	2.928	0.001	n/a	GoodResponse	1	n/a	n/a	4	53	Fixation	Win	True
508.018	0.19	Win2	0.6481	0.004	Yes	2.928	-0.004	4.0	GoodResponse	1	0.167	507.185	4	53	Target	Win	True
508.185	0.3	Win2	0.6481	0.004	Yes	2.928	-0.004	4.0	GoodResponse	1	0.167	n/a	4	53	ButtonPress	Win	True
508.219	0.51	Win2	0.6481	n/a	Yes	2.928	n/a	n/a	GoodResponse	1	n/a	n/a	4	53	Blank	Win	True
508.72	1.45	Win2	0.6481	n/a	Yes	2.928	n/a	5.0	GoodResponse	1	0.033	507.753	4	53	Feedback	Win	True
510.175	2.928	Win2	0.6481	n/a	Yes	2.928	n/a	n/a	GoodResponse	1	0.0	n/a	4	53	ISIslide	Win	True
513.117	0.25	Win2	0.6545000000000001	0.0	Yes	2.733	0.017	n/a	GoodResponse	1	n/a	n/a	5	54	Cue	Win	True
513.368	3.95	Win2	0.6545000000000001	0.0	Yes	2.733	0.001	n/a	GoodResponse	1	n/a	n/a	5	54	Fixation	Win	True
517.313	0.2	Win2	0.6545000000000001	0.004	Yes	2.733	-0.004	4.0	GoodResponse	1	0.197	516.51	5	54	Target	Win	True
517.51	0.3	Win2	0.6545000000000001	0.004	Yes	2.733	-0.004	4.0	GoodResponse	1	0.197	n/a	5	54	ButtonPress	Win	True
517.513	0.5	Win2	0.6545000000000001	n/a	Yes	2.733	n/a	n/a	GoodResponse	1	n/a	n/a	5	54	Blank	Win	True
518.015	1.45	Win2	0.6545000000000001	n/a	Yes	2.733	n/a	5.0	GoodResponse	1	0.006	517.021	5	54	Feedback	Win	True
519.469	2.733	Win2	0.6545000000000001	n/a	Yes	2.733	n/a	n/a	GoodResponse	1	0.0	n/a	5	54	ISIslide	Win	True
522.227	0.25	Control	0.6607	0.001	Yes	3.023	0.027	n/a	GoodResponse	0	n/a	n/a	5	55	Cue	Neutral	True
522.478	3.95	Control	0.6607	0.0	Yes	3.023	0.001	n/a	GoodResponse	0	n/a	n/a	5	55	Fixation	Neutral	True
526.423	0.21	Control	0.6607	0.004	Yes	3.023	-0.004	4.0	GoodResponse	0	0.174	525.597	5	55	Target	Neutral	True
526.597	0.3	Control	0.6607	0.004	Yes	3.023	-0.004	4.0	GoodResponse	0	0.174	n/a	5	55	ButtonPress	Neutral	True
526.641	0.49	Control	0.6607	n/a	Yes	3.023	n/a	n/a	GoodResponse	0	n/a	n/a	5	55	Blank	Neutral	True
527.125	1.45	Control	0.6607	n/a	Yes	3.023	n/a	5.0	GoodResponse	0	0.018	526.143	5	55	Feedback	Neutral	True
528.58	3.023	Control	0.6607	n/a	Yes	3.023	n/a	n/a	GoodResponse	0	0.0	n/a	5	55	ISIslide	Neutral	True
531.622	0.25	Control	0.6667000000000001	0.0	Yes	2.828	0.022	n/a	GoodResponse	0	n/a	n/a	5	56	Cue	Neutral	True
531.873	3.95	Control	0.6667000000000001	0.0	Yes	2.828	0.001	n/a	GoodResponse	0	n/a	n/a	5	56	Fixation	Neutral	True
535.818	0.21	Control	0.6667000000000001	0.004	Yes	2.828	-0.004	4.0	GoodResponse	0	0.166	534.984	5	56	Target	Neutral	True
535.984	0.3	Control	0.6667000000000001	0.004	Yes	2.828	-0.004	4.0	GoodResponse	0	0.166	n/a	5	56	ButtonPress	Neutral	True
536.036	0.49	Control	0.6667000000000001	n/a	Yes	2.828	n/a	n/a	GoodResponse	0	n/a	n/a	5	56	Blank	Neutral	True
536.52	1.45	Control	0.6667000000000001	n/a	Yes	2.828	n/a	5.0	GoodResponse	0	0.038	535.558	5	56	Feedback	Neutral	True
537.975	2.828	Control	0.6667000000000001	n/a	Yes	2.828	n/a	n/a	GoodResponse	0	0.0	n/a	5	56	ISIslide	Neutral	True
540.817	0.25	Control	0.6724	0.0	Yes	3.483	0.017	n/a	GoodResponse	0	n/a	n/a	5	57	Cue	Neutral	True
541.067	4.0	Control	0.6724	0.0	Yes	3.483	0.0	n/a	GoodResponse	0	n/a	n/a	5	57	Fixation	Neutral	True
545.063	0.2	Control	0.6724	0.004	Yes	3.483	-0.004	4.0	GoodResponse	0	0.17	544.233	5	57	Target	Neutral	True
545.233	0.3	Control	0.6724	0.004	Yes	3.483	-0.004	4.0	GoodResponse	0	0.17	n/a	5	57	ButtonPress	Neutral	True
545.263	0.5	Control	0.6724	n/a	Yes	3.483	n/a	n/a	GoodResponse	0	n/a	n/a	5	57	Blank	Neutral	True
545.765	1.45	Control	0.6724	n/a	Yes	3.483	n/a	5.0	GoodResponse	0	0.012	544.777	5	57	Feedback	Neutral	True
547.219	3.483	Control	0.6724	n/a	Yes	3.483	n/a	n/a	GoodResponse	0	0.0	n/a	5	57	ISIslide	Neutral	True
550.73	0.25	Win2	0.6779999999999999	0.0	Yes	2.72	0.03	n/a	GoodResponse	1	n/a	n/a	6	58	Cue	Win	True
550.98	4.05	Win2	0.6779999999999999	0.0	Yes	2.72	0.0	n/a	GoodResponse	1	n/a	n/a	6	58	Fixation	Win	True
555.026	0.19	Win2	0.6779999999999999	0.004	Yes	2.72	-0.004	4.0	GoodResponse	1	0.176	554.202	6	58	Target	Win	True
555.202	0.3	Win2	0.6779999999999999	0.004	Yes	2.72	-0.004	4.0	GoodResponse	1	0.176	n/a	6	58	ButtonPress	Win	True
555.226	0.51	Win2	0.6779999999999999	n/a	Yes	2.72	n/a	n/a	GoodResponse	1	n/a	n/a	6	58	Blank	Win	True
555.728	1.45	Win2	0.6779999999999999	n/a	Yes	2.72	n/a	5.0	GoodResponse	1	0.001	554.729	6	58	Feedback	Win	True
557.182	2.72	Win2	0.6779999999999999	n/a	Yes	2.72	n/a	n/a	GoodResponse	1	0.0	n/a	6	58	ISIslide	Win	True
559.924	0.25	Lose2	0.6667000000000001	0.0	No	2.676	0.024	n/a	NoResponse	-1	n/a	n/a	5	59	Cue	Loss	True
560.175	4.0	Lose2	0.6667000000000001	0.0	No	2.676	0.001	n/a	NoResponse	-1	n/a	n/a	5	59	Fixation	Loss	True
564.17	0.18	Lose2	0.6667000000000001	0.004	No	2.676	-0.004	4.0	NoResponse	-1	0.189	563.359	5	59	Target	Loss	True
564.354	0.52	Lose2	0.6667000000000001	n/a	No	2.676	n/a	n/a	NoResponse	-1	n/a	n/a	5	59	Blank	Loss	True
564.359	0.3	Lose2	0.6667000000000001	0.004	No	2.676	-0.004	4.0	NoResponse	-1	0.189	n/a	5	59	ButtonPress	Loss	True
564.872	1.45	Lose2	0.6667000000000001	n/a	No	2.676	n/a	5.0	NoResponse	-1	0.026	563.898	5	59	Feedback	Loss	True
566.326	2.676	Lose2	0.6667000000000001	n/a	No	2.676	n/a	n/a	NoResponse	-1	0.0	n/a	5	59	ISIslide	Loss	True
569.018	0.25	Control	0.6557	0.0	No	2.682	0.018	n/a	LatePress	0	n/a	n/a	5	60	Cue	Neutral	True
569.268	4.0	Control	0.6557	0.001	No	2.682	0.0	n/a	LatePress	0	n/a	n/a	5	60	Fixation	Neutral	True
573.264	0.17	Control	0.6557	0.004	No	2.682	-0.004	4.0	LatePress	0	0.17	572.434	5	60	Target	Neutral	True
573.434	0.3	Control	0.6557	0.004	No	2.682	-0.004	4.0	LatePress	0	0.17	n/a	5	60	ButtonPress	Neutral	True
573.448	0.53	Control	0.6557	n/a	No	2.682	n/a	n/a	LatePress	0	n/a	n/a	5	60	Blank	Neutral	True
573.966	1.45	Control	0.6557	n/a	No	2.682	n/a	5.0	LatePress	0	0.006	572.972	5	60	Feedback	Neutral	True
575.42	2.682	Control	0.6557	n/a	No	2.682	n/a	n/a	LatePress	0	0.0	n/a	5	60	ISIslide	Neutral	True
578.128	0.25	Lose2	0.6452	0.0	No	2.972	0.028	n/a	LatePress	-1	n/a	n/a	4	61	Cue	Loss	True
578.379	4.0	Lose2	0.6452	0.0	No	2.972	0.001	n/a	LatePress	-1	n/a	n/a	4	61	Fixation	Loss	True
582.374	0.17	Lose2	0.6452	0.004	No	2.972	-0.004	4.0	LatePress	-1	0.178	581.552	4	61	Target	Loss	True
582.552	0.3	Lose2	0.6452	0.004	No	2.972	-0.004	4.0	LatePress	-1	0.178	n/a	4	61	ButtonPress	Loss	True
582.558	0.53	Lose2	0.6452	n/a	No	2.972	n/a	n/a	LatePress	-1	n/a	n/a	4	61	Blank	Loss	True
583.076	1.45	Lose2	0.6452	n/a	No	2.972	n/a	5.0	LatePress	-1	0.018	582.094	4	61	Feedback	Loss	True
584.531	2.972	Lose2	0.6452	n/a	No	2.972	n/a	n/a	LatePress	-1	0.0	n/a	4	61	ISIslide	Loss	True
587.523	0.25	Lose2	0.6349	0.0	No	2.877	0.023	n/a	NoResponse	-1	n/a	n/a	3	62	Cue	Loss	True
587.774	3.9	Lose2	0.6349	0.0	No	2.877	0.001	n/a	NoResponse	-1	n/a	n/a	3	62	Fixation	Loss	True
591.669	0.18	Lose2	0.6349	0.004	No	2.877	-0.004	4.0	NoResponse	-1	0.197	590.866	3	62	Target	Loss	True
591.853	0.52	Lose2	0.6349	n/a	No	2.877	n/a	n/a	NoResponse	-1	n/a	n/a	3	62	Blank	Loss	True
591.866	0.3	Lose2	0.6349	0.004	No	2.877	-0.004	4.0	NoResponse	-1	0.197	n/a	3	62	ButtonPress	Loss	True
592.371	1.45	Lose2	0.6349	n/a	No	2.877	n/a	5.0	NoResponse	-1	0.04	591.411	3	62	Feedback	Loss	True
593.825	2.877	Lose2	0.6349	n/a	No	2.877	n/a	n/a	NoResponse	-1	0.0	n/a	3	62	ISIslide	Loss	True
596.717	0.25	Lose2	0.6406000000000001	0.0	Yes	2.633	0.017	n/a	GoodResponse	0	n/a	n/a	3	63	Cue	AvoidedLoss	True
596.968	4.05	Lose2	0.6406000000000001	0.0	Yes	2.633	0.001	n/a	GoodResponse	0	n/a	n/a	3	63	Fixation	AvoidedLoss	True
601.014	0.19	Lose2	0.6406000000000001	0.003	Yes	2.633	-0.003	4.0	GoodResponse	0	0.176	600.19	3	63	Target	AvoidedLoss	True
601.19	0.3	Lose2	0.6406000000000001	0.003	Yes	2.633	-0.003	4.0	GoodResponse	0	0.176	n/a	3	63	ButtonPress	AvoidedLoss	True
601.214	0.51	Lose2	0.6406000000000001	n/a	Yes	2.633	n/a	n/a	GoodResponse	0	n/a	n/a	3	63	Blank	AvoidedLoss	True
601.716	1.45	Lose2	0.6406000000000001	n/a	Yes	2.633	n/a	5.0	GoodResponse	0	0.012	600.728	3	63	Feedback	AvoidedLoss	True
603.17	2.633	Lose2	0.6406000000000001	n/a	Yes	2.633	n/a	n/a	GoodResponse	0	0.0	n/a	3	63	ISIslide	AvoidedLoss	True
605.828	0.25	Win2	0.6462	0.0	Yes	3.122	0.028	n/a	GoodResponse	1	n/a	n/a	4	64	Cue	Win	True
606.079	4.15	Win2	0.6462	0.0	Yes	3.122	0.001	n/a	GoodResponse	1	n/a	n/a	4	64	Fixation	Win	True
610.224	0.2	Win2	0.6462	0.004	Yes	3.122	-0.004	4.0	GoodResponse	1	0.176	609.4	4	64	Target	Win	True
610.4	0.3	Win2	0.6462	0.004	Yes	3.122	-0.004	4.0	GoodResponse	1	0.176	n/a	4	64	ButtonPress	Win	True
610.425	0.5	Win2	0.6462	n/a	Yes	3.122	n/a	n/a	GoodResponse	1	n/a	n/a	4	64	Blank	Win	True
610.927	1.45	Win2	0.6462	n/a	Yes	3.122	n/a	5.0	GoodResponse	1	0.021	609.948	4	64	Feedback	Win	True
612.381	3.122	Win2	0.6462	n/a	Yes	3.122	n/a	n/a	GoodResponse	1	0.0	n/a	4	64	ISIslide	Win	True
615.524	0.25	Control	0.6515000000000001	0.0	Yes	2.776	0.024	n/a	GoodResponse	0	n/a	n/a	4	65	Cue	Neutral	True
615.774	4.0	Control	0.6515000000000001	0.001	Yes	2.776	0.0	n/a	GoodResponse	0	n/a	n/a	4	65	Fixation	Neutral	True
619.77	0.21	Control	0.6515000000000001	0.004	Yes	2.776	-0.004	4.0	GoodResponse	0	0.188	618.958	4	65	Target	Neutral	True
619.958	0.3	Control	0.6515000000000001	0.004	Yes	2.776	-0.004	4.0	GoodResponse	0	0.188	n/a	4	65	ButtonPress	Neutral	True
619.987	0.49	Control	0.6515000000000001	n/a	Yes	2.776	n/a	n/a	GoodResponse	0	n/a	n/a	4	65	Blank	Neutral	True
620.472	1.45	Control	0.6515000000000001	n/a	Yes	2.776	n/a	5.0	GoodResponse	0	0.037	619.509	4	65	Feedback	Neutral	True
621.926	2.776	Control	0.6515000000000001	n/a	Yes	2.776	n/a	n/a	GoodResponse	0	0.0	n/a	4	65	ISIslide	Neutral	True
624.718	0.25	Win2	0.6567000000000001	0.0	Yes	2.782	0.018	n/a	GoodResponse	1	n/a	n/a	5	66	Cue	Win	True
624.969	3.9	Win2	0.6567000000000001	0.0	Yes	2.782	0.001	n/a	GoodResponse	1	n/a	n/a	5	66	Fixation	Win	True
628.864	0.22	Win2	0.6567000000000001	0.004	Yes	2.782	-0.004	4.0	GoodResponse	1	0.16	628.024	5	66	Target	Win	True
629.024	0.3	Win2	0.6567000000000001	0.004	Yes	2.782	-0.004	4.0	GoodResponse	1	0.16	n/a	5	66	ButtonPress	Win	True
629.098	0.48	Win2	0.6567000000000001	n/a	Yes	2.782	n/a	n/a	GoodResponse	1	n/a	n/a	5	66	Blank	Win	True
629.566	1.45	Win2	0.6567000000000001	n/a	Yes	2.782	n/a	5.0	GoodResponse	1	0.015	628.581	5	66	Feedback	Win	True
631.02	2.782	Win2	0.6567000000000001	n/a	Yes	2.782	n/a	n/a	GoodResponse	1	0.0	n/a	5	66	ISIslide	Win	True
633.829	0.25	Control	0.6618	0.0	Yes	2.721	0.029	n/a	GoodResponse	0	n/a	n/a	5	67	Cue	Neutral	True
634.079	3.95	Control	0.6618	0.0	Yes	2.721	0.0	n/a	GoodResponse	0	n/a	n/a	5	67	Fixation	Neutral	True
638.041	0.22	Control	0.6618	0.0	Yes	2.721	0.012	4.0	GoodResponse	0	0.198	637.239	5	67	Target	Neutral	True
638.239	0.3	Control	0.6618	0.0	Yes	2.721	0.012	4.0	GoodResponse	0	0.198	n/a	5	67	ButtonPress	Neutral	True
638.258	0.48	Control	0.6618	n/a	Yes	2.721	n/a	n/a	GoodResponse	0	n/a	n/a	5	67	Blank	Neutral	True
638.727	1.45	Control	0.6618	n/a	Yes	2.721	n/a	5.0	GoodResponse	0	0.025	637.752	5	67	Feedback	Neutral	True
640.181	2.721	Control	0.6618	n/a	Yes	2.721	n/a	n/a	GoodResponse	0	0.0	n/a	5	67	ISIslide	Neutral	True
642.922	0.25	Win2	0.6667000000000001	0.001	Yes	3.078	0.022	n/a	GoodResponse	1	n/a	n/a	6	68	Cue	Win	True
643.173	4.0	Win2	0.6667000000000001	0.0	Yes	3.078	0.001	n/a	GoodResponse	1	n/a	n/a	6	68	Fixation	Win	True
647.169	0.22	Win2	0.6667000000000001	0.003	Yes	3.078	-0.003	4.0	GoodResponse	1	0.17	646.339	6	68	Target	Win	True
647.339	0.3	Win2	0.6667000000000001	0.003	Yes	3.078	-0.003	4.0	GoodResponse	1	0.17	n/a	6	68	ButtonPress	Win	True
647.403	0.48	Win2	0.6667000000000001	n/a	Yes	3.078	n/a	n/a	GoodResponse	1	n/a	n/a	6	68	Blank	Win	True
647.871	1.45	Win2	0.6667000000000001	n/a	Yes	3.078	n/a	5.0	GoodResponse	1	0.003	646.874	6	68	Feedback	Win	True
649.325	3.078	Win2	0.6667000000000001	n/a	Yes	3.078	n/a	n/a	GoodResponse	1	0.0	n/a	6	68	ISIslide	Win	True
652.418	0.25	Win2	0.6714	0.0	Yes	3.232	0.018	n/a	GoodResponse	1	n/a	n/a	7	69	Cue	Win	True
652.668	3.95	Win2	0.6714	0.0	Yes	3.232	0.0	n/a	GoodResponse	1	n/a	n/a	7	69	Fixation	Win	True
656.63	0.21	Win2	0.6714	0.0	Yes	3.232	0.012	4.0	GoodResponse	1	0.187	655.817	7	69	Target	Win	True
656.817	0.3	Win2	0.6714	0.0	Yes	3.232	0.012	4.0	GoodResponse	1	0.187	n/a	7	69	ButtonPress	Win	True
656.831	0.49	Win2	0.6714	n/a	Yes	3.232	n/a	n/a	GoodResponse	1	n/a	n/a	7	69	Blank	Win	True
657.316	1.45	Win2	0.6714	n/a	Yes	3.232	n/a	5.0	GoodResponse	1	0.022	656.338	7	69	Feedback	Win	True
658.77	3.232	Win2	0.6714	n/a	Yes	3.232	n/a	n/a	GoodResponse	1	0.0	n/a	7	69	ISIslide	Win	True
662.013	0.25	Lose2	0.662	0.0	No	3.037	0.013	n/a	NoResponse	-1	n/a	n/a	6	70	Cue	Loss	True
662.264	4.05	Lose2	0.662	0.0	No	3.037	0.001	4.0	NoResponse	-1	4.029	665.293	6	70	Fixation	Loss	True
666.293	0.3	Lose2	0.662	0.0	No	3.037	0.001	4.0	NoResponse	-1	4.029	n/a	6	70	ButtonPress	Loss	True
666.309	0.2	Lose2	0.662	0.004	No	3.037	-0.004	n/a	NoResponse	-1	n/a	n/a	6	70	Target	Loss	True
666.51	0.5	Lose2	0.662	n/a	No	3.037	n/a	n/a	NoResponse	-1	n/a	n/a	6	70	Blank	Loss	True
667.011	1.45	Lose2	0.662	n/a	No	3.037	n/a	5.0	NoResponse	-1	0.034	666.045	6	70	Feedback	Loss	True
668.466	3.037	Lose2	0.662	n/a	No	3.037	n/a	n/a	NoResponse	-1	0.0	n/a	6	70	ISIslide	Loss	True
671.525	0.25	Win2	0.6667000000000001	0.0	Yes	2.725	0.025	n/a	GoodResponse	1	n/a	n/a	7	71	Cue	Win	True
671.776	4.05	Win2	0.6667000000000001	0.0	Yes	2.725	0.001	n/a	GoodResponse	1	n/a	n/a	7	71	Fixation	Win	True
675.821	0.2	Win2	0.6667000000000001	0.004	Yes	2.725	-0.004	4.0	GoodResponse	1	0.181	675.002	7	71	Target	Win	True
676.002	0.3	Win2	0.6667000000000001	0.004	Yes	2.725	-0.004	4.0	GoodResponse	1	0.181	n/a	7	71	ButtonPress	Win	True
676.022	0.5	Win2	0.6667000000000001	n/a	Yes	2.725	n/a	n/a	GoodResponse	1	n/a	n/a	7	71	Blank	Win	True
676.523	1.45	Win2	0.6667000000000001	n/a	Yes	2.725	n/a	5.0	GoodResponse	1	0.034	675.557	7	71	Feedback	Win	True
677.977	2.725	Win2	0.6667000000000001	n/a	Yes	2.725	n/a	n/a	GoodResponse	1	0.0	n/a	7	71	ISIslide	Win	True
680.719	0.25	Win2	0.6712	0.0	Yes	2.781	0.019	n/a	GoodResponse	1	n/a	n/a	8	72	Cue	Win	True
680.97	4.1	Win2	0.6712	0.0	Yes	2.781	0.001	n/a	GoodResponse	1	n/a	n/a	8	72	Fixation	Win	True
685.065	0.19	Win2	0.6712	0.004	Yes	2.781	-0.004	4.0	GoodResponse	1	0.181	684.246	8	72	Target	Win	True
685.246	0.3	Win2	0.6712	0.004	Yes	2.781	-0.004	4.0	GoodResponse	1	0.181	n/a	8	72	ButtonPress	Win	True
685.266	0.51	Win2	0.6712	n/a	Yes	2.781	n/a	n/a	GoodResponse	1	n/a	n/a	8	72	Blank	Win	True
685.767	1.45	Win2	0.6712	n/a	Yes	2.781	n/a	5.0	GoodResponse	1	0.009	684.776	8	72	Feedback	Win	True
687.222	2.781	Win2	0.6712	n/a	Yes	2.781	n/a	n/a	GoodResponse	1	0.0	n/a	8	72	ISIslide	Win	True
690.014	0.25	Win2	0.6757	0.0	Yes	2.686	0.014	n/a	GoodResponse	1	n/a	n/a	9	73	Cue	Win	True
690.264	4.0	Win2	0.6757	0.0	Yes	2.686	0.0	n/a	GoodResponse	1	n/a	n/a	9	73	Fixation	Win	True
694.26	0.18	Win2	0.6757	0.004	Yes	2.686	-0.004	4.0	GoodResponse	1	0.169	693.429	9	73	Target	Win	True
694.429	0.3	Win2	0.6757	0.004	Yes	2.686	-0.004	4.0	GoodResponse	1	0.169	n/a	9	73	ButtonPress	Win	True
694.444	0.52	Win2	0.6757	n/a	Yes	2.686	n/a	n/a	GoodResponse	1	n/a	n/a	9	73	Blank	Win	True
694.962	1.45	Win2	0.6757	n/a	Yes	2.686	n/a	5.0	GoodResponse	1	0.034	693.996	9	73	Feedback	Win	True
696.416	2.686	Win2	0.6757	n/a	Yes	2.686	n/a	n/a	GoodResponse	1	0.0	n/a	9	73	ISIslide	Win	True
699.124	0.25	Lose2	0.6667000000000001	0.0	No	2.626	0.024	n/a	LatePress	-1	n/a	n/a	8	74	Cue	Loss	True
699.375	4.05	Lose2	0.6667000000000001	0.0	No	2.626	0.001	n/a	LatePress	-1	n/a	n/a	8	74	Fixation	Loss	True
703.42	0.17	Lose2	0.6667000000000001	0.004	No	2.626	-0.004	4.0	LatePress	-1	0.183	702.603	8	74	Target	Loss	True
703.603	0.3	Lose2	0.6667000000000001	0.004	No	2.626	-0.004	4.0	LatePress	-1	0.183	n/a	8	74	ButtonPress	Loss	True
703.604	0.53	Lose2	0.6667000000000001	n/a	No	2.626	n/a	n/a	LatePress	-1	n/a	n/a	8	74	Blank	Loss	True
704.122	1.45	Lose2	0.6667000000000001	n/a	No	2.626	n/a	5.0	LatePress	-1	0.044	703.166	8	74	Feedback	Loss	True
705.577	2.626	Lose2	0.6667000000000001	n/a	No	2.626	n/a	n/a	LatePress	-1	0.0	n/a	8	74	ISIslide	Loss	True
708.218	0.25	Lose2	0.6579	0.0	No	2.932	0.018	n/a	NoResponse	-1	n/a	n/a	7	75	Cue	Loss	True
708.469	3.95	Lose2	0.6579	0.0	No	2.932	0.001	n/a	NoResponse	-1	n/a	n/a	7	75	Fixation	Loss	True
712.414	0.16	Lose2	0.6579	0.004	No	2.932	-0.004	4.0	NoResponse	-1	0.172	711.586	7	75	Target	Loss	True
712.581	0.54	Lose2	0.6579	n/a	No	2.932	n/a	n/a	NoResponse	-1	n/a	n/a	7	75	Blank	Loss	True
712.586	0.3	Lose2	0.6579	0.004	No	2.932	-0.004	4.0	NoResponse	-1	0.172	n/a	7	75	ButtonPress	Loss	True
713.116	1.45	Lose2	0.6579	n/a	No	2.932	n/a	5.0	NoResponse	-1	0.026	712.142	7	75	Feedback	Loss	True
714.57	2.932	Lose2	0.6579	n/a	No	2.932	n/a	n/a	NoResponse	-1	0.0	n/a	7	75	ISIslide	Loss	True
717.513	0.25	Control	0.6494	0.0	No	3.237	0.013	n/a	NoResponse	0	n/a	n/a	7	76	Cue	Neutral	True
717.763	4.05	Control	0.6494	0.0	No	3.237	0.0	n/a	NoResponse	0	n/a	n/a	7	76	Fixation	Neutral	True
721.809	0.16	Control	0.6494	0.004	No	3.237	-0.004	4.0	NoResponse	0	0.188	720.997	7	76	Target	Neutral	True
721.976	0.54	Control	0.6494	n/a	No	3.237	n/a	n/a	NoResponse	0	n/a	n/a	7	76	Blank	Neutral	True
721.997	0.3	Control	0.6494	0.004	No	3.237	-0.004	4.0	NoResponse	0	0.188	n/a	7	76	ButtonPress	Neutral	True
722.511	1.45	Control	0.6494	n/a	No	3.237	n/a	5.0	NoResponse	0	0.046	721.557	7	76	Feedback	Neutral	True
723.965	3.237	Control	0.6494	n/a	No	3.237	n/a	n/a	NoResponse	0	0.0	n/a	7	76	ISIslide	Neutral	True
727.225	0.25	Lose2	0.6409999999999999	0.0	No	2.575	0.025	n/a	LatePress	-1	n/a	n/a	6	77	Cue	Loss	True
727.476	3.95	Lose2	0.6409999999999999	0.0	No	2.575	0.001	n/a	LatePress	-1	n/a	n/a	6	77	Fixation	Loss	True
731.421	0.17	Lose2	0.6409999999999999	0.004	No	2.575	-0.004	4.0	LatePress	-1	0.175	730.596	6	77	Target	Loss	True
731.596	0.3	Lose2	0.6409999999999999	0.004	No	2.575	-0.004	4.0	LatePress	-1	0.175	n/a	6	77	ButtonPress	Loss	True
731.605	0.53	Lose2	0.6409999999999999	n/a	No	2.575	n/a	n/a	LatePress	-1	n/a	n/a	6	77	Blank	Loss	True
732.123	1.45	Lose2	0.6409999999999999	n/a	No	2.575	n/a	5.0	LatePress	-1	0.044	731.167	6	77	Feedback	Loss	True
733.577	2.575	Lose2	0.6409999999999999	n/a	No	2.575	n/a	n/a	LatePress	-1	0.0	n/a	6	77	ISIslide	Loss	True
