onset	duration	cue_type	current_mean_accuracy	duration_error	is_hit	isi_adjusted	onset_delay	response	response_type	reward	rt	rt_time	total_reward	trial_number	trial_phase	trial_type	one_press
11.108	0.25	Control	1.0	0.0	Yes	2.942	0.008	n/a	GoodResponse	0	n/a	n/a	0	0	Cue	Neutral	True
11.357	3.85	Control	1.0	0.001	Yes	2.942	-0.001	n/a	GoodResponse	0	n/a	n/a	0	0	Fixation	Neutral	True
15.206	0.4	Control	1.0	0.002	Yes	2.942	-0.002	2.0	GoodResponse	0	0.268	14.474	0	0	Target	Neutral	True
15.474	0.3	Control	1.0	0.002	Yes	2.942	-0.002	2.0	GoodResponse	0	0.268	n/a	0	0	ButtonPress	Neutral	True
15.606	0.3	Control	1.0	n/a	Yes	2.942	n/a	n/a	GoodResponse	0	n/a	n/a	0	0	Blank	Neutral	True
15.906	1.45	Control	1.0	n/a	Yes	2.942	n/a	5.0	GoodResponse	0	0.022	14.928	0	0	Feedback	Neutral	True
17.355	2.942	Control	1.0	n/a	Yes	2.942	n/a	n/a	GoodResponse	0	0.0	n/a	0	0	ISIslide	Neutral	True
20.388	0.25	Lose2	1.0	0.0	Yes	2.712	0.088	n/a	GoodResponse	0	n/a	n/a	0	1	Cue	AvoidedLoss	True
20.638	4.0	Lose2	1.0	0.0	Yes	2.712	0.0	n/a	GoodResponse	0	n/a	n/a	0	1	Fixation	AvoidedLoss	True
24.636	0.39	Lose2	1.0	0.002	Yes	2.712	-0.002	2.0	GoodResponse	0	0.257	23.893	0	1	Target	AvoidedLoss	True
24.893	0.3	Lose2	1.0	0.002	Yes	2.712	-0.002	2.0	GoodResponse	0	0.257	n/a	0	1	ButtonPress	AvoidedLoss	True
25.036	0.31	Lose2	1.0	n/a	Yes	2.712	n/a	n/a	GoodResponse	0	n/a	n/a	0	1	Blank	AvoidedLoss	True
25.336	1.45	Lose2	1.0	n/a	Yes	2.712	n/a	5.0	GoodResponse	0	0.007	24.343	0	1	Feedback	AvoidedLoss	True
26.785	2.712	Lose2	1.0	n/a	Yes	2.712	n/a	n/a	GoodResponse	0	0.0	n/a	0	1	ISIslide	AvoidedLoss	True
29.518	0.25	Control	1.0	0.0	Yes	2.582	0.018	n/a	GoodResponse	0	n/a	n/a	0	2	Cue	Neutral	True
29.768	4.1	Control	1.0	0.0	Yes	2.582	0.0	n/a	GoodResponse	0	n/a	n/a	0	2	Fixation	Neutral	True
33.866	0.38	Control	1.0	0.002	Yes	2.582	-0.002	2.0	GoodResponse	0	0.3	33.166	0	2	Target	Neutral	True
34.166	0.3	Control	1.0	0.002	Yes	2.582	-0.002	2.0	GoodResponse	0	0.3	n/a	0	2	ButtonPress	Neutral	True
34.249	0.32	Control	1.0	n/a	Yes	2.582	n/a	n/a	GoodResponse	0	n/a	n/a	0	2	Blank	Neutral	True
34.566	1.45	Control	1.0	n/a	Yes	2.582	n/a	5.0	GoodResponse	0	0.045	33.611	0	2	Feedback	Neutral	True
36.015	2.582	Control	1.0	n/a	Yes	2.582	n/a	n/a	GoodResponse	0	0.0	n/a	0	2	ISIslide	Neutral	True
38.681	0.25	Win2	1.0	0.0	Yes	2.769	0.081	n/a	GoodResponse	1	n/a	n/a	1	3	Cue	Win	True
38.931	3.95	Win2	1.0	0.0	Yes	2.769	0.0	n/a	GoodResponse	1	n/a	n/a	1	3	Fixation	Win	True
42.88	0.37	Win2	1.0	0.001	Yes	2.769	-0.001	2.0	GoodResponse	1	0.24	42.12	1	3	Target	Win	True
43.12	0.3	Win2	1.0	0.001	Yes	2.769	-0.001	2.0	GoodResponse	1	0.24	n/a	1	3	ButtonPress	Win	True
43.263	0.33	Win2	1.0	n/a	Yes	2.769	n/a	n/a	GoodResponse	1	n/a	n/a	1	3	Blank	Win	True
43.579	1.45	Win2	1.0	n/a	Yes	2.769	n/a	5.0	GoodResponse	1	0.008	42.587	1	3	Feedback	Win	True
45.029	2.769	Win2	1.0	n/a	Yes	2.769	n/a	n/a	GoodResponse	1	0.0	n/a	1	3	ISIslide	Win	True
47.828	0.25	Win2	1.0	0.0	Yes	3.272	0.028	n/a	GoodResponse	1	n/a	n/a	2	4	Cue	Win	True
48.078	4.0	Win2	1.0	0.0	Yes	3.272	0.0	n/a	GoodResponse	1	n/a	n/a	2	4	Fixation	Win	True
52.076	0.36	Win2	1.0	0.002	Yes	3.272	-0.002	2.0	GoodResponse	1	0.297	51.373	2	4	Target	Win	True
52.373	0.3	Win2	1.0	0.002	Yes	3.272	-0.002	2.0	GoodResponse	1	0.297	n/a	2	4	ButtonPress	Win	True
52.443	0.34	Win2	1.0	n/a	Yes	3.272	n/a	n/a	GoodResponse	1	n/a	n/a	2	4	Blank	Win	True
52.776	1.45	Win2	1.0	n/a	Yes	3.272	n/a	5.0	GoodResponse	1	0.029	51.805	2	4	Feedback	Win	True
54.226	3.272	Win2	1.0	n/a	Yes	3.272	n/a	n/a	GoodResponse	1	0.0	n/a	2	4	ISIslide	Win	True
57.525	0.25	Win2	1.0	0.0	Yes	2.775	0.025	n/a	GoodResponse	1	n/a	n/a	3	5	Cue	Win	True
57.774	4.0	Win2	1.0	0.001	Yes	2.775	-0.001	n/a	GoodResponse	1	n/a	n/a	3	5	Fixation	Win	True
61.773	0.35	Win2	1.0	0.002	Yes	2.775	-0.002	2.0	GoodResponse	1	0.316	61.089	3	5	Target	Win	True
62.089	0.3	Win2	1.0	0.002	Yes	2.775	-0.002	2.0	GoodResponse	1	0.316	n/a	3	5	ButtonPress	Win	True
62.123	0.35	Win2	1.0	n/a	Yes	2.775	n/a	n/a	GoodResponse	1	n/a	n/a	3	5	Blank	Win	True
62.473	1.45	Win2	1.0	n/a	Yes	2.775	n/a	5.0	GoodResponse	1	0.04	61.513	3	5	Feedback	Win	True
63.922	2.775	Win2	1.0	n/a	Yes	2.775	n/a	n/a	GoodResponse	1	0.0	n/a	3	5	ISIslide	Win	True
66.721	0.25	Lose2	1.0	0.0	Yes	2.729	0.021	n/a	GoodResponse	0	n/a	n/a	3	6	Cue	AvoidedLoss	True
66.971	3.95	Lose2	1.0	0.0	Yes	2.729	0.0	n/a	GoodResponse	0	n/a	n/a	3	6	Fixation	AvoidedLoss	True
70.92	0.34	Lose2	1.0	0.001	Yes	2.729	-0.001	2.0	GoodResponse	0	0.274	70.194	3	6	Target	AvoidedLoss	True
71.194	0.3	Lose2	1.0	0.001	Yes	2.729	-0.001	2.0	GoodResponse	0	0.274	n/a	3	6	ButtonPress	AvoidedLoss	True
71.27	0.36	Lose2	1.0	n/a	Yes	2.729	n/a	n/a	GoodResponse	0	n/a	n/a	3	6	Blank	AvoidedLoss	True
71.62	1.45	Lose2	1.0	n/a	Yes	2.729	n/a	5.0	GoodResponse	0	0.015	70.635	3	6	Feedback	AvoidedLoss	True
73.069	2.729	Lose2	1.0	n/a	Yes	2.729	n/a	n/a	GoodResponse	0	0.0	n/a	3	6	ISIslide	AvoidedLoss	True
75.818	0.25	Lose2	1.0	0.0	Yes	4.032	0.018	n/a	GoodResponse	0	n/a	n/a	3	7	Cue	AvoidedLoss	True
76.068	4.05	Lose2	1.0	0.0	Yes	4.032	0.0	n/a	GoodResponse	0	n/a	n/a	3	7	Fixation	AvoidedLoss	True
80.117	0.33	Lose2	1.0	0.001	Yes	4.032	-0.001	2.0	GoodResponse	0	0.329	79.446	3	7	Target	AvoidedLoss	True
80.446	0.3	Lose2	1.0	0.001	Yes	4.032	-0.001	2.0	GoodResponse	0	0.329	n/a	3	7	ButtonPress	AvoidedLoss	True
80.45	0.37	Lose2	1.0	n/a	Yes	4.032	n/a	n/a	GoodResponse	0	n/a	n/a	3	7	Blank	AvoidedLoss	True
80.816	1.45	Lose2	1.0	n/a	Yes	4.032	n/a	5.0	GoodResponse	0	0.039	79.855	3	7	Feedback	AvoidedLoss	True
82.266	4.032	Lose2	1.0	n/a	Yes	4.032	n/a	n/a	GoodResponse	0	0.0	n/a	3	7	ISIslide	AvoidedLoss	True
86.331	0.25	Lose2	1.0	0.0	Yes	3.019	0.031	n/a	GoodResponse	0	n/a	n/a	3	8	Cue	AvoidedLoss	True
86.581	3.95	Lose2	1.0	0.0	Yes	3.019	0.0	n/a	GoodResponse	0	n/a	n/a	3	8	Fixation	AvoidedLoss	True
90.53	0.32	Lose2	1.0	0.001	Yes	3.019	-0.001	2.0	GoodResponse	0	0.287	89.817	3	8	Target	AvoidedLoss	True
90.817	0.3	Lose2	1.0	0.001	Yes	3.019	-0.001	2.0	GoodResponse	0	0.287	n/a	3	8	ButtonPress	AvoidedLoss	True
90.863	0.38	Lose2	1.0	n/a	Yes	3.019	n/a	n/a	GoodResponse	0	n/a	n/a	3	8	Blank	AvoidedLoss	True
91.229	1.45	Lose2	1.0	n/a	Yes	3.019	n/a	5.0	GoodResponse	0	0.016	90.245	3	8	Feedback	AvoidedLoss	True
92.679	3.019	Lose2	1.0	n/a	Yes	3.019	n/a	n/a	GoodResponse	0	0.0	n/a	3	8	ISIslide	AvoidedLoss	True
95.728	0.25	Lose2	1.0	0.0	Yes	3.122	0.028	n/a	GoodResponse	0	n/a	n/a	3	9	Cue	AvoidedLoss	True
95.978	3.95	Lose2	1.0	0.0	Yes	3.122	0.0	n/a	GoodResponse	0	n/a	n/a	3	9	Fixation	AvoidedLoss	True
99.926	0.31	Lose2	1.0	0.002	Yes	3.122	-0.002	2.0	GoodResponse	0	0.284	99.21	3	9	Target	AvoidedLoss	True
100.21	0.3	Lose2	1.0	0.002	Yes	3.122	-0.002	2.0	GoodResponse	0	0.284	n/a	3	9	ButtonPress	AvoidedLoss	True
100.243	0.39	Lose2	1.0	n/a	Yes	3.122	n/a	n/a	GoodResponse	0	n/a	n/a	3	9	Blank	AvoidedLoss	True
100.626	1.45	Lose2	1.0	n/a	Yes	3.122	n/a	5.0	GoodResponse	0	0.033	99.659	3	9	Feedback	AvoidedLoss	True
102.076	3.122	Lose2	1.0	n/a	Yes	3.122	n/a	n/a	GoodResponse	0	0.0	n/a	3	9	ISIslide	AvoidedLoss	True
105.224	0.25	Control	1.0	0.0	Yes	3.276	0.024	n/a	GoodResponse	0	n/a	n/a	3	10	Cue	Neutral	True
105.474	4.0	Control	1.0	0.0	Yes	3.276	0.0	n/a	GoodResponse	0	n/a	n/a	3	10	Fixation	Neutral	True
109.473	0.3	Control	1.0	0.001	Yes	3.276	-0.001	2.0	GoodResponse	0	0.266	108.739	3	10	Target	Neutral	True
109.739	0.3	Control	1.0	0.001	Yes	3.276	-0.001	2.0	GoodResponse	0	0.266	n/a	3	10	ButtonPress	Neutral	True
109.773	0.4	Control	1.0	n/a	Yes	3.276	n/a	n/a	GoodResponse	0	n/a	n/a	3	10	Blank	Neutral	True
110.173	1.45	Control	1.0	n/a	Yes	3.276	n/a	5.0	GoodResponse	0	0.047	109.22	3	10	Feedback	Neutral	True
111.622	3.276	Control	1.0	n/a	Yes	3.276	n/a	n/a	GoodResponse	0	0.0	n/a	3	10	ISIslide	Neutral	True
114.921	0.25	Lose2	1.0	0.0	Yes	2.729	0.021	n/a	GoodResponse	0	n/a	n/a	3	11	Cue	AvoidedLoss	True
115.171	4.05	Lose2	1.0	0.0	Yes	2.729	0.0	n/a	GoodResponse	0	n/a	n/a	3	11	Fixation	AvoidedLoss	True
119.219	0.29	Lose2	1.0	0.002	Yes	2.729	-0.002	2.0	GoodResponse	0	0.232	118.451	3	11	Target	AvoidedLoss	True
119.451	0.3	Lose2	1.0	0.002	Yes	2.729	-0.002	2.0	GoodResponse	0	0.232	n/a	3	11	ButtonPress	AvoidedLoss	True
119.519	0.41	Lose2	1.0	n/a	Yes	2.729	n/a	n/a	GoodResponse	0	n/a	n/a	3	11	Blank	AvoidedLoss	True
119.919	1.45	Lose2	1.0	n/a	Yes	2.729	n/a	5.0	GoodResponse	0	0.008	118.927	3	11	Feedback	AvoidedLoss	True
121.369	2.729	Lose2	1.0	n/a	Yes	2.729	n/a	n/a	GoodResponse	0	0.0	n/a	3	11	ISIslide	AvoidedLoss	True
124.118	0.25	Control	1.0	0.0	Yes	2.982	0.018	n/a	GoodResponse	0	n/a	n/a	3	12	Cue	Neutral	True
124.368	3.9	Control	1.0	0.0	Yes	2.982	0.0	n/a	GoodResponse	0	n/a	n/a	3	12	Fixation	Neutral	True
128.266	0.28	Control	1.0	0.002	Yes	2.982	-0.002	2.0	GoodResponse	0	0.256	127.522	3	12	Target	Neutral	True
128.522	0.3	Control	1.0	0.002	Yes	2.982	-0.002	2.0	GoodResponse	0	0.256	n/a	3	12	ButtonPress	Neutral	True
128.55	0.42	Control	1.0	n/a	Yes	2.982	n/a	n/a	GoodResponse	0	n/a	n/a	3	12	Blank	Neutral	True
128.966	1.45	Control	1.0	n/a	Yes	2.982	n/a	5.0	GoodResponse	0	0.035	128.001	3	12	Feedback	Neutral	True
130.416	2.982	Control	1.0	n/a	Yes	2.982	n/a	n/a	GoodResponse	0	0.0	n/a	3	12	ISIslide	Neutral	True
133.414	0.25	Control	0.9286	0.001	No	2.786	0.014	n/a	NoResponse	0	n/a	n/a	3	13	Cue	Neutral	True
133.664	4.0	Control	0.9286	0.0	No	2.786	0.0	n/a	NoResponse	0	n/a	n/a	3	13	Fixation	Neutral	True
137.663	0.27	Control	0.9286	0.001	No	2.786	-0.001	2.0	NoResponse	0	0.272	136.935	3	13	Target	Neutral	True
137.93	0.43	Control	0.9286	n/a	No	2.786	n/a	n/a	NoResponse	0	n/a	n/a	3	13	Blank	Neutral	True
137.935	0.3	Control	0.9286	0.001	No	2.786	-0.001	2.0	NoResponse	0	0.272	n/a	3	13	ButtonPress	Neutral	True
138.363	1.45	Control	0.9286	n/a	No	2.786	n/a	5.0	NoResponse	0	0.006	137.369	3	13	Feedback	Neutral	True
139.812	2.786	Control	0.9286	n/a	No	2.786	n/a	n/a	NoResponse	0	0.0	n/a	3	13	ISIslide	Neutral	True
142.628	0.25	Win2	0.8667	0.0	No	2.672	0.028	n/a	LatePress	0	n/a	n/a	3	14	Cue	MissedWin	True
142.878	4.1	Win2	0.8667	0.0	No	2.672	0.0	n/a	LatePress	0	n/a	n/a	3	14	Fixation	MissedWin	True
146.976	0.26	Win2	0.8667	0.002	No	2.672	-0.002	2.0	LatePress	0	0.261	146.237	3	14	Target	MissedWin	True
147.237	0.3	Win2	0.8667	0.002	No	2.672	-0.002	2.0	LatePress	0	0.261	n/a	3	14	ButtonPress	MissedWin	True
147.243	0.44	Win2	0.8667	n/a	No	2.672	n/a	n/a	LatePress	0	n/a	n/a	3	14	Blank	MissedWin	True
147.676	1.45	Win2	0.8667	n/a	No	2.672	n/a	5.0	LatePress	0	0.007	146.683	3	14	Feedback	MissedWin	True
149.126	2.672	Win2	0.8667	n/a	No	2.672	n/a	n/a	LatePress	0	0.0	n/a	3	14	ISIslide	MissedWin	True
151.825	0.25	Control	0.8125	0.0	No	2.975	0.025	n/a	NoResponse	0	n/a	n/a	3	15	Cue	Neutral	True
152.075	4.0	Control	0.8125	0.0	No	2.975	0.0	n/a	NoResponse	0	n/a	n/a	3	15	Fixation	Neutral	True
156.073	0.25	Control	0.8125	0.002	No	2.975	-0.002	2.0	NoResponse	0	0.277	155.35	3	15	Target	Neutral	True
156.323	0.45	Control	0.8125	n/a	No	2.975	n/a	n/a	NoResponse	0	n/a	n/a	3	15	Blank	Neutral	True
156.35	0.3	Control	0.8125	0.002	No	2.975	-0.002	2.0	NoResponse	0	0.277	n/a	3	15	ButtonPress	Neutral	True
156.773	1.45	Control	0.8125	n/a	No	2.975	n/a	5.0	NoResponse	0	0.032	155.805	3	15	Feedback	Neutral	True
158.222	2.975	Control	0.8125	n/a	No	2.975	n/a	n/a	NoResponse	0	0.0	n/a	3	15	ISIslide	Neutral	True
161.221	0.25	Win2	0.7646999999999999	0.0	No	2.879	0.021	n/a	NoResponse	0	n/a	n/a	3	16	Cue	MissedWin	True
161.471	4.0	Win2	0.7646999999999999	0.0	No	2.879	0.0	n/a	NoResponse	0	n/a	n/a	3	16	Fixation	MissedWin	True
165.47	0.24	Win2	0.7646999999999999	0.001	No	2.879	-0.001	2.0	NoResponse	0	0.33	164.8	3	16	Target	MissedWin	True
165.72	0.46	Win2	0.7646999999999999	n/a	No	2.879	n/a	n/a	NoResponse	0	n/a	n/a	3	16	Blank	MissedWin	True
165.8	0.3	Win2	0.7646999999999999	0.001	No	2.879	-0.001	2.0	NoResponse	0	0.33	n/a	3	16	ButtonPress	MissedWin	True
166.17	1.45	Win2	0.7646999999999999	n/a	No	2.879	n/a	5.0	NoResponse	0	0.001	165.171	3	16	Feedback	MissedWin	True
167.619	2.879	Win2	0.7646999999999999	n/a	No	2.879	n/a	n/a	NoResponse	0	0.0	n/a	3	16	ISIslide	MissedWin	True
170.518	0.25	Lose2	0.7778	0.0	Yes	2.732	0.018	n/a	GoodResponse	0	n/a	n/a	3	17	Cue	AvoidedLoss	True
170.768	3.95	Lose2	0.7778	0.0	Yes	2.732	0.0	n/a	GoodResponse	0	n/a	n/a	3	17	Fixation	AvoidedLoss	True
174.717	0.23	Lose2	0.7778	0.001	Yes	2.732	-0.001	2.0	GoodResponse	0	0.229	173.946	3	17	Target	AvoidedLoss	True
174.946	0.3	Lose2	0.7778	0.001	Yes	2.732	-0.001	2.0	GoodResponse	0	0.229	n/a	3	17	ButtonPress	AvoidedLoss	True
174.95	0.47	Lose2	0.7778	n/a	Yes	2.732	n/a	n/a	GoodResponse	0	n/a	n/a	3	17	Blank	AvoidedLoss	True
175.416	1.45	Lose2	0.7778	n/a	Yes	2.732	n/a	5.0	GoodResponse	0	0.023	174.439	3	17	Feedback	AvoidedLoss	True
176.866	2.732	Lose2	0.7778	n/a	Yes	2.732	n/a	n/a	GoodResponse	0	0.0	n/a	3	17	ISIslide	AvoidedLoss	True
179.615	0.25	Lose2	0.7368000000000001	0.0	No	2.735	0.015	n/a	NoResponse	-1	n/a	n/a	2	18	Cue	Loss	True
179.865	4.05	Lose2	0.7368000000000001	0.0	No	2.735	0.0	n/a	NoResponse	-1	n/a	n/a	2	18	Fixation	Loss	True
183.913	0.22	Lose2	0.7368000000000001	0.002	No	2.735	-0.002	2.0	NoResponse	-1	0.245	183.158	2	18	Target	Loss	True
184.147	0.48	Lose2	0.7368000000000001	n/a	No	2.735	n/a	n/a	NoResponse	-1	n/a	n/a	2	18	Blank	Loss	True
184.158	0.3	Lose2	0.7368000000000001	0.002	No	2.735	-0.002	2.0	NoResponse	-1	0.245	n/a	2	18	ButtonPress	Loss	True
184.613	1.45	Lose2	0.7368000000000001	n/a	No	2.735	n/a	5.0	NoResponse	-1	0.045	183.658	2	18	Feedback	Loss	True
186.063	2.735	Lose2	0.7368000000000001	n/a	No	2.735	n/a	n/a	NoResponse	-1	0.0	n/a	2	18	ISIslide	Loss	True
188.828	0.25	Control	0.7	0.0	No	2.922	0.028	n/a	NoResponse	0	n/a	n/a	2	19	Cue	Neutral	True
189.078	3.95	Control	0.7	0.0	No	2.922	0.0	n/a	NoResponse	0	n/a	n/a	2	19	Fixation	Neutral	True
193.027	0.21	Control	0.7	0.001	No	2.922	-0.001	2.0	NoResponse	0	0.331	192.358	2	19	Target	Neutral	True
193.243	0.49	Control	0.7	n/a	No	2.922	n/a	n/a	NoResponse	0	n/a	n/a	2	19	Blank	Neutral	True
193.358	0.3	Control	0.7	0.001	No	2.922	-0.001	2.0	NoResponse	0	0.331	n/a	2	19	ButtonPress	Neutral	True
193.727	1.45	Control	0.7	n/a	No	2.922	n/a	5.0	NoResponse	0	0.006	192.733	2	19	Feedback	Neutral	True
195.176	2.922	Control	0.7	n/a	No	2.922	n/a	n/a	NoResponse	0	0.0	n/a	2	19	ISIslide	Neutral	True
198.125	0.25	Control	0.6667000000000001	0.0	No	2.625	0.025	n/a	NoResponse	0	n/a	n/a	2	20	Cue	Neutral	True
198.375	4.05	Control	0.6667000000000001	0.0	No	2.625	0.0	n/a	NoResponse	0	n/a	n/a	2	20	Fixation	Neutral	True
202.423	0.2	Control	0.6667000000000001	0.002	No	2.625	-0.002	2.0	NoResponse	0	0.259	201.682	2	20	Target	Neutral	True
202.623	0.5	Control	0.6667000000000001	n/a	No	2.625	n/a	n/a	NoResponse	0	n/a	n/a	2	20	Blank	Neutral	True
202.682	0.3	Control	0.6667000000000001	0.002	No	2.625	-0.002	2.0	NoResponse	0	0.259	n/a	2	20	ButtonPress	Neutral	True
203.123	1.45	Control	0.6667000000000001	n/a	No	2.625	n/a	5.0	NoResponse	0	0.023	202.146	2	20	Feedback	Neutral	True
204.573	2.625	Control	0.6667000000000001	n/a	No	2.625	n/a	n/a	NoResponse	0	0.0	n/a	2	20	ISIslide	Neutral	True
207.222	0.25	Control	0.6364	0.0	No	2.778	0.022	n/a	NoResponse	0	n/a	n/a	2	21	Cue	Neutral	True
207.472	4.1	Control	0.6364	0.0	No	2.778	0.0	n/a	NoResponse	0	n/a	n/a	2	21	Fixation	Neutral	True
211.57	0.19	Control	0.6364	0.002	No	2.778	-0.002	2.0	NoResponse	0	0.275	210.845	2	21	Target	Neutral	True
211.77	0.51	Control	0.6364	n/a	No	2.778	n/a	n/a	NoResponse	0	n/a	n/a	2	21	Blank	Neutral	True
211.845	0.3	Control	0.6364	0.002	No	2.778	-0.002	2.0	NoResponse	0	0.275	n/a	2	21	ButtonPress	Neutral	True
212.27	1.45	Control	0.6364	n/a	No	2.778	n/a	5.0	NoResponse	0	0.047	211.317	2	21	Feedback	Neutral	True
213.72	2.778	Control	0.6364	n/a	No	2.778	n/a	n/a	NoResponse	0	0.0	n/a	2	21	ISIslide	Neutral	True
216.519	0.25	Control	0.6087	0.0	No	2.781	0.019	n/a	NoResponse	0	n/a	n/a	2	22	Cue	Neutral	True
216.768	4.0	Control	0.6087	0.001	No	2.781	-0.001	n/a	NoResponse	0	n/a	n/a	2	22	Fixation	Neutral	True
220.767	0.2	Control	0.6087	0.002	No	2.781	-0.002	2.0	NoResponse	0	0.22	219.987	2	22	Target	Neutral	True
220.967	0.5	Control	0.6087	n/a	No	2.781	n/a	n/a	NoResponse	0	n/a	n/a	2	22	Blank	Neutral	True
220.987	0.3	Control	0.6087	0.002	No	2.781	-0.002	2.0	NoResponse	0	0.22	n/a	2	22	ButtonPress	Neutral	True
221.467	1.45	Control	0.6087	n/a	No	2.781	n/a	5.0	NoResponse	0	0.021	220.488	2	22	Feedback	Neutral	True
222.916	2.781	Control	0.6087	n/a	No	2.781	n/a	n/a	NoResponse	0	0.0	n/a	2	22	ISIslide	Neutral	True
225.715	0.25	Control	0.5832999999999999	0.0	No	2.785	0.015	n/a	NoResponse	0	n/a	n/a	2	23	Cue	Neutral	True
225.965	3.9	Control	0.5832999999999999	0.0	No	2.785	0.0	n/a	NoResponse	0	n/a	n/a	2	23	Fixation	Neutral	True
229.864	0.21	Control	0.5832999999999999	0.001	No	2.785	-0.001	2.0	NoResponse	0	0.27	229.134	2	23	Target	Neutral	True
230.08	0.49	Control	0.5832999999999999	n/a	No	2.785	n/a	n/a	NoResponse	0	n/a	n/a	2	23	Blank	Neutral	True
230.134	0.3	Control	0.5832999999999999	0.001	No	2.785	-0.001	2.0	NoResponse	0	0.27	n/a	2	23	ButtonPress	Neutral	True
230.564	1.45	Control	0.5832999999999999	n/a	No	2.785	n/a	5.0	NoResponse	0	0.045	229.609	2	23	Feedback	Neutral	True
232.013	2.785	Control	0.5832999999999999	n/a	No	2.785	n/a	n/a	NoResponse	0	0.0	n/a	2	23	ISIslide	Neutral	True
234.829	0.25	Win2	0.56	0.0	No	3.121	0.029	n/a	NoResponse	0	n/a	n/a	2	24	Cue	MissedWin	True
235.079	3.95	Win2	0.56	0.0	No	3.121	0.0	n/a	NoResponse	0	n/a	n/a	2	24	Fixation	MissedWin	True
239.027	0.22	Win2	0.56	0.002	No	3.121	-0.002	2.0	NoResponse	0	0.414	238.441	2	24	Target	MissedWin	True
239.261	0.48	Win2	0.56	n/a	No	3.121	n/a	n/a	NoResponse	0	n/a	n/a	2	24	Blank	MissedWin	True
239.441	0.3	Win2	0.56	0.002	No	3.121	-0.002	2.0	NoResponse	0	0.414	n/a	2	24	ButtonPress	MissedWin	True
239.727	1.45	Win2	0.56	n/a	No	3.121	n/a	5.0	NoResponse	0	0.008	238.735	2	24	Feedback	MissedWin	True
241.176	3.121	Win2	0.56	n/a	No	3.121	n/a	n/a	NoResponse	0	0.0	n/a	2	24	ISIslide	MissedWin	True
244.325	0.25	Win2	0.5385	0.0	No	3.075	0.025	n/a	NoResponse	0	n/a	n/a	2	25	Cue	MissedWin	True
244.575	4.0	Win2	0.5385	0.0	No	3.075	0.0	n/a	NoResponse	0	n/a	n/a	2	25	Fixation	MissedWin	True
248.574	0.23	Win2	0.5385	0.001	No	3.075	-0.001	2.0	NoResponse	0	0.267	247.841	2	25	Target	MissedWin	True
248.807	0.47	Win2	0.5385	n/a	No	3.075	n/a	n/a	NoResponse	0	n/a	n/a	2	25	Blank	MissedWin	True
248.841	0.3	Win2	0.5385	0.001	No	3.075	-0.001	2.0	NoResponse	0	0.267	n/a	2	25	ButtonPress	MissedWin	True
249.274	1.45	Win2	0.5385	n/a	No	3.075	n/a	5.0	NoResponse	0	0.018	248.292	2	25	Feedback	MissedWin	True
250.723	3.075	Win2	0.5385	n/a	No	3.075	n/a	n/a	NoResponse	0	0.0	n/a	2	25	ISIslide	MissedWin	True
253.822	0.25	Win2	0.5185	0.0	No	2.928	0.022	n/a	NoResponse	0	n/a	n/a	2	26	Cue	MissedWin	False
254.072	3.95	Win2	0.5185	0.0	No	2.928	0.0	2.0	NoResponse	0	0.22	253.292	2	26	Fixation	MissedWin	False
254.292	0.3	Win2	0.5185	0.0	No	2.928	0.0	2.0	NoResponse	0	0.22	n/a	2	26	ButtonPress	MissedWin	False
258.021	0.24	Win2	0.5185	0.001	No	2.928	-0.001	2.0	NoResponse	0	0.269	257.29	2	26	Target	MissedWin	False
258.27	0.46	Win2	0.5185	n/a	No	2.928	n/a	n/a	NoResponse	0	n/a	n/a	2	26	Blank	MissedWin	False
258.29	0.3	Win2	0.5185	0.001	No	2.928	-0.001	2.0	NoResponse	0	0.269	n/a	2	26	ButtonPress	MissedWin	False
258.72	1.45	Win2	0.5185	n/a	No	2.928	n/a	5.0	NoResponse	0	0.035	257.755	2	26	Feedback	MissedWin	False
260.17	2.928	Win2	0.5185	n/a	No	2.928	n/a	n/a	NoResponse	0	0.0	n/a	2	26	ISIslide	MissedWin	False
263.119	0.25	Lose2	0.5	0.0	No	2.831	0.019	n/a	NoResponse	-1	n/a	n/a	1	27	Cue	Loss	True
263.369	4.05	Lose2	0.5	0.0	No	2.831	0.0	n/a	NoResponse	-1	n/a	n/a	1	27	Fixation	Loss	True
267.417	0.25	Lose2	0.5	0.002	No	2.831	-0.002	2.0	NoResponse	-1	0.291	266.708	1	27	Target	Loss	True
267.667	0.45	Lose2	0.5	n/a	No	2.831	n/a	n/a	NoResponse	-1	n/a	n/a	1	27	Blank	Loss	True
267.708	0.3	Lose2	0.5	0.002	No	2.831	-0.002	2.0	NoResponse	-1	0.291	n/a	1	27	ButtonPress	Loss	True
268.117	1.45	Lose2	0.5	n/a	No	2.831	n/a	5.0	NoResponse	-1	0.007	267.124	1	27	Feedback	Loss	True
269.566	2.831	Lose2	0.5	n/a	No	2.831	n/a	n/a	NoResponse	-1	0.0	n/a	1	27	ISIslide	Loss	True
272.415	0.25	Control	0.4828	0.001	No	2.835	0.015	n/a	NoResponse	0	n/a	n/a	1	28	Cue	Neutral	True
272.665	4.05	Control	0.4828	0.001	No	2.835	0.0	n/a	NoResponse	0	n/a	n/a	1	28	Fixation	Neutral	True
276.714	0.26	Control	0.4828	0.001	No	2.835	-0.001	2.0	NoResponse	0	0.299	276.013	1	28	Target	Neutral	True
276.981	0.44	Control	0.4828	n/a	No	2.835	n/a	n/a	NoResponse	0	n/a	n/a	1	28	Blank	Neutral	True
277.013	0.3	Control	0.4828	0.001	No	2.835	-0.001	2.0	NoResponse	0	0.299	n/a	1	28	ButtonPress	Neutral	True
277.414	1.45	Control	0.4828	n/a	No	2.835	n/a	5.0	NoResponse	0	0.024	276.438	1	28	Feedback	Neutral	True
278.863	2.835	Control	0.4828	n/a	No	2.835	n/a	n/a	NoResponse	0	0.0	n/a	1	28	ISIslide	Neutral	True
281.729	0.25	Lose2	0.4667	0.0	No	2.821	0.029	n/a	NoResponse	-1	n/a	n/a	0	29	Cue	Loss	True
281.979	3.95	Lose2	0.4667	0.0	No	2.821	0.0	n/a	NoResponse	-1	n/a	n/a	0	29	Fixation	Loss	True
285.927	0.27	Lose2	0.4667	0.002	No	2.821	-0.002	2.0	NoResponse	-1	0.368	285.295	0	29	Target	Loss	True
286.211	0.43	Lose2	0.4667	n/a	No	2.821	n/a	n/a	NoResponse	-1	n/a	n/a	0	29	Blank	Loss	True
286.295	0.3	Lose2	0.4667	0.002	No	2.821	-0.002	2.0	NoResponse	-1	0.368	n/a	0	29	ButtonPress	Loss	True
286.627	1.45	Lose2	0.4667	n/a	No	2.821	n/a	5.0	NoResponse	-1	0.03	285.657	0	29	Feedback	Loss	True
288.077	2.821	Lose2	0.4667	n/a	No	2.821	n/a	n/a	NoResponse	-1	0.0	n/a	0	29	ISIslide	Loss	True
290.926	0.25	Win2	0.4839	0.0	Yes	2.774	0.026	n/a	GoodResponse	1	n/a	n/a	1	30	Cue	Win	True
291.176	3.9	Win2	0.4839	0.0	Yes	2.774	0.0	n/a	GoodResponse	1	n/a	n/a	1	30	Fixation	Win	True
295.074	0.28	Win2	0.4839	0.002	Yes	2.774	-0.002	2.0	GoodResponse	1	0.21	294.284	1	30	Target	Win	True
295.284	0.3	Win2	0.4839	0.002	Yes	2.774	-0.002	2.0	GoodResponse	1	0.21	n/a	1	30	ButtonPress	Win	True
295.357	0.42	Win2	0.4839	n/a	Yes	2.774	n/a	n/a	GoodResponse	1	n/a	n/a	1	30	Blank	Win	True
295.774	1.45	Win2	0.4839	n/a	Yes	2.774	n/a	5.0	GoodResponse	1	0.007	294.781	1	30	Feedback	Win	True
297.223	2.774	Win2	0.4839	n/a	Yes	2.774	n/a	n/a	GoodResponse	1	0.0	n/a	1	30	ISIslide	Win	True
300.022	0.25	Lose2	0.5	0.001	Yes	2.828	0.022	n/a	GoodResponse	0	n/a	n/a	1	31	Cue	AvoidedLoss	True
300.272	4.05	Lose2	0.5	0.0	Yes	2.828	0.0	n/a	GoodResponse	0	n/a	n/a	1	31	Fixation	AvoidedLoss	True
304.321	0.29	Lose2	0.5	0.001	Yes	2.828	-0.001	2.0	GoodResponse	0	0.219	303.54	1	31	Target	AvoidedLoss	True
304.54	0.3	Lose2	0.5	0.001	Yes	2.828	-0.001	2.0	GoodResponse	0	0.219	n/a	1	31	ButtonPress	AvoidedLoss	True
304.621	0.41	Lose2	0.5	n/a	Yes	2.828	n/a	n/a	GoodResponse	0	n/a	n/a	1	31	Blank	AvoidedLoss	True
305.021	1.45	Lose2	0.5	n/a	Yes	2.828	n/a	5.0	GoodResponse	0	0.027	304.048	1	31	Feedback	AvoidedLoss	True
306.47	2.828	Lose2	0.5	n/a	Yes	2.828	n/a	n/a	GoodResponse	0	0.0	n/a	1	31	ISIslide	AvoidedLoss	True
309.319	0.25	Lose2	0.5152	0.0	Yes	2.631	0.019	n/a	GoodResponse	0	n/a	n/a	1	32	Cue	AvoidedLoss	True
309.569	4.15	Lose2	0.5152	0.0	Yes	2.631	0.0	n/a	GoodResponse	0	n/a	n/a	1	32	Fixation	AvoidedLoss	True
313.718	0.3	Lose2	0.5152	0.001	Yes	2.631	-0.001	2.0	GoodResponse	0	0.257	312.975	1	32	Target	AvoidedLoss	True
313.975	0.3	Lose2	0.5152	0.001	Yes	2.631	-0.001	2.0	GoodResponse	0	0.257	n/a	1	32	ButtonPress	AvoidedLoss	True
314.017	0.4	Lose2	0.5152	n/a	Yes	2.631	n/a	n/a	GoodResponse	0	n/a	n/a	1	32	Blank	AvoidedLoss	True
314.417	1.45	Lose2	0.5152	n/a	Yes	2.631	n/a	5.0	GoodResponse	0	0.044	313.461	1	32	Feedback	AvoidedLoss	True
315.867	2.631	Lose2	0.5152	n/a	Yes	2.631	n/a	n/a	GoodResponse	0	0.0	n/a	1	32	ISIslide	AvoidedLoss	True
318.516	0.25	Win2	0.5294	0.0	Yes	2.684	0.016	n/a	GoodResponse	1	n/a	n/a	2	33	Cue	Win	True
318.766	4.0	Win2	0.5294	0.0	Yes	2.684	0.0	n/a	GoodResponse	1	n/a	n/a	2	33	Fixation	Win	True
322.764	0.31	Win2	0.5294	0.002	Yes	2.684	-0.002	2.0	GoodResponse	1	0.297	322.061	2	33	Target	Win	True
323.061	0.3	Win2	0.5294	0.002	Yes	2.684	-0.002	2.0	GoodResponse	1	0.297	n/a	2	33	ButtonPress	Win	True
323.081	0.39	Win2	0.5294	n/a	Yes	2.684	n/a	n/a	GoodResponse	1	n/a	n/a	2	33	Blank	Win	True
323.464	1.45	Win2	0.5294	n/a	Yes	2.684	n/a	5.0	GoodResponse	1	0.022	322.486	2	33	Feedback	Win	True
324.914	2.684	Win2	0.5294	n/a	Yes	2.684	n/a	n/a	GoodResponse	1	0.0	n/a	2	33	ISIslide	Win	True
327.629	0.25	Lose2	0.5428999999999999	0.0	Yes	2.621	0.029	n/a	GoodResponse	0	n/a	n/a	2	34	Cue	AvoidedLoss	True
327.879	4.05	Lose2	0.5428999999999999	0.0	Yes	2.621	0.0	n/a	GoodResponse	0	n/a	n/a	2	34	Fixation	AvoidedLoss	True
331.928	0.32	Lose2	0.5428999999999999	0.001	Yes	2.621	-0.001	2.0	GoodResponse	0	0.255	331.183	2	34	Target	AvoidedLoss	True
332.183	0.3	Lose2	0.5428999999999999	0.001	Yes	2.621	-0.001	2.0	GoodResponse	0	0.255	n/a	2	34	ButtonPress	AvoidedLoss	True
332.244	0.38	Lose2	0.5428999999999999	n/a	Yes	2.621	n/a	n/a	GoodResponse	0	n/a	n/a	2	34	Blank	AvoidedLoss	True
332.628	1.45	Lose2	0.5428999999999999	n/a	Yes	2.621	n/a	5.0	GoodResponse	0	0.029	331.657	2	34	Feedback	AvoidedLoss	True
334.077	2.621	Lose2	0.5428999999999999	n/a	Yes	2.621	n/a	n/a	GoodResponse	0	0.0	n/a	2	34	ISIslide	AvoidedLoss	True
336.726	0.25	Lose2	0.5556	0.0	Yes	2.674	0.026	n/a	GoodResponse	0	n/a	n/a	2	35	Cue	AvoidedLoss	True
336.976	4.0	Lose2	0.5556	0.0	Yes	2.674	0.0	n/a	GoodResponse	0	n/a	n/a	2	35	Fixation	AvoidedLoss	True
340.975	0.33	Lose2	0.5556	0.001	Yes	2.674	-0.001	2.0	GoodResponse	0	0.298	340.273	2	35	Target	AvoidedLoss	True
341.273	0.3	Lose2	0.5556	0.001	Yes	2.674	-0.001	2.0	GoodResponse	0	0.298	n/a	2	35	ButtonPress	AvoidedLoss	True
341.308	0.37	Lose2	0.5556	n/a	Yes	2.674	n/a	n/a	GoodResponse	0	n/a	n/a	2	35	Blank	AvoidedLoss	True
341.674	1.45	Lose2	0.5556	n/a	Yes	2.674	n/a	5.0	GoodResponse	0	0.007	340.681	2	35	Feedback	AvoidedLoss	True
343.124	2.674	Lose2	0.5556	n/a	Yes	2.674	n/a	n/a	GoodResponse	0	0.0	n/a	2	35	ISIslide	AvoidedLoss	True
345.823	0.25	Control	0.5405	0.0	No	2.677	0.023	n/a	NoResponse	0	n/a	n/a	2	36	Cue	Neutral	True
346.073	4.0	Control	0.5405	0.0	No	2.677	0.0	n/a	NoResponse	0	n/a	n/a	2	36	Fixation	Neutral	True
350.072	0.34	Control	0.5405	0.001	No	2.677	-0.001	2.0	NoResponse	0	0.351	349.423	2	36	Target	Neutral	True
350.421	0.36	Control	0.5405	n/a	No	2.677	n/a	n/a	NoResponse	0	n/a	n/a	2	36	Blank	Neutral	True
350.423	0.3	Control	0.5405	0.001	No	2.677	-0.001	2.0	NoResponse	0	0.351	n/a	2	36	ButtonPress	Neutral	True
350.771	1.45	Control	0.5405	n/a	No	2.677	n/a	5.0	NoResponse	0	0.032	349.803	2	36	Feedback	Neutral	True
352.221	2.677	Control	0.5405	n/a	No	2.677	n/a	n/a	NoResponse	0	0.0	n/a	2	36	ISIslide	Neutral	True
354.92	0.25	Win2	0.5526	0.0	Yes	2.88	0.02	n/a	GoodResponse	1	n/a	n/a	3	37	Cue	Win	True
355.17	4.0	Win2	0.5526	0.0	Yes	2.88	0.0	n/a	GoodResponse	1	n/a	n/a	3	37	Fixation	Win	True
359.168	0.35	Win2	0.5526	0.002	Yes	2.88	-0.002	2.0	GoodResponse	1	0.302	358.47	3	37	Target	Win	True
359.47	0.3	Win2	0.5526	0.002	Yes	2.88	-0.002	2.0	GoodResponse	1	0.302	n/a	3	37	ButtonPress	Win	True
359.518	0.35	Win2	0.5526	n/a	Yes	2.88	n/a	n/a	GoodResponse	1	n/a	n/a	3	37	Blank	Win	True
359.868	1.45	Win2	0.5526	n/a	Yes	2.88	n/a	5.0	GoodResponse	1	0.008	358.876	3	37	Feedback	Win	True
361.318	2.88	Win2	0.5526	n/a	Yes	2.88	n/a	n/a	GoodResponse	1	0.0	n/a	3	37	ISIslide	Win	True
364.216	0.25	Lose2	0.5640999999999999	0.001	Yes	2.834	0.016	n/a	GoodResponse	0	n/a	n/a	3	38	Cue	AvoidedLoss	True
364.466	3.95	Lose2	0.5640999999999999	0.0	Yes	2.834	0.0	n/a	GoodResponse	0	n/a	n/a	3	38	Fixation	AvoidedLoss	True
368.415	0.36	Lose2	0.5640999999999999	0.001	Yes	2.834	-0.001	2.0	GoodResponse	0	0.295	367.71	3	38	Target	AvoidedLoss	True
368.71	0.3	Lose2	0.5640999999999999	0.001	Yes	2.834	-0.001	2.0	GoodResponse	0	0.295	n/a	3	38	ButtonPress	AvoidedLoss	True
368.782	0.34	Lose2	0.5640999999999999	n/a	Yes	2.834	n/a	n/a	GoodResponse	0	n/a	n/a	3	38	Blank	AvoidedLoss	True
369.115	1.45	Lose2	0.5640999999999999	n/a	Yes	2.834	n/a	5.0	GoodResponse	0	0.029	368.144	3	38	Feedback	AvoidedLoss	True
370.564	2.834	Lose2	0.5640999999999999	n/a	Yes	2.834	n/a	n/a	GoodResponse	0	0.0	n/a	3	38	ISIslide	AvoidedLoss	True
373.413	0.25	Win2	0.55	0.0	No	2.987	0.013	n/a	NoResponse	0	n/a	n/a	3	39	Cue	MissedWin	True
373.663	4.1	Win2	0.55	0.0	No	2.987	0.0	n/a	NoResponse	0	n/a	n/a	3	39	Fixation	MissedWin	True
377.762	0.37	Win2	0.55	0.001	No	2.987	-0.001	2.0	NoResponse	0	0.396	377.158	3	39	Target	MissedWin	True
378.145	0.33	Win2	0.55	n/a	No	2.987	n/a	n/a	NoResponse	0	n/a	n/a	3	39	Blank	MissedWin	True
378.158	0.3	Win2	0.55	0.001	No	2.987	-0.001	2.0	NoResponse	0	0.396	n/a	3	39	ButtonPress	MissedWin	True
378.461	1.45	Win2	0.55	n/a	No	2.987	n/a	5.0	NoResponse	0	0.049	377.51	3	39	Feedback	MissedWin	True
379.911	2.987	Win2	0.55	n/a	No	2.987	n/a	n/a	NoResponse	0	0.0	n/a	3	39	ISIslide	MissedWin	True
382.927	0.25	Win2	0.561	0.0	Yes	2.723	0.027	n/a	GoodResponse	1	n/a	n/a	4	40	Cue	Win	True
383.176	3.95	Win2	0.561	0.001	Yes	2.723	-0.001	n/a	GoodResponse	1	n/a	n/a	4	40	Fixation	Win	True
387.125	0.38	Win2	0.561	0.002	Yes	2.723	-0.002	2.0	GoodResponse	1	0.264	386.389	4	40	Target	Win	True
387.389	0.3	Win2	0.561	0.002	Yes	2.723	-0.002	2.0	GoodResponse	1	0.264	n/a	4	40	ButtonPress	Win	True
387.508	0.32	Win2	0.561	n/a	Yes	2.723	n/a	n/a	GoodResponse	1	n/a	n/a	4	40	Blank	Win	True
387.825	1.45	Win2	0.561	n/a	Yes	2.723	n/a	5.0	GoodResponse	1	0.002	386.827	4	40	Feedback	Win	True
389.274	2.723	Win2	0.561	n/a	Yes	2.723	n/a	n/a	GoodResponse	1	0.0	n/a	4	40	ISIslide	Win	True
392.023	0.25	Win2	0.5714	0.0	Yes	2.777	0.023	n/a	GoodResponse	1	n/a	n/a	5	41	Cue	Win	True
392.273	3.9	Win2	0.5714	0.0	Yes	2.777	0.0	n/a	GoodResponse	1	n/a	n/a	5	41	Fixation	Win	True
396.172	0.39	Win2	0.5714	0.001	Yes	2.777	-0.001	2.0	GoodResponse	1	0.281	395.453	5	41	Target	Win	True
396.453	0.3	Win2	0.5714	0.001	Yes	2.777	-0.001	2.0	GoodResponse	1	0.281	n/a	5	41	ButtonPress	Win	True
396.572	0.31	Win2	0.5714	n/a	Yes	2.777	n/a	n/a	GoodResponse	1	n/a	n/a	5	41	Blank	Win	True
396.872	1.45	Win2	0.5714	n/a	Yes	2.777	n/a	5.0	GoodResponse	1	0.027	395.899	5	41	Feedback	Win	True
398.321	2.777	Win2	0.5714	n/a	Yes	2.777	n/a	n/a	GoodResponse	1	0.0	n/a	5	41	ISIslide	Win	True
401.12	0.25	Control	0.5814	0.0	Yes	2.93	0.02	n/a	GoodResponse	0	n/a	n/a	5	42	Cue	Neutral	True
401.37	3.85	Control	0.5814	0.0	Yes	2.93	0.0	n/a	GoodResponse	0	n/a	n/a	5	42	Fixation	Neutral	True
405.219	0.4	Control	0.5814	0.001	Yes	2.93	-0.001	2.0	GoodResponse	0	0.305	404.524	5	42	Target	Neutral	True
405.524	0.3	Control	0.5814	0.001	Yes	2.93	-0.001	2.0	GoodResponse	0	0.305	n/a	5	42	ButtonPress	Neutral	True
405.619	0.3	Control	0.5814	n/a	Yes	2.93	n/a	n/a	GoodResponse	0	n/a	n/a	5	42	Blank	Neutral	True
405.918	1.45	Control	0.5814	n/a	Yes	2.93	n/a	5.0	GoodResponse	0	0.007	404.925	5	42	Feedback	Neutral	True
407.368	2.93	Control	0.5814	n/a	Yes	2.93	n/a	n/a	GoodResponse	0	0.0	n/a	5	42	ISIslide	Neutral	True
410.317	0.25	Win2	0.5909	0.0	Yes	3.183	0.017	n/a	GoodResponse	1	n/a	n/a	6	43	Cue	Win	True
410.567	4.0	Win2	0.5909	0.0	Yes	3.183	0.0	n/a	GoodResponse	1	n/a	n/a	6	43	Fixation	Win	True
414.565	0.41	Win2	0.5909	0.002	Yes	3.183	-0.002	2.0	GoodResponse	1	0.309	413.874	6	43	Target	Win	True
414.874	0.3	Win2	0.5909	0.002	Yes	3.183	-0.002	2.0	GoodResponse	1	0.309	n/a	6	43	ButtonPress	Win	True
414.982	0.29	Win2	0.5909	n/a	Yes	3.183	n/a	n/a	GoodResponse	1	n/a	n/a	6	43	Blank	Win	True
415.265	1.45	Win2	0.5909	n/a	Yes	3.183	n/a	5.0	GoodResponse	1	0.025	414.29	6	43	Feedback	Win	True
416.715	3.183	Win2	0.5909	n/a	Yes	3.183	n/a	n/a	GoodResponse	1	0.0	n/a	6	43	ISIslide	Win	True
419.93	0.25	Win2	0.6	0.0	Yes	2.97	0.03	n/a	GoodResponse	1	n/a	n/a	7	44	Cue	Win	True
420.18	4.0	Win2	0.6	0.0	Yes	2.97	0.0	n/a	GoodResponse	1	n/a	n/a	7	44	Fixation	Win	True
424.179	0.42	Win2	0.6	0.001	Yes	2.97	-0.001	2.0	GoodResponse	1	0.261	423.44	7	44	Target	Win	True
424.44	0.3	Win2	0.6	0.001	Yes	2.97	-0.001	2.0	GoodResponse	1	0.261	n/a	7	44	ButtonPress	Win	True
424.612	0.28	Win2	0.6	n/a	Yes	2.97	n/a	n/a	GoodResponse	1	n/a	n/a	7	44	Blank	Win	True
424.878	1.45	Win2	0.6	n/a	Yes	2.97	n/a	5.0	GoodResponse	1	0.022	423.9	7	44	Feedback	Win	True
426.328	2.97	Win2	0.6	n/a	Yes	2.97	n/a	n/a	GoodResponse	1	0.0	n/a	7	44	ISIslide	Win	True
429.327	0.25	Control	0.6087	0.0	Yes	2.873	0.027	n/a	GoodResponse	0	n/a	n/a	7	45	Cue	Neutral	True
429.577	4.1	Control	0.6087	0.0	Yes	2.873	0.0	n/a	GoodResponse	0	n/a	n/a	7	45	Fixation	Neutral	True
433.675	0.43	Control	0.6087	0.002	Yes	2.873	-0.002	2.0	GoodResponse	0	0.309	432.984	7	45	Target	Neutral	True
433.984	0.3	Control	0.6087	0.002	Yes	2.873	-0.002	2.0	GoodResponse	0	0.309	n/a	7	45	ButtonPress	Neutral	True
434.109	0.27	Control	0.6087	n/a	Yes	2.873	n/a	n/a	GoodResponse	0	n/a	n/a	7	45	Blank	Neutral	True
434.375	1.45	Control	0.6087	n/a	Yes	2.873	n/a	5.0	GoodResponse	0	0.037	433.412	7	45	Feedback	Neutral	True
435.825	2.873	Control	0.6087	n/a	Yes	2.873	n/a	n/a	GoodResponse	0	0.0	n/a	7	45	ISIslide	Neutral	True
438.724	0.25	Lose2	0.617	0.0	Yes	3.376	0.024	n/a	GoodResponse	0	n/a	n/a	7	46	Cue	AvoidedLoss	True
438.973	4.0	Lose2	0.617	0.001	Yes	3.376	-0.001	n/a	GoodResponse	0	n/a	n/a	7	46	Fixation	AvoidedLoss	True
442.972	0.44	Lose2	0.617	0.002	Yes	3.376	-0.002	2.0	GoodResponse	0	0.279	442.251	7	46	Target	AvoidedLoss	True
443.251	0.3	Lose2	0.617	0.002	Yes	3.376	-0.002	2.0	GoodResponse	0	0.279	n/a	7	46	ButtonPress	AvoidedLoss	True
443.422	0.26	Lose2	0.617	n/a	Yes	3.376	n/a	n/a	GoodResponse	0	n/a	n/a	7	46	Blank	AvoidedLoss	True
443.672	1.45	Lose2	0.617	n/a	Yes	3.376	n/a	5.0	GoodResponse	0	0.008	442.68	7	46	Feedback	AvoidedLoss	True
445.121	3.376	Lose2	0.617	n/a	Yes	3.376	n/a	n/a	GoodResponse	0	0.0	n/a	7	46	ISIslide	AvoidedLoss	True
448.52	0.25	Lose2	0.625	0.0	Yes	2.68	0.02	n/a	GoodResponse	0	n/a	n/a	7	47	Cue	AvoidedLoss	True
448.77	4.0	Lose2	0.625	0.0	Yes	2.68	0.0	n/a	GoodResponse	0	n/a	n/a	7	47	Fixation	AvoidedLoss	True
452.769	0.45	Lose2	0.625	0.001	Yes	2.68	-0.001	2.0	GoodResponse	0	0.41	452.179	7	47	Target	AvoidedLoss	True
453.179	0.3	Lose2	0.625	0.001	Yes	2.68	-0.001	2.0	GoodResponse	0	0.41	n/a	7	47	ButtonPress	AvoidedLoss	True
453.218	0.25	Lose2	0.625	n/a	Yes	2.68	n/a	n/a	GoodResponse	0	n/a	n/a	7	47	Blank	AvoidedLoss	True
453.468	1.45	Lose2	0.625	n/a	Yes	2.68	n/a	5.0	GoodResponse	0	0.016	452.484	7	47	Feedback	AvoidedLoss	True
454.918	2.68	Lose2	0.625	n/a	Yes	2.68	n/a	n/a	GoodResponse	0	0.0	n/a	7	47	ISIslide	AvoidedLoss	True
457.617	0.25	Lose2	0.6122	0.0	No	3.033	0.017	n/a	NoResponse	-1	n/a	n/a	6	48	Cue	Loss	True
457.867	3.95	Lose2	0.6122	0.0	No	3.033	0.0	n/a	NoResponse	-1	n/a	n/a	6	48	Fixation	Loss	True
461.815	0.46	Lose2	0.6122	0.002	No	3.033	-0.002	2.0	NoResponse	-1	0.634	461.449	6	48	Target	Loss	True
462.282	0.24	Lose2	0.6122	n/a	No	3.033	n/a	n/a	NoResponse	-1	n/a	n/a	6	48	Blank	Loss	True
462.449	0.3	Lose2	0.6122	0.002	No	3.033	-0.002	2.0	NoResponse	-1	0.634	n/a	6	48	ButtonPress	Loss	True
462.515	1.45	Lose2	0.6122	n/a	No	3.033	n/a	5.0	NoResponse	-1	0.043	461.558	6	48	Feedback	Loss	True
463.965	3.033	Lose2	0.6122	n/a	No	3.033	n/a	n/a	NoResponse	-1	0.0	n/a	6	48	ISIslide	Loss	True
467.014	0.25	Control	0.62	0.0	Yes	2.886	0.014	n/a	GoodResponse	0	n/a	n/a	6	49	Cue	Neutral	True
467.264	4.0	Control	0.62	0.0	Yes	2.886	0.0	n/a	GoodResponse	0	n/a	n/a	6	49	Fixation	Neutral	True
471.262	0.47	Control	0.62	0.002	Yes	2.886	-0.002	2.0	GoodResponse	0	0.347	470.609	6	49	Target	Neutral	True
471.609	0.3	Control	0.62	0.002	Yes	2.886	-0.002	2.0	GoodResponse	0	0.347	n/a	6	49	ButtonPress	Neutral	True
471.745	0.23	Control	0.62	n/a	Yes	2.886	n/a	n/a	GoodResponse	0	n/a	n/a	6	49	Blank	Neutral	True
471.962	1.45	Control	0.62	n/a	Yes	2.886	n/a	5.0	GoodResponse	0	0.011	470.973	6	49	Feedback	Neutral	True
473.411	2.886	Control	0.62	n/a	Yes	2.886	n/a	n/a	GoodResponse	0	0.0	n/a	6	49	ISIslide	Neutral	True
476.327	0.25	Control	0.6275	0.0	Yes	2.773	0.027	n/a	GoodResponse	0	n/a	n/a	6	50	Cue	Neutral	True
476.577	4.0	Control	0.6275	0.0	Yes	2.773	0.0	n/a	GoodResponse	0	n/a	n/a	6	50	Fixation	Neutral	True
480.575	0.48	Control	0.6275	0.002	Yes	2.773	-0.002	2.0	GoodResponse	0	0.372	479.947	6	50	Target	Neutral	True
480.947	0.3	Control	0.6275	0.002	Yes	2.773	-0.002	2.0	GoodResponse	0	0.372	n/a	6	50	ButtonPress	Neutral	True
481.059	0.22	Control	0.6275	n/a	Yes	2.773	n/a	n/a	GoodResponse	0	n/a	n/a	6	50	Blank	Neutral	True
481.275	1.45	Control	0.6275	n/a	Yes	2.773	n/a	5.0	GoodResponse	0	0.015	480.29	6	50	Feedback	Neutral	True
482.725	2.773	Control	0.6275	n/a	Yes	2.773	n/a	n/a	GoodResponse	0	0.0	n/a	6	50	ISIslide	Neutral	True
485.524	0.25	Control	0.6346	0.0	Yes	2.726	0.024	n/a	GoodResponse	0	n/a	n/a	6	51	Cue	Neutral	True
485.774	3.95	Control	0.6346	0.0	Yes	2.726	0.0	n/a	GoodResponse	0	n/a	n/a	6	51	Fixation	Neutral	True
489.722	0.49	Control	0.6346	0.002	Yes	2.726	-0.002	2.0	GoodResponse	0	0.268	488.99	6	51	Target	Neutral	True
489.99	0.3	Control	0.6346	0.002	Yes	2.726	-0.002	2.0	GoodResponse	0	0.268	n/a	6	51	ButtonPress	Neutral	True
490.222	0.21	Control	0.6346	n/a	Yes	2.726	n/a	n/a	GoodResponse	0	n/a	n/a	6	51	Blank	Neutral	True
490.422	1.45	Control	0.6346	n/a	Yes	2.726	n/a	5.0	GoodResponse	0	0.038	489.46	6	51	Feedback	Neutral	True
491.872	2.726	Control	0.6346	n/a	Yes	2.726	n/a	n/a	GoodResponse	0	0.0	n/a	6	51	ISIslide	Neutral	True
494.621	0.25	Control	0.6415000000000001	0.0	Yes	2.629	0.021	n/a	GoodResponse	0	n/a	n/a	6	52	Cue	Neutral	True
494.87	4.05	Control	0.6415000000000001	0.001	Yes	2.629	-0.001	n/a	GoodResponse	0	n/a	n/a	6	52	Fixation	Neutral	True
498.919	0.5	Control	0.6415000000000001	0.002	Yes	2.629	-0.002	2.0	GoodResponse	0	0.369	498.288	6	52	Target	Neutral	True
499.288	0.3	Control	0.6415000000000001	0.002	Yes	2.629	-0.002	2.0	GoodResponse	0	0.369	n/a	6	52	ButtonPress	Neutral	True
499.419	0.2	Control	0.6415000000000001	n/a	Yes	2.629	n/a	n/a	GoodResponse	0	n/a	n/a	6	52	Blank	Neutral	True
499.619	1.45	Control	0.6415000000000001	n/a	Yes	2.629	n/a	5.0	GoodResponse	0	0.011	498.63	6	52	Feedback	Neutral	True
501.068	2.629	Control	0.6415000000000001	n/a	Yes	2.629	n/a	n/a	GoodResponse	0	0.0	n/a	6	52	ISIslide	Neutral	True
503.717	0.25	Win2	0.6481	0.0	Yes	2.933	0.017	n/a	GoodResponse	1	n/a	n/a	7	53	Cue	Win	True
503.967	4.05	Win2	0.6481	0.0	Yes	2.933	0.0	n/a	GoodResponse	1	n/a	n/a	7	53	Fixation	Win	True
508.016	0.5	Win2	0.6481	0.001	Yes	2.933	-0.001	2.0	GoodResponse	1	0.27	507.286	7	53	Target	Win	True
508.286	0.3	Win2	0.6481	0.001	Yes	2.933	-0.001	2.0	GoodResponse	1	0.27	n/a	7	53	ButtonPress	Win	True
508.516	0.2	Win2	0.6481	n/a	Yes	2.933	n/a	n/a	GoodResponse	1	n/a	n/a	7	53	Blank	Win	True
508.716	1.45	Win2	0.6481	n/a	Yes	2.933	n/a	5.0	GoodResponse	1	0.036	507.752	7	53	Feedback	Win	True
510.165	2.933	Win2	0.6481	n/a	Yes	2.933	n/a	n/a	GoodResponse	1	0.0	n/a	7	53	ISIslide	Win	True
513.131	0.25	Win2	0.6545000000000001	0.0	Yes	2.719	0.031	n/a	GoodResponse	1	n/a	n/a	8	54	Cue	Win	True
513.381	3.95	Win2	0.6545000000000001	0.0	Yes	2.719	0.0	n/a	GoodResponse	1	n/a	n/a	8	54	Fixation	Win	True
517.329	0.5	Win2	0.6545000000000001	0.002	Yes	2.719	-0.002	2.0	GoodResponse	1	0.405	516.734	8	54	Target	Win	True
517.734	0.3	Win2	0.6545000000000001	0.002	Yes	2.719	-0.002	2.0	GoodResponse	1	0.405	n/a	8	54	ButtonPress	Win	True
517.829	0.2	Win2	0.6545000000000001	n/a	Yes	2.719	n/a	n/a	GoodResponse	1	n/a	n/a	8	54	Blank	Win	True
518.029	1.45	Win2	0.6545000000000001	n/a	Yes	2.719	n/a	5.0	GoodResponse	1	0.041	517.07	8	54	Feedback	Win	True
519.478	2.719	Win2	0.6545000000000001	n/a	Yes	2.719	n/a	n/a	GoodResponse	1	0.0	n/a	8	54	ISIslide	Win	True
522.227	0.25	Control	0.6607	0.001	Yes	3.023	0.027	n/a	GoodResponse	0	n/a	n/a	8	55	Cue	Neutral	True
522.477	3.95	Control	0.6607	0.0	Yes	3.023	0.0	n/a	GoodResponse	0	n/a	n/a	8	55	Fixation	Neutral	True
526.426	0.5	Control	0.6607	0.001	Yes	3.023	-0.001	2.0	GoodResponse	0	0.334	525.76	8	55	Target	Neutral	True
526.76	0.3	Control	0.6607	0.001	Yes	3.023	-0.001	2.0	GoodResponse	0	0.334	n/a	8	55	ButtonPress	Neutral	True
526.926	0.2	Control	0.6607	n/a	Yes	3.023	n/a	n/a	GoodResponse	0	n/a	n/a	8	55	Blank	Neutral	True
527.126	1.45	Control	0.6607	n/a	Yes	3.023	n/a	5.0	GoodResponse	0	0.016	526.142	8	55	Feedback	Neutral	True
528.575	3.023	Control	0.6607	n/a	Yes	3.023	n/a	n/a	GoodResponse	0	0.0	n/a	8	55	ISIslide	Neutral	True
531.624	0.25	Control	0.6667000000000001	0.0	Yes	2.826	0.024	n/a	GoodResponse	0	n/a	n/a	8	56	Cue	Neutral	True
531.874	3.95	Control	0.6667000000000001	0.0	Yes	2.826	0.0	n/a	GoodResponse	0	n/a	n/a	8	56	Fixation	Neutral	True
535.823	0.5	Control	0.6667000000000001	0.001	Yes	2.826	-0.001	2.0	GoodResponse	0	0.305	535.128	8	56	Target	Neutral	True
536.128	0.3	Control	0.6667000000000001	0.001	Yes	2.826	-0.001	2.0	GoodResponse	0	0.305	n/a	8	56	ButtonPress	Neutral	True
536.323	0.2	Control	0.6667000000000001	n/a	Yes	2.826	n/a	n/a	GoodResponse	0	n/a	n/a	8	56	Blank	Neutral	True
536.522	1.45	Control	0.6667000000000001	n/a	Yes	2.826	n/a	5.0	GoodResponse	0	0.035	535.557	8	56	Feedback	Neutral	True
537.972	2.826	Control	0.6667000000000001	n/a	Yes	2.826	n/a	n/a	GoodResponse	0	0.0	n/a	8	56	ISIslide	Neutral	True
540.821	0.25	Control	0.6724	0.0	Yes	3.479	0.021	n/a	GoodResponse	0	n/a	n/a	8	57	Cue	Neutral	True
541.071	4.0	Control	0.6724	0.0	Yes	3.479	0.0	n/a	GoodResponse	0	n/a	n/a	8	57	Fixation	Neutral	True
545.069	0.49	Control	0.6724	0.002	Yes	3.479	-0.002	2.0	GoodResponse	0	0.301	544.37	8	57	Target	Neutral	True
545.37	0.3	Control	0.6724	0.002	Yes	3.479	-0.002	2.0	GoodResponse	0	0.301	n/a	8	57	ButtonPress	Neutral	True
545.569	0.21	Control	0.6724	n/a	Yes	3.479	n/a	n/a	GoodResponse	0	n/a	n/a	8	57	Blank	Neutral	True
545.769	1.45	Control	0.6724	n/a	Yes	3.479	n/a	5.0	GoodResponse	0	0.007	544.776	8	57	Feedback	Neutral	True
547.219	3.479	Control	0.6724	n/a	Yes	3.479	n/a	n/a	GoodResponse	0	0.0	n/a	8	57	ISIslide	Neutral	True
550.717	0.25	Win2	0.6779999999999999	0.001	Yes	2.733	0.017	n/a	GoodResponse	1	n/a	n/a	9	58	Cue	Win	True
550.967	4.05	Win2	0.6779999999999999	0.0	Yes	2.733	0.0	n/a	GoodResponse	1	n/a	n/a	9	58	Fixation	Win	True
555.016	0.48	Win2	0.6779999999999999	0.001	Yes	2.733	-0.001	2.0	GoodResponse	1	0.363	554.379	9	58	Target	Win	True
555.379	0.3	Win2	0.6779999999999999	0.001	Yes	2.733	-0.001	2.0	GoodResponse	1	0.363	n/a	9	58	ButtonPress	Win	True
555.499	0.22	Win2	0.6779999999999999	n/a	Yes	2.733	n/a	n/a	GoodResponse	1	n/a	n/a	9	58	Blank	Win	True
555.716	1.45	Win2	0.6779999999999999	n/a	Yes	2.733	n/a	5.0	GoodResponse	1	0.012	554.728	9	58	Feedback	Win	True
557.165	2.733	Win2	0.6779999999999999	n/a	Yes	2.733	n/a	n/a	GoodResponse	1	0.0	n/a	9	58	ISIslide	Win	True
559.914	0.25	Lose2	0.6667000000000001	0.0	No	2.686	0.014	n/a	NoResponse	-1	n/a	n/a	8	59	Cue	Loss	True
560.164	4.0	Lose2	0.6667000000000001	0.0	No	2.686	0.0	n/a	NoResponse	-1	n/a	n/a	8	59	Fixation	Loss	True
564.163	0.47	Lose2	0.6667000000000001	0.001	No	2.686	-0.001	2.0	NoResponse	-1	0.575	563.738	8	59	Target	Loss	True
564.646	0.23	Lose2	0.6667000000000001	n/a	No	2.686	n/a	n/a	NoResponse	-1	n/a	n/a	8	59	Blank	Loss	True
564.738	0.3	Lose2	0.6667000000000001	0.001	No	2.686	-0.001	2.0	NoResponse	-1	0.575	n/a	8	59	ButtonPress	Loss	True
564.862	1.45	Lose2	0.6667000000000001	n/a	No	2.686	n/a	5.0	NoResponse	-1	0.036	563.898	8	59	Feedback	Loss	True
566.312	2.686	Lose2	0.6667000000000001	n/a	No	2.686	n/a	n/a	NoResponse	-1	0.0	n/a	8	59	ISIslide	Loss	True
569.028	0.25	Control	0.6720999999999999	0.0	Yes	2.672	0.028	n/a	GoodResponse	0	n/a	n/a	8	60	Cue	Neutral	True
569.278	4.0	Control	0.6720999999999999	0.0	Yes	2.672	0.0	n/a	GoodResponse	0	n/a	n/a	8	60	Fixation	Neutral	True
573.276	0.46	Control	0.6720999999999999	0.002	Yes	2.672	-0.002	2.0	GoodResponse	0	0.299	572.575	8	60	Target	Neutral	True
573.575	0.3	Control	0.6720999999999999	0.002	Yes	2.672	-0.002	2.0	GoodResponse	0	0.299	n/a	8	60	ButtonPress	Neutral	True
573.743	0.24	Control	0.6720999999999999	n/a	Yes	2.672	n/a	n/a	GoodResponse	0	n/a	n/a	8	60	Blank	Neutral	True
573.976	1.45	Control	0.6720999999999999	n/a	Yes	2.672	n/a	5.0	GoodResponse	0	0.044	573.02	8	60	Feedback	Neutral	True
575.425	2.672	Control	0.6720999999999999	n/a	Yes	2.672	n/a	n/a	GoodResponse	0	0.0	n/a	8	60	ISIslide	Neutral	True
578.124	0.25	Lose2	0.6774	0.001	Yes	2.976	0.024	n/a	GoodResponse	0	n/a	n/a	8	61	Cue	AvoidedLoss	True
578.374	4.0	Lose2	0.6774	0.0	Yes	2.976	0.0	n/a	GoodResponse	0	n/a	n/a	8	61	Fixation	AvoidedLoss	True
582.373	0.45	Lose2	0.6774	0.001	Yes	2.976	-0.001	2.0	GoodResponse	0	0.411	581.784	8	61	Target	AvoidedLoss	True
582.784	0.3	Lose2	0.6774	0.001	Yes	2.976	-0.001	2.0	GoodResponse	0	0.411	n/a	8	61	ButtonPress	AvoidedLoss	True
582.823	0.25	Lose2	0.6774	n/a	Yes	2.976	n/a	n/a	GoodResponse	0	n/a	n/a	8	61	Blank	AvoidedLoss	True
583.073	1.45	Lose2	0.6774	n/a	Yes	2.976	n/a	5.0	GoodResponse	0	0.02	582.093	8	61	Feedback	AvoidedLoss	True
584.522	2.976	Lose2	0.6774	n/a	Yes	2.976	n/a	n/a	GoodResponse	0	0.0	n/a	8	61	ISIslide	AvoidedLoss	True
587.521	0.25	Lose2	0.6825	0.0	Yes	2.879	0.021	n/a	GoodResponse	0	n/a	n/a	8	62	Cue	AvoidedLoss	True
587.771	3.9	Lose2	0.6825	0.0	Yes	2.879	0.0	n/a	GoodResponse	0	n/a	n/a	8	62	Fixation	AvoidedLoss	True
591.67	0.44	Lose2	0.6825	0.001	Yes	2.879	-0.001	2.0	GoodResponse	0	0.28	590.95	8	62	Target	AvoidedLoss	True
591.95	0.3	Lose2	0.6825	0.001	Yes	2.879	-0.001	2.0	GoodResponse	0	0.28	n/a	8	62	ButtonPress	AvoidedLoss	True
592.12	0.26	Lose2	0.6825	n/a	Yes	2.879	n/a	n/a	GoodResponse	0	n/a	n/a	8	62	Blank	AvoidedLoss	True
592.369	1.45	Lose2	0.6825	n/a	Yes	2.879	n/a	5.0	GoodResponse	0	0.041	591.41	8	62	Feedback	AvoidedLoss	True
593.819	2.879	Lose2	0.6825	n/a	Yes	2.879	n/a	n/a	GoodResponse	0	0.0	n/a	8	62	ISIslide	AvoidedLoss	True
596.718	0.25	Lose2	0.6875	0.0	Yes	2.632	0.018	n/a	GoodResponse	0	n/a	n/a	8	63	Cue	AvoidedLoss	True
596.968	4.05	Lose2	0.6875	0.0	Yes	2.632	0.0	n/a	GoodResponse	0	n/a	n/a	8	63	Fixation	AvoidedLoss	True
601.016	0.43	Lose2	0.6875	0.002	Yes	2.632	-0.002	2.0	GoodResponse	0	0.33	600.346	8	63	Target	AvoidedLoss	True
601.346	0.3	Lose2	0.6875	0.002	Yes	2.632	-0.002	2.0	GoodResponse	0	0.33	n/a	8	63	ButtonPress	AvoidedLoss	True
601.45	0.27	Lose2	0.6875	n/a	Yes	2.632	n/a	n/a	GoodResponse	0	n/a	n/a	8	63	Blank	AvoidedLoss	True
601.716	1.45	Lose2	0.6875	n/a	Yes	2.632	n/a	5.0	GoodResponse	0	0.011	600.727	8	63	Feedback	AvoidedLoss	True
603.166	2.632	Lose2	0.6875	n/a	Yes	2.632	n/a	n/a	GoodResponse	0	0.0	n/a	8	63	ISIslide	AvoidedLoss	True
605.815	0.25	Win2	0.6923	0.0	Yes	3.135	0.015	n/a	GoodResponse	1	n/a	n/a	9	64	Cue	Win	True
606.065	4.15	Win2	0.6923	0.0	Yes	3.135	0.0	n/a	GoodResponse	1	n/a	n/a	9	64	Fixation	Win	True
610.213	0.42	Win2	0.6923	0.002	Yes	3.135	-0.002	2.0	GoodResponse	1	0.265	609.478	9	64	Target	Win	True
610.478	0.3	Win2	0.6923	0.002	Yes	3.135	-0.002	2.0	GoodResponse	1	0.265	n/a	9	64	ButtonPress	Win	True
610.646	0.28	Win2	0.6923	n/a	Yes	3.135	n/a	n/a	GoodResponse	1	n/a	n/a	9	64	Blank	Win	True
610.913	1.45	Win2	0.6923	n/a	Yes	3.135	n/a	5.0	GoodResponse	1	0.033	609.946	9	64	Feedback	Win	True
612.362	3.135	Win2	0.6923	n/a	Yes	3.135	n/a	n/a	GoodResponse	1	0.0	n/a	9	64	ISIslide	Win	True
615.511	0.25	Control	0.6970000000000001	0.0	Yes	2.789	0.011	n/a	GoodResponse	0	n/a	n/a	9	65	Cue	Neutral	True
615.761	4.0	Control	0.6970000000000001	0.0	Yes	2.789	0.0	n/a	GoodResponse	0	n/a	n/a	9	65	Fixation	Neutral	True
619.76	0.41	Control	0.6970000000000001	0.001	Yes	2.789	-0.001	2.0	GoodResponse	0	0.319	619.079	9	65	Target	Neutral	True
620.079	0.3	Control	0.6970000000000001	0.001	Yes	2.789	-0.001	2.0	GoodResponse	0	0.319	n/a	9	65	ButtonPress	Neutral	True
620.176	0.29	Control	0.6970000000000001	n/a	Yes	2.789	n/a	n/a	GoodResponse	0	n/a	n/a	9	65	Blank	Neutral	True
620.46	1.45	Control	0.6970000000000001	n/a	Yes	2.789	n/a	5.0	GoodResponse	0	0.047	619.507	9	65	Feedback	Neutral	True
621.909	2.789	Control	0.6970000000000001	n/a	Yes	2.789	n/a	n/a	GoodResponse	0	0.0	n/a	9	65	ISIslide	Neutral	True
624.725	0.25	Win2	0.7015	0.0	Yes	2.775	0.025	n/a	GoodResponse	1	n/a	n/a	10	66	Cue	Win	True
624.975	3.9	Win2	0.7015	0.0	Yes	2.775	0.0	n/a	GoodResponse	1	n/a	n/a	10	66	Fixation	Win	True
628.873	0.4	Win2	0.7015	0.002	Yes	2.775	-0.002	2.0	GoodResponse	1	0.271	628.144	10	66	Target	Win	True
629.144	0.3	Win2	0.7015	0.002	Yes	2.775	-0.002	2.0	GoodResponse	1	0.271	n/a	10	66	ButtonPress	Win	True
629.273	0.3	Win2	0.7015	n/a	Yes	2.775	n/a	n/a	GoodResponse	1	n/a	n/a	10	66	Blank	Win	True
629.573	1.45	Win2	0.7015	n/a	Yes	2.775	n/a	5.0	GoodResponse	1	0.007	628.58	10	66	Feedback	Win	True
631.022	2.775	Win2	0.7015	n/a	Yes	2.775	n/a	n/a	GoodResponse	1	0.0	n/a	10	66	ISIslide	Win	True
633.822	0.25	Control	0.7059000000000001	0.0	Yes	2.728	0.022	n/a	GoodResponse	0	n/a	n/a	10	67	Cue	Neutral	True
634.071	3.95	Control	0.7059000000000001	0.001	Yes	2.728	-0.001	n/a	GoodResponse	0	n/a	n/a	10	67	Fixation	Neutral	True
638.02	0.39	Control	0.7059000000000001	0.002	Yes	2.728	-0.002	2.0	GoodResponse	0	0.319	637.339	10	67	Target	Neutral	True
638.339	0.3	Control	0.7059000000000001	0.002	Yes	2.728	-0.002	2.0	GoodResponse	0	0.319	n/a	10	67	ButtonPress	Neutral	True
638.42	0.31	Control	0.7059000000000001	n/a	Yes	2.728	n/a	n/a	GoodResponse	0	n/a	n/a	10	67	Blank	Neutral	True
638.72	1.45	Control	0.7059000000000001	n/a	Yes	2.728	n/a	5.0	GoodResponse	0	0.031	637.751	10	67	Feedback	Neutral	True
640.169	2.728	Control	0.7059000000000001	n/a	Yes	2.728	n/a	n/a	GoodResponse	0	0.0	n/a	10	67	ISIslide	Neutral	True
642.918	0.25	Win2	0.7101000000000001	0.0	Yes	3.082	0.018	n/a	GoodResponse	1	n/a	n/a	11	68	Cue	Win	True
643.168	4.0	Win2	0.7101000000000001	0.0	Yes	3.082	0.0	n/a	GoodResponse	1	n/a	n/a	11	68	Fixation	Win	True
647.167	0.38	Win2	0.7101000000000001	0.001	Yes	3.082	-0.001	2.0	GoodResponse	1	0.274	646.441	11	68	Target	Win	True
647.441	0.3	Win2	0.7101000000000001	0.001	Yes	3.082	-0.001	2.0	GoodResponse	1	0.274	n/a	11	68	ButtonPress	Win	True
647.55	0.32	Win2	0.7101000000000001	n/a	Yes	3.082	n/a	n/a	GoodResponse	1	n/a	n/a	11	68	Blank	Win	True
647.867	1.45	Win2	0.7101000000000001	n/a	Yes	3.082	n/a	5.0	GoodResponse	1	0.006	646.873	11	68	Feedback	Win	True
649.316	3.082	Win2	0.7101000000000001	n/a	Yes	3.082	n/a	n/a	GoodResponse	1	0.0	n/a	11	68	ISIslide	Win	True
652.415	0.25	Win2	0.7143	0.0	Yes	3.235	0.015	n/a	GoodResponse	1	n/a	n/a	12	69	Cue	Win	True
652.665	3.95	Win2	0.7143	0.0	Yes	3.235	0.0	n/a	GoodResponse	1	n/a	n/a	12	69	Fixation	Win	True
656.613	0.37	Win2	0.7143	0.002	Yes	3.235	-0.002	2.0	GoodResponse	1	0.328	655.941	12	69	Target	Win	True
656.941	0.3	Win2	0.7143	0.002	Yes	3.235	-0.002	2.0	GoodResponse	1	0.328	n/a	12	69	ButtonPress	Win	True
656.997	0.33	Win2	0.7143	n/a	Yes	3.235	n/a	n/a	GoodResponse	1	n/a	n/a	12	69	Blank	Win	True
657.313	1.45	Win2	0.7143	n/a	Yes	3.235	n/a	5.0	GoodResponse	1	0.023	656.336	12	69	Feedback	Win	True
658.763	3.235	Win2	0.7143	n/a	Yes	3.235	n/a	n/a	GoodResponse	1	0.0	n/a	12	69	ISIslide	Win	True
662.028	0.25	Lose2	0.7182999999999999	0.0	Yes	3.022	0.028	n/a	GoodResponse	0	n/a	n/a	12	70	Cue	AvoidedLoss	True
662.278	4.05	Lose2	0.7182999999999999	0.0	Yes	3.022	0.0	n/a	GoodResponse	0	n/a	n/a	12	70	Fixation	AvoidedLoss	True
666.327	0.36	Lose2	0.7182999999999999	0.001	Yes	3.022	-0.001	2.0	GoodResponse	0	0.292	665.619	12	70	Target	AvoidedLoss	True
666.619	0.3	Lose2	0.7182999999999999	0.001	Yes	3.022	-0.001	2.0	GoodResponse	0	0.292	n/a	12	70	ButtonPress	AvoidedLoss	True
666.693	0.34	Lose2	0.7182999999999999	n/a	Yes	3.022	n/a	n/a	GoodResponse	0	n/a	n/a	12	70	Blank	AvoidedLoss	True
667.026	1.45	Lose2	0.7182999999999999	n/a	Yes	3.022	n/a	5.0	GoodResponse	0	0.017	666.043	12	70	Feedback	AvoidedLoss	True
668.476	3.022	Lose2	0.7182999999999999	n/a	Yes	3.022	n/a	n/a	GoodResponse	0	0.0	n/a	12	70	ISIslide	AvoidedLoss	True
671.525	0.25	Win2	0.7222	0.0	Yes	2.725	0.025	n/a	GoodResponse	1	n/a	n/a	13	71	Cue	Win	True
671.775	4.05	Win2	0.7222	0.0	Yes	2.725	0.0	n/a	GoodResponse	1	n/a	n/a	13	71	Fixation	Win	True
675.823	0.35	Win2	0.7222	0.002	Yes	2.725	-0.002	2.0	GoodResponse	1	0.328	675.151	13	71	Target	Win	True
676.151	0.3	Win2	0.7222	0.002	Yes	2.725	-0.002	2.0	GoodResponse	1	0.328	n/a	13	71	ButtonPress	Win	True
676.173	0.35	Win2	0.7222	n/a	Yes	2.725	n/a	n/a	GoodResponse	1	n/a	n/a	13	71	Blank	Win	True
676.523	1.45	Win2	0.7222	n/a	Yes	2.725	n/a	5.0	GoodResponse	1	0.032	675.555	13	71	Feedback	Win	True
677.973	2.725	Win2	0.7222	n/a	Yes	2.725	n/a	n/a	GoodResponse	1	0.0	n/a	13	71	ISIslide	Win	True
680.722	0.25	Win2	0.726	0.0	Yes	2.778	0.022	n/a	GoodResponse	1	n/a	n/a	14	72	Cue	Win	True
680.972	4.1	Win2	0.726	0.0	Yes	2.778	0.0	n/a	GoodResponse	1	n/a	n/a	14	72	Fixation	Win	True
685.07	0.34	Win2	0.726	0.002	Yes	2.778	-0.002	2.0	GoodResponse	1	0.243	684.313	14	72	Target	Win	True
685.313	0.3	Win2	0.726	0.002	Yes	2.778	-0.002	2.0	GoodResponse	1	0.243	n/a	14	72	ButtonPress	Win	True
685.42	0.36	Win2	0.726	n/a	Yes	2.778	n/a	n/a	GoodResponse	1	n/a	n/a	14	72	Blank	Win	True
685.77	1.45	Win2	0.726	n/a	Yes	2.778	n/a	5.0	GoodResponse	1	0.007	684.777	14	72	Feedback	Win	True
687.219	2.778	Win2	0.726	n/a	Yes	2.778	n/a	n/a	GoodResponse	1	0.0	n/a	14	72	ISIslide	Win	True
690.018	0.25	Win2	0.7297	0.0	Yes	2.682	0.018	n/a	GoodResponse	1	n/a	n/a	15	73	Cue	Win	True
690.268	4.0	Win2	0.7297	0.0	Yes	2.682	0.0	n/a	GoodResponse	1	n/a	n/a	15	73	Fixation	Win	True
694.267	0.33	Win2	0.7297	0.001	Yes	2.682	-0.001	2.0	GoodResponse	1	0.253	693.52	15	73	Target	Win	True
694.52	0.3	Win2	0.7297	0.001	Yes	2.682	-0.001	2.0	GoodResponse	1	0.253	n/a	15	73	ButtonPress	Win	True
694.6	0.37	Win2	0.7297	n/a	Yes	2.682	n/a	n/a	GoodResponse	1	n/a	n/a	15	73	Blank	Win	True
694.967	1.45	Win2	0.7297	n/a	Yes	2.682	n/a	5.0	GoodResponse	1	0.027	693.994	15	73	Feedback	Win	True
696.416	2.682	Win2	0.7297	n/a	Yes	2.682	n/a	n/a	GoodResponse	1	0.0	n/a	15	73	ISIslide	Win	True
699.115	0.25	Lose2	0.7333	0.0	Yes	2.635	0.015	n/a	GoodResponse	0	n/a	n/a	15	74	Cue	AvoidedLoss	True
699.365	4.05	Lose2	0.7333	0.0	Yes	2.635	0.0	n/a	GoodResponse	0	n/a	n/a	15	74	Fixation	AvoidedLoss	True
703.414	0.32	Lose2	0.7333	0.001	Yes	2.635	-0.001	2.0	GoodResponse	0	0.205	702.619	15	74	Target	AvoidedLoss	True
703.619	0.3	Lose2	0.7333	0.001	Yes	2.635	-0.001	2.0	GoodResponse	0	0.205	n/a	15	74	ButtonPress	AvoidedLoss	True
703.747	0.38	Lose2	0.7333	n/a	Yes	2.635	n/a	n/a	GoodResponse	0	n/a	n/a	15	74	Blank	AvoidedLoss	True
704.113	1.45	Lose2	0.7333	n/a	Yes	2.635	n/a	5.0	GoodResponse	0	0.007	703.12	15	74	Feedback	AvoidedLoss	True
705.563	2.635	Lose2	0.7333	n/a	Yes	2.635	n/a	n/a	GoodResponse	0	0.0	n/a	15	74	ISIslide	AvoidedLoss	True
708.229	0.25	Lose2	0.7237	0.0	No	2.921	0.029	n/a	NoResponse	-1	n/a	n/a	14	75	Cue	Loss	True
708.479	3.95	Lose2	0.7237	0.0	No	2.921	0.0	n/a	NoResponse	-1	n/a	n/a	14	75	Fixation	Loss	True
712.427	0.31	Lose2	0.7237	0.002	No	2.921	-0.002	2.0	NoResponse	-1	0.386	711.813	14	75	Target	Loss	True
712.744	0.39	Lose2	0.7237	n/a	No	2.921	n/a	n/a	NoResponse	-1	n/a	n/a	14	75	Blank	Loss	True
712.813	0.3	Lose2	0.7237	0.002	No	2.921	-0.002	2.0	NoResponse	-1	0.386	n/a	14	75	ButtonPress	Loss	True
713.127	1.45	Lose2	0.7237	n/a	No	2.921	n/a	5.0	NoResponse	-1	0.013	712.14	14	75	Feedback	Loss	True
714.576	2.921	Lose2	0.7237	n/a	No	2.921	n/a	n/a	NoResponse	-1	0.0	n/a	14	75	ISIslide	Loss	True
717.525	0.25	Control	0.7143	0.0	No	3.225	0.025	n/a	NoResponse	0	n/a	n/a	14	76	Cue	Neutral	True
717.775	4.05	Control	0.7143	0.0	No	3.225	0.0	n/a	NoResponse	0	n/a	n/a	14	76	Fixation	Neutral	True
721.824	0.3	Control	0.7143	0.001	No	3.225	-0.001	2.0	NoResponse	0	0.323	721.147	14	76	Target	Neutral	True
722.124	0.4	Control	0.7143	n/a	No	3.225	n/a	n/a	NoResponse	0	n/a	n/a	14	76	Blank	Neutral	True
722.147	0.3	Control	0.7143	0.001	No	3.225	-0.001	2.0	NoResponse	0	0.323	n/a	14	76	ButtonPress	Neutral	True
722.524	1.45	Control	0.7143	n/a	No	3.225	n/a	5.0	NoResponse	0	0.031	721.555	14	76	Feedback	Neutral	True
723.973	3.225	Control	0.7143	n/a	No	3.225	n/a	n/a	NoResponse	0	0.0	n/a	14	76	ISIslide	Neutral	True
727.222	0.25	Lose2	0.7051000000000001	0.0	No	2.578	0.022	n/a	NoResponse	-1	n/a	n/a	13	77	Cue	Loss	True
727.472	3.95	Lose2	0.7051000000000001	0.0	No	2.578	0.0	n/a	NoResponse	-1	n/a	n/a	13	77	Fixation	Loss	True
731.42	0.29	Lose2	0.7051000000000001	0.002	No	2.578	-0.002	2.0	NoResponse	-1	0.308	730.728	13	77	Target	Loss	True
731.72	0.41	Lose2	0.7051000000000001	n/a	No	2.578	n/a	n/a	NoResponse	-1	n/a	n/a	13	77	Blank	Loss	True
731.728	0.3	Lose2	0.7051000000000001	0.002	No	2.578	-0.002	2.0	NoResponse	-1	0.308	n/a	13	77	ButtonPress	Loss	True
732.12	1.45	Lose2	0.7051000000000001	n/a	No	2.578	n/a	5.0	NoResponse	-1	0.045	731.165	13	77	Feedback	Loss	True
733.57	2.578	Lose2	0.7051000000000001	n/a	No	2.578	n/a	n/a	NoResponse	-1	0.0	n/a	13	77	ISIslide	Loss	True
