onset	duration	cue_type	current_mean_accuracy	duration_error	is_hit	isi_adjusted	onset_delay	response	response_type	reward	rt	rt_time	total_reward	trial_number	trial_phase	trial_type	one_press
11.096	0.25	Control	1.0	0.0	Yes	2.954	-0.004	n/a	GoodResponse	0	n/a	n/a	0	0	Cue	Neutral	True
11.347	3.85	Control	1.0	0.0	Yes	2.954	0.001	n/a	GoodResponse	0	n/a	n/a	0	0	Fixation	Neutral	True
15.192	0.4	Control	1.0	0.004	Yes	2.954	-0.004	4.0	GoodResponse	0	0.266	14.458	0	0	Target	Neutral	True
15.458	0.3	Control	1.0	0.004	Yes	2.954	-0.004	4.0	GoodResponse	0	0.266	n/a	0	0	ButtonPress	Neutral	True
15.593	0.3	Control	1.0	n/a	Yes	2.954	n/a	n/a	GoodResponse	0	n/a	n/a	0	0	Blank	Neutral	True
15.894	1.45	Control	1.0	n/a	Yes	2.954	n/a	5.0	GoodResponse	0	0.034	14.928	0	0	Feedback	Neutral	True
17.348	2.954	Control	1.0	n/a	Yes	2.954	n/a	n/a	GoodResponse	0	0.0	n/a	0	0	ISIslide	Neutral	True
20.324	0.25	Lose2	1.0	0.0	Yes	2.776	0.024	n/a	GoodResponse	0	n/a	n/a	0	1	Cue	AvoidedLoss	True
20.575	4.0	Lose2	1.0	0.0	Yes	2.776	0.001	n/a	GoodResponse	0	n/a	n/a	0	1	Fixation	AvoidedLoss	True
24.57	0.39	Lose2	1.0	0.004	Yes	2.776	-0.004	4.0	GoodResponse	0	0.218	23.788	0	1	Target	AvoidedLoss	True
24.788	0.3	Lose2	1.0	0.004	Yes	2.776	-0.004	4.0	GoodResponse	0	0.218	n/a	0	1	ButtonPress	AvoidedLoss	True
24.971	0.31	Lose2	1.0	n/a	Yes	2.776	n/a	n/a	GoodResponse	0	n/a	n/a	0	1	Blank	AvoidedLoss	True
25.272	1.45	Lose2	1.0	n/a	Yes	2.776	n/a	5.0	GoodResponse	0	0.022	24.294	0	1	Feedback	AvoidedLoss	True
26.727	2.776	Lose2	1.0	n/a	Yes	2.776	n/a	n/a	GoodResponse	0	0.0	n/a	0	1	ISIslide	AvoidedLoss	True
29.518	0.25	Control	1.0	0.0	Yes	2.582	0.018	n/a	GoodResponse	0	n/a	n/a	0	2	Cue	Neutral	True
29.769	4.1	Control	1.0	0.0	Yes	2.582	0.001	n/a	GoodResponse	0	n/a	n/a	0	2	Fixation	Neutral	True
33.865	0.38	Control	1.0	0.003	Yes	2.582	-0.003	4.0	GoodResponse	0	0.215	33.08	0	2	Target	Neutral	True
34.08	0.3	Control	1.0	0.003	Yes	2.582	-0.003	4.0	GoodResponse	0	0.215	n/a	0	2	ButtonPress	Neutral	True
34.249	0.32	Control	1.0	n/a	Yes	2.582	n/a	n/a	GoodResponse	0	n/a	n/a	0	2	Blank	Neutral	True
34.567	1.45	Control	1.0	n/a	Yes	2.582	n/a	5.0	GoodResponse	0	0.044	33.611	0	2	Feedback	Neutral	True
36.021	2.582	Control	1.0	n/a	Yes	2.582	n/a	n/a	GoodResponse	0	0.0	n/a	0	2	ISIslide	Neutral	True
38.629	0.25	Win2	1.0	0.0	Yes	2.821	0.029	n/a	GoodResponse	1	n/a	n/a	1	3	Cue	Win	True
38.88	3.95	Win2	1.0	0.0	Yes	2.821	0.001	n/a	GoodResponse	1	n/a	n/a	1	3	Fixation	Win	True
42.825	0.37	Win2	1.0	0.004	Yes	2.821	-0.004	4.0	GoodResponse	1	0.235	42.06	1	3	Target	Win	True
43.06	0.3	Win2	1.0	0.004	Yes	2.821	-0.004	4.0	GoodResponse	1	0.235	n/a	1	3	ButtonPress	Win	True
43.209	0.33	Win2	1.0	n/a	Yes	2.821	n/a	n/a	GoodResponse	1	n/a	n/a	1	3	Blank	Win	True
43.527	1.45	Win2	1.0	n/a	Yes	2.821	n/a	5.0	GoodResponse	1	0.011	42.538	1	3	Feedback	Win	True
44.981	2.821	Win2	1.0	n/a	Yes	2.821	n/a	n/a	GoodResponse	1	0.0	n/a	1	3	ISIslide	Win	True
47.823	0.25	Win2	1.0	0.0	Yes	3.277	0.023	n/a	GoodResponse	1	n/a	n/a	2	4	Cue	Win	True
48.074	4.0	Win2	1.0	0.0	Yes	3.277	0.001	n/a	GoodResponse	1	n/a	n/a	2	4	Fixation	Win	True
52.069	0.36	Win2	1.0	0.004	Yes	3.277	-0.004	4.0	GoodResponse	1	0.209	51.278	2	4	Target	Win	True
52.278	0.3	Win2	1.0	0.004	Yes	3.277	-0.004	4.0	GoodResponse	1	0.209	n/a	2	4	ButtonPress	Win	True
52.437	0.34	Win2	1.0	n/a	Yes	3.277	n/a	n/a	GoodResponse	1	n/a	n/a	2	4	Blank	Win	True
52.771	1.45	Win2	1.0	n/a	Yes	3.277	n/a	5.0	GoodResponse	1	0.036	51.807	2	4	Feedback	Win	True
54.226	3.277	Win2	1.0	n/a	Yes	3.277	n/a	n/a	GoodResponse	1	0.0	n/a	2	4	ISIslide	Win	True
57.519	0.25	Win2	1.0	0.0	Yes	2.781	0.019	n/a	GoodResponse	1	n/a	n/a	3	5	Cue	Win	True
57.77	4.0	Win2	1.0	0.0	Yes	2.781	0.001	n/a	GoodResponse	1	n/a	n/a	3	5	Fixation	Win	True
61.765	0.35	Win2	1.0	0.004	Yes	2.781	-0.004	4.0	GoodResponse	1	0.222	60.987	3	5	Target	Win	True
61.987	0.3	Win2	1.0	0.004	Yes	2.781	-0.004	4.0	GoodResponse	1	0.222	n/a	3	5	ButtonPress	Win	True
62.116	0.35	Win2	1.0	n/a	Yes	2.781	n/a	n/a	GoodResponse	1	n/a	n/a	3	5	Blank	Win	True
62.467	1.45	Win2	1.0	n/a	Yes	2.781	n/a	5.0	GoodResponse	1	0.047	61.514	3	5	Feedback	Win	True
63.921	2.781	Win2	1.0	n/a	Yes	2.781	n/a	n/a	GoodResponse	1	0.0	n/a	3	5	ISIslide	Win	True
66.73	0.25	Lose2	1.0	0.0	Yes	2.72	0.03	n/a	GoodResponse	0	n/a	n/a	3	6	Cue	AvoidedLoss	True
66.98	3.95	Lose2	1.0	0.001	Yes	2.72	0.0	n/a	GoodResponse	0	n/a	n/a	3	6	Fixation	AvoidedLoss	True
70.926	0.34	Lose2	1.0	0.004	Yes	2.72	-0.004	4.0	GoodResponse	0	0.227	70.153	3	6	Target	AvoidedLoss	True
71.153	0.3	Lose2	1.0	0.004	Yes	2.72	-0.004	4.0	GoodResponse	0	0.227	n/a	3	6	ButtonPress	AvoidedLoss	True
71.277	0.36	Lose2	1.0	n/a	Yes	2.72	n/a	n/a	GoodResponse	0	n/a	n/a	3	6	Blank	AvoidedLoss	True
71.628	1.45	Lose2	1.0	n/a	Yes	2.72	n/a	5.0	GoodResponse	0	0.007	70.635	3	6	Feedback	AvoidedLoss	True
73.082	2.72	Lose2	1.0	n/a	Yes	2.72	n/a	n/a	GoodResponse	0	0.0	n/a	3	6	ISIslide	AvoidedLoss	True
75.824	0.25	Lose2	1.0	0.0	Yes	4.026	0.024	n/a	GoodResponse	0	n/a	n/a	3	7	Cue	AvoidedLoss	True
76.074	4.05	Lose2	1.0	0.0	Yes	4.026	0.0	n/a	GoodResponse	0	n/a	n/a	3	7	Fixation	AvoidedLoss	True
80.12	0.33	Lose2	1.0	0.004	Yes	4.026	-0.004	4.0	GoodResponse	0	0.237	79.357	3	7	Target	AvoidedLoss	True
80.357	0.3	Lose2	1.0	0.004	Yes	4.026	-0.004	4.0	GoodResponse	0	0.237	n/a	3	7	ButtonPress	AvoidedLoss	True
80.454	0.37	Lose2	1.0	n/a	Yes	4.026	n/a	n/a	GoodResponse	0	n/a	n/a	3	7	Blank	AvoidedLoss	True
80.822	1.45	Lose2	1.0	n/a	Yes	4.026	n/a	5.0	GoodResponse	0	0.033	79.855	3	7	Feedback	AvoidedLoss	True
82.276	4.026	Lose2	1.0	n/a	Yes	4.026	n/a	n/a	GoodResponse	0	0.0	n/a	3	7	ISIslide	AvoidedLoss	True
86.322	0.25	Lose2	1.0	0.0	Yes	3.028	0.022	n/a	GoodResponse	0	n/a	n/a	3	8	Cue	AvoidedLoss	True
86.572	3.95	Lose2	1.0	0.001	Yes	3.028	0.0	n/a	GoodResponse	0	n/a	n/a	3	8	Fixation	AvoidedLoss	True
90.518	0.32	Lose2	1.0	0.004	Yes	3.028	-0.004	4.0	GoodResponse	0	0.243	89.761	3	8	Target	AvoidedLoss	True
90.761	0.3	Lose2	1.0	0.004	Yes	3.028	-0.004	4.0	GoodResponse	0	0.243	n/a	3	8	ButtonPress	AvoidedLoss	True
90.852	0.38	Lose2	1.0	n/a	Yes	3.028	n/a	n/a	GoodResponse	0	n/a	n/a	3	8	Blank	AvoidedLoss	True
91.22	1.45	Lose2	1.0	n/a	Yes	3.028	n/a	5.0	GoodResponse	0	0.025	90.245	3	8	Feedback	AvoidedLoss	True
92.674	3.028	Lose2	1.0	n/a	Yes	3.028	n/a	n/a	GoodResponse	0	0.0	n/a	3	8	ISIslide	AvoidedLoss	True
95.717	0.25	Lose2	1.0	0.0	Yes	3.133	0.017	n/a	GoodResponse	0	n/a	n/a	3	9	Cue	AvoidedLoss	True
95.967	3.95	Lose2	1.0	0.0	Yes	3.133	0.0	n/a	GoodResponse	0	n/a	n/a	3	9	Fixation	AvoidedLoss	True
99.912	0.31	Lose2	1.0	0.005	Yes	3.133	-0.005	4.0	GoodResponse	0	0.203	99.115	3	9	Target	AvoidedLoss	True
100.115	0.3	Lose2	1.0	0.005	Yes	3.133	-0.005	4.0	GoodResponse	0	0.203	n/a	3	9	ButtonPress	AvoidedLoss	True
100.23	0.39	Lose2	1.0	n/a	Yes	3.133	n/a	n/a	GoodResponse	0	n/a	n/a	3	9	Blank	AvoidedLoss	True
100.615	1.45	Lose2	1.0	n/a	Yes	3.133	n/a	5.0	GoodResponse	0	0.045	99.66	3	9	Feedback	AvoidedLoss	True
102.069	3.133	Lose2	1.0	n/a	Yes	3.133	n/a	n/a	GoodResponse	0	0.0	n/a	3	9	ISIslide	AvoidedLoss	True
105.228	0.25	Control	1.0	0.0	Yes	3.272	0.028	n/a	GoodResponse	0	n/a	n/a	3	10	Cue	Neutral	True
105.479	4.0	Control	1.0	0.0	Yes	3.272	0.001	n/a	GoodResponse	0	n/a	n/a	3	10	Fixation	Neutral	True
109.474	0.3	Control	1.0	0.004	Yes	3.272	-0.004	4.0	GoodResponse	0	0.206	108.68	3	10	Target	Neutral	True
109.68	0.3	Control	1.0	0.004	Yes	3.272	-0.004	4.0	GoodResponse	0	0.206	n/a	3	10	ButtonPress	Neutral	True
109.775	0.4	Control	1.0	n/a	Yes	3.272	n/a	n/a	GoodResponse	0	n/a	n/a	3	10	Blank	Neutral	True
110.177	1.45	Control	1.0	n/a	Yes	3.272	n/a	5.0	GoodResponse	0	0.044	109.221	3	10	Feedback	Neutral	True
111.631	3.272	Control	1.0	n/a	Yes	3.272	n/a	n/a	GoodResponse	0	0.0	n/a	3	10	ISIslide	Neutral	True
114.924	0.25	Lose2	1.0	0.0	Yes	2.726	0.024	n/a	GoodResponse	0	n/a	n/a	3	11	Cue	AvoidedLoss	True
115.175	4.05	Lose2	1.0	0.0	Yes	2.726	0.001	n/a	GoodResponse	0	n/a	n/a	3	11	Fixation	AvoidedLoss	True
119.22	0.29	Lose2	1.0	0.004	Yes	2.726	-0.004	4.0	GoodResponse	0	0.214	118.434	3	11	Target	AvoidedLoss	True
119.434	0.3	Lose2	1.0	0.004	Yes	2.726	-0.004	4.0	GoodResponse	0	0.214	n/a	3	11	ButtonPress	AvoidedLoss	True
119.521	0.41	Lose2	1.0	n/a	Yes	2.726	n/a	n/a	GoodResponse	0	n/a	n/a	3	11	Blank	AvoidedLoss	True
119.922	1.45	Lose2	1.0	n/a	Yes	2.726	n/a	5.0	GoodResponse	0	0.006	118.928	3	11	Feedback	AvoidedLoss	True
121.377	2.726	Lose2	1.0	n/a	Yes	2.726	n/a	n/a	GoodResponse	0	0.0	n/a	3	11	ISIslide	AvoidedLoss	True
124.118	0.25	Control	0.9231	0.0	No	2.982	0.018	n/a	LatePress	0	n/a	n/a	3	12	Cue	Neutral	True
124.369	3.9	Control	0.9231	0.0	No	2.982	0.001	n/a	LatePress	0	n/a	n/a	3	12	Fixation	Neutral	True
128.264	0.28	Control	0.9231	0.004	No	2.982	-0.004	4.0	LatePress	0	0.281	127.545	3	12	Target	Neutral	True
128.545	0.3	Control	0.9231	0.004	No	2.982	-0.004	4.0	LatePress	0	0.281	n/a	3	12	ButtonPress	Neutral	True
128.548	0.42	Control	0.9231	n/a	No	2.982	n/a	n/a	LatePress	0	n/a	n/a	3	12	Blank	Neutral	True
128.966	1.45	Control	0.9231	n/a	No	2.982	n/a	5.0	LatePress	0	0.035	128.001	3	12	Feedback	Neutral	True
130.421	2.982	Control	0.9231	n/a	No	2.982	n/a	n/a	LatePress	0	0.0	n/a	3	12	ISIslide	Neutral	True
133.413	0.25	Control	0.9286	0.0	Yes	2.787	0.013	n/a	GoodResponse	0	n/a	n/a	3	13	Cue	Neutral	True
133.664	4.0	Control	0.9286	0.0	Yes	2.787	0.001	n/a	GoodResponse	0	n/a	n/a	3	13	Fixation	Neutral	True
137.659	0.27	Control	0.9286	0.004	Yes	2.787	-0.004	4.0	GoodResponse	0	0.247	136.906	3	13	Target	Neutral	True
137.906	0.3	Control	0.9286	0.004	Yes	2.787	-0.004	4.0	GoodResponse	0	0.247	n/a	3	13	ButtonPress	Neutral	True
137.943	0.43	Control	0.9286	n/a	Yes	2.787	n/a	n/a	GoodResponse	0	n/a	n/a	3	13	Blank	Neutral	True
138.361	1.45	Control	0.9286	n/a	Yes	2.787	n/a	5.0	GoodResponse	0	0.006	137.367	3	13	Feedback	Neutral	True
139.815	2.787	Control	0.9286	n/a	Yes	2.787	n/a	n/a	GoodResponse	0	0.0	n/a	3	13	ISIslide	Neutral	True
142.624	0.25	Win2	0.8667	0.0	No	2.676	0.024	n/a	NoResponse	0	n/a	n/a	3	14	Cue	MissedWin	True
142.875	4.1	Win2	0.8667	0.0	No	2.676	0.001	n/a	NoResponse	0	n/a	n/a	3	14	Fixation	MissedWin	True
146.97	0.26	Win2	0.8667	0.004	No	2.676	-0.004	4.0	NoResponse	0	0.46	146.43	3	14	Target	MissedWin	True
147.238	0.44	Win2	0.8667	n/a	No	2.676	n/a	n/a	NoResponse	0	n/a	n/a	3	14	Blank	MissedWin	True
147.43	0.3	Win2	0.8667	0.004	No	2.676	-0.004	4.0	NoResponse	0	0.46	n/a	3	14	ButtonPress	MissedWin	True
147.672	1.45	Win2	0.8667	n/a	No	2.676	n/a	5.0	NoResponse	0	0.012	146.684	3	14	Feedback	MissedWin	True
149.127	2.676	Win2	0.8667	n/a	No	2.676	n/a	n/a	NoResponse	0	0.0	n/a	3	14	ISIslide	MissedWin	True
151.818	0.25	Control	0.875	0.0	Yes	2.982	0.018	n/a	GoodResponse	0	n/a	n/a	3	15	Cue	Neutral	True
152.069	4.0	Control	0.875	0.0	Yes	2.982	0.001	n/a	GoodResponse	0	n/a	n/a	3	15	Fixation	Neutral	True
156.064	0.25	Control	0.875	0.004	Yes	2.982	-0.004	4.0	GoodResponse	0	0.228	155.292	3	15	Target	Neutral	True
156.292	0.3	Control	0.875	0.004	Yes	2.982	-0.004	4.0	GoodResponse	0	0.228	n/a	3	15	ButtonPress	Neutral	True
156.315	0.45	Control	0.875	n/a	Yes	2.982	n/a	n/a	GoodResponse	0	n/a	n/a	3	15	Blank	Neutral	True
156.766	1.45	Control	0.875	n/a	Yes	2.982	n/a	5.0	GoodResponse	0	0.04	155.806	3	15	Feedback	Neutral	True
158.221	2.982	Control	0.875	n/a	Yes	2.982	n/a	n/a	GoodResponse	0	0.0	n/a	3	15	ISIslide	Neutral	True
161.23	0.25	Win2	0.8824	0.0	Yes	2.87	0.03	n/a	GoodResponse	1	n/a	n/a	4	16	Cue	Win	True
161.48	4.0	Win2	0.8824	0.0	Yes	2.87	0.0	n/a	GoodResponse	1	n/a	n/a	4	16	Fixation	Win	True
165.476	0.24	Win2	0.8824	0.004	Yes	2.87	-0.004	4.0	GoodResponse	1	0.229	164.705	4	16	Target	Win	True
165.705	0.3	Win2	0.8824	0.004	Yes	2.87	-0.004	4.0	GoodResponse	1	0.229	n/a	4	16	ButtonPress	Win	True
165.726	0.46	Win2	0.8824	n/a	Yes	2.87	n/a	n/a	GoodResponse	1	n/a	n/a	4	16	Blank	Win	True
166.178	1.45	Win2	0.8824	n/a	Yes	2.87	n/a	5.0	GoodResponse	1	0.043	165.221	4	16	Feedback	Win	True
167.632	2.87	Win2	0.8824	n/a	Yes	2.87	n/a	n/a	GoodResponse	1	0.0	n/a	4	16	ISIslide	Win	True
170.524	0.25	Lose2	0.8889	0.0	Yes	2.726	0.024	n/a	GoodResponse	0	n/a	n/a	4	17	Cue	AvoidedLoss	True
170.775	3.95	Lose2	0.8889	0.0	Yes	2.726	0.001	n/a	GoodResponse	0	n/a	n/a	4	17	Fixation	AvoidedLoss	True
174.72	0.23	Lose2	0.8889	0.004	Yes	2.726	-0.004	4.0	GoodResponse	0	0.21	173.93	4	17	Target	AvoidedLoss	True
174.93	0.3	Lose2	0.8889	0.004	Yes	2.726	-0.004	4.0	GoodResponse	0	0.21	n/a	4	17	ButtonPress	AvoidedLoss	True
174.954	0.47	Lose2	0.8889	n/a	Yes	2.726	n/a	n/a	GoodResponse	0	n/a	n/a	4	17	Blank	AvoidedLoss	True
175.422	1.45	Lose2	0.8889	n/a	Yes	2.726	n/a	5.0	GoodResponse	0	0.018	174.44	4	17	Feedback	AvoidedLoss	True
176.876	2.726	Lose2	0.8889	n/a	Yes	2.726	n/a	n/a	GoodResponse	0	0.0	n/a	4	17	ISIslide	AvoidedLoss	True
179.618	0.25	Lose2	0.8946999999999999	0.0	Yes	2.732	0.018	n/a	GoodResponse	0	n/a	n/a	4	18	Cue	AvoidedLoss	True
179.869	4.05	Lose2	0.8946999999999999	0.0	Yes	2.732	0.001	n/a	GoodResponse	0	n/a	n/a	4	18	Fixation	AvoidedLoss	True
183.914	0.22	Lose2	0.8946999999999999	0.004	Yes	2.732	-0.004	4.0	GoodResponse	0	0.199	183.113	4	18	Target	AvoidedLoss	True
184.113	0.3	Lose2	0.8946999999999999	0.004	Yes	2.732	-0.004	4.0	GoodResponse	0	0.199	n/a	4	18	ButtonPress	AvoidedLoss	True
184.148	0.48	Lose2	0.8946999999999999	n/a	Yes	2.732	n/a	n/a	GoodResponse	0	n/a	n/a	4	18	Blank	AvoidedLoss	True
184.616	1.45	Lose2	0.8946999999999999	n/a	Yes	2.732	n/a	5.0	GoodResponse	0	0.043	183.659	4	18	Feedback	AvoidedLoss	True
186.071	2.732	Lose2	0.8946999999999999	n/a	Yes	2.732	n/a	n/a	GoodResponse	0	0.0	n/a	4	18	ISIslide	AvoidedLoss	True
188.829	0.25	Control	0.85	0.0	No	2.921	0.029	n/a	LatePress	0	n/a	n/a	4	19	Cue	Neutral	True
189.08	3.95	Control	0.85	0.0	No	2.921	0.001	n/a	LatePress	0	n/a	n/a	4	19	Fixation	Neutral	True
193.025	0.21	Control	0.85	0.004	No	2.921	-0.004	4.0	LatePress	0	0.214	192.239	4	19	Target	Neutral	True
193.239	0.3	Control	0.85	0.004	No	2.921	-0.004	4.0	LatePress	0	0.214	n/a	4	19	ButtonPress	Neutral	True
193.242	0.49	Control	0.85	n/a	No	2.921	n/a	n/a	LatePress	0	n/a	n/a	4	19	Blank	Neutral	True
193.727	1.45	Control	0.85	n/a	No	2.921	n/a	5.0	LatePress	0	0.005	192.732	4	19	Feedback	Neutral	True
195.181	2.921	Control	0.85	n/a	No	2.921	n/a	n/a	LatePress	0	0.0	n/a	4	19	ISIslide	Neutral	True
198.123	0.25	Control	0.8095	0.001	No	2.627	0.023	n/a	NoResponse	0	n/a	n/a	4	20	Cue	Neutral	True
198.374	4.05	Control	0.8095	0.0	No	2.627	0.001	n/a	NoResponse	0	n/a	n/a	4	20	Fixation	Neutral	True
202.42	0.2	Control	0.8095	0.003	No	2.627	-0.003	4.0	NoResponse	0	0.208	201.628	4	20	Target	Neutral	True
202.62	0.5	Control	0.8095	n/a	No	2.627	n/a	n/a	NoResponse	0	n/a	n/a	4	20	Blank	Neutral	True
202.628	0.3	Control	0.8095	0.003	No	2.627	-0.003	4.0	NoResponse	0	0.208	n/a	4	20	ButtonPress	Neutral	True
203.122	1.45	Control	0.8095	n/a	No	2.627	n/a	5.0	NoResponse	0	0.025	202.147	4	20	Feedback	Neutral	True
204.576	2.627	Control	0.8095	n/a	No	2.627	n/a	n/a	NoResponse	0	0.0	n/a	4	20	ISIslide	Neutral	True
207.217	0.25	Control	0.7726999999999999	0.0	No	2.783	0.017	n/a	NoResponse	0	n/a	n/a	4	21	Cue	Neutral	True
207.468	4.1	Control	0.7726999999999999	0.0	No	2.783	0.001	n/a	NoResponse	0	n/a	n/a	4	21	Fixation	Neutral	True
211.564	0.19	Control	0.7726999999999999	0.003	No	2.783	-0.003	4.0	NoResponse	0	0.246	210.81	4	21	Target	Neutral	True
211.764	0.51	Control	0.7726999999999999	n/a	No	2.783	n/a	n/a	NoResponse	0	n/a	n/a	4	21	Blank	Neutral	True
211.81	0.3	Control	0.7726999999999999	0.003	No	2.783	-0.003	4.0	NoResponse	0	0.246	n/a	4	21	ButtonPress	Neutral	True
212.266	1.45	Control	0.7726999999999999	n/a	No	2.783	n/a	5.0	NoResponse	0	0.003	211.269	4	21	Feedback	Neutral	True
213.72	2.783	Control	0.7726999999999999	n/a	No	2.783	n/a	n/a	NoResponse	0	0.0	n/a	4	21	ISIslide	Neutral	True
216.529	0.25	Control	0.7391	0.0	No	2.771	0.029	n/a	NoResponse	0	n/a	n/a	4	22	Cue	Neutral	True
216.779	4.0	Control	0.7391	0.0	No	2.771	0.0	n/a	NoResponse	0	n/a	n/a	4	22	Fixation	Neutral	True
220.775	0.18	Control	0.7391	0.004	No	2.771	-0.004	4.0	NoResponse	0	0.233	220.008	4	22	Target	Neutral	True
220.958	0.52	Control	0.7391	n/a	No	2.771	n/a	n/a	NoResponse	0	n/a	n/a	4	22	Blank	Neutral	True
221.008	0.3	Control	0.7391	0.004	No	2.771	-0.004	4.0	NoResponse	0	0.233	n/a	4	22	ButtonPress	Neutral	True
221.477	1.45	Control	0.7391	n/a	No	2.771	n/a	5.0	NoResponse	0	0.012	220.489	4	22	Feedback	Neutral	True
222.931	2.771	Control	0.7391	n/a	No	2.771	n/a	n/a	NoResponse	0	0.0	n/a	4	22	ISIslide	Neutral	True
225.723	0.25	Control	0.7082999999999999	0.0	No	2.777	0.023	n/a	NoResponse	0	n/a	n/a	4	23	Cue	Neutral	True
225.974	3.9	Control	0.7082999999999999	0.0	No	2.777	0.001	n/a	NoResponse	0	n/a	n/a	4	23	Fixation	Neutral	True
229.869	0.17	Control	0.7082999999999999	0.004	No	2.777	-0.004	4.0	NoResponse	0	0.308	229.177	4	23	Target	Neutral	True
230.052	0.53	Control	0.7082999999999999	n/a	No	2.777	n/a	n/a	NoResponse	0	n/a	n/a	4	23	Blank	Neutral	True
230.177	0.3	Control	0.7082999999999999	0.004	No	2.777	-0.004	4.0	NoResponse	0	0.308	n/a	4	23	ButtonPress	Neutral	True
230.571	1.45	Control	0.7082999999999999	n/a	No	2.777	n/a	5.0	NoResponse	0	0.04	229.611	4	23	Feedback	Neutral	True
232.025	2.777	Control	0.7082999999999999	n/a	No	2.777	n/a	n/a	NoResponse	0	0.0	n/a	4	23	ISIslide	Neutral	True
234.817	0.25	Win2	0.68	0.0	No	3.133	0.017	n/a	NoResponse	0	n/a	n/a	4	24	Cue	MissedWin	True
235.067	3.95	Win2	0.68	0.001	No	3.133	0.0	n/a	NoResponse	0	n/a	n/a	4	24	Fixation	MissedWin	True
239.013	0.16	Win2	0.68	0.004	No	3.133	-0.004	4.0	NoResponse	0	0.215	238.228	4	24	Target	MissedWin	True
239.18	0.54	Win2	0.68	n/a	No	3.133	n/a	n/a	NoResponse	0	n/a	n/a	4	24	Blank	MissedWin	True
239.228	0.3	Win2	0.68	0.004	No	3.133	-0.004	4.0	NoResponse	0	0.215	n/a	4	24	ButtonPress	MissedWin	True
239.715	1.45	Win2	0.68	n/a	No	3.133	n/a	5.0	NoResponse	0	0.018	238.733	4	24	Feedback	MissedWin	True
241.169	3.133	Win2	0.68	n/a	No	3.133	n/a	n/a	NoResponse	0	0.0	n/a	4	24	ISIslide	MissedWin	True
244.329	0.25	Win2	0.6537999999999999	0.0	No	3.071	0.029	n/a	NoResponse	0	n/a	n/a	4	25	Cue	MissedWin	True
244.579	4.0	Win2	0.6537999999999999	0.0	No	3.071	0.0	n/a	NoResponse	0	n/a	n/a	4	25	Fixation	MissedWin	True
248.575	0.15	Win2	0.6537999999999999	0.004	No	3.071	-0.004	4.0	NoResponse	0	0.207	247.782	4	25	Target	MissedWin	True
248.725	0.55	Win2	0.6537999999999999	n/a	No	3.071	n/a	n/a	NoResponse	0	n/a	n/a	4	25	Blank	MissedWin	True
248.782	0.3	Win2	0.6537999999999999	0.004	No	3.071	-0.004	4.0	NoResponse	0	0.207	n/a	4	25	ButtonPress	MissedWin	True
249.277	1.45	Win2	0.6537999999999999	n/a	No	3.071	n/a	5.0	NoResponse	0	0.016	248.293	4	25	Feedback	MissedWin	True
250.731	3.071	Win2	0.6537999999999999	n/a	No	3.071	n/a	n/a	NoResponse	0	0.0	n/a	4	25	ISIslide	MissedWin	True
253.824	0.25	Win2	0.6296	0.0	No	2.926	0.024	n/a	NoResponse	0	n/a	n/a	4	26	Cue	MissedWin	True
254.074	3.95	Win2	0.6296	0.0	No	2.926	0.0	n/a	NoResponse	0	n/a	n/a	4	26	Fixation	MissedWin	True
258.02	0.16	Win2	0.6296	0.004	No	2.926	-0.004	4.0	NoResponse	0	0.197	257.217	4	26	Target	MissedWin	True
258.187	0.54	Win2	0.6296	n/a	No	2.926	n/a	n/a	NoResponse	0	n/a	n/a	4	26	Blank	MissedWin	True
258.217	0.3	Win2	0.6296	0.004	No	2.926	-0.004	4.0	NoResponse	0	0.197	n/a	4	26	ButtonPress	MissedWin	True
258.722	1.45	Win2	0.6296	n/a	No	2.926	n/a	5.0	NoResponse	0	0.035	257.757	4	26	Feedback	MissedWin	True
260.176	2.926	Win2	0.6296	n/a	No	2.926	n/a	n/a	NoResponse	0	0.0	n/a	4	26	ISIslide	MissedWin	True
263.118	0.25	Lose2	0.6071	0.0	No	2.832	0.018	n/a	NoResponse	-1	n/a	n/a	3	27	Cue	Loss	True
263.369	4.05	Lose2	0.6071	0.0	No	2.832	0.001	n/a	NoResponse	-1	n/a	n/a	3	27	Fixation	Loss	True
267.414	0.17	Lose2	0.6071	0.004	No	2.832	-0.004	4.0	NoResponse	-1	0.222	266.636	3	27	Target	Loss	True
267.598	0.53	Lose2	0.6071	n/a	No	2.832	n/a	n/a	NoResponse	-1	n/a	n/a	3	27	Blank	Loss	True
267.636	0.3	Lose2	0.6071	0.004	No	2.832	-0.004	4.0	NoResponse	-1	0.222	n/a	3	27	ButtonPress	Loss	True
268.116	1.45	Lose2	0.6071	n/a	No	2.832	n/a	5.0	NoResponse	-1	0.007	267.123	3	27	Feedback	Loss	True
269.571	2.832	Lose2	0.6071	n/a	No	2.832	n/a	n/a	NoResponse	-1	0.0	n/a	3	27	ISIslide	Loss	True
272.413	0.25	Control	0.5861999999999999	0.0	No	2.837	0.013	n/a	NoResponse	0	n/a	n/a	3	28	Cue	Neutral	True
272.663	4.05	Control	0.5861999999999999	0.001	No	2.837	0.0	n/a	NoResponse	0	n/a	n/a	3	28	Fixation	Neutral	True
276.709	0.18	Control	0.5861999999999999	0.004	No	2.837	-0.004	4.0	NoResponse	0	0.223	275.932	3	28	Target	Neutral	True
276.893	0.52	Control	0.5861999999999999	n/a	No	2.837	n/a	n/a	NoResponse	0	n/a	n/a	3	28	Blank	Neutral	True
276.932	0.3	Control	0.5861999999999999	0.004	No	2.837	-0.004	4.0	NoResponse	0	0.223	n/a	3	28	ButtonPress	Neutral	True
277.411	1.45	Control	0.5861999999999999	n/a	No	2.837	n/a	5.0	NoResponse	0	0.029	276.44	3	28	Feedback	Neutral	True
278.865	2.837	Control	0.5861999999999999	n/a	No	2.837	n/a	n/a	NoResponse	0	0.0	n/a	3	28	ISIslide	Neutral	True
281.724	0.25	Lose2	0.6	0.0	Yes	2.826	0.024	n/a	GoodResponse	0	n/a	n/a	3	29	Cue	AvoidedLoss	True
281.975	3.95	Lose2	0.6	0.0	Yes	2.826	0.001	n/a	GoodResponse	0	n/a	n/a	3	29	Fixation	AvoidedLoss	True
285.92	0.19	Lose2	0.6	0.004	Yes	2.826	-0.004	4.0	GoodResponse	0	0.178	285.098	3	29	Target	AvoidedLoss	True
286.098	0.3	Lose2	0.6	0.004	Yes	2.826	-0.004	4.0	GoodResponse	0	0.178	n/a	3	29	ButtonPress	AvoidedLoss	True
286.12	0.51	Lose2	0.6	n/a	Yes	2.826	n/a	n/a	GoodResponse	0	n/a	n/a	3	29	Blank	AvoidedLoss	True
286.622	1.45	Lose2	0.6	n/a	Yes	2.826	n/a	5.0	GoodResponse	0	0.037	285.659	3	29	Feedback	AvoidedLoss	True
288.076	2.826	Lose2	0.6	n/a	Yes	2.826	n/a	n/a	GoodResponse	0	0.0	n/a	3	29	ISIslide	AvoidedLoss	True
290.918	0.25	Win2	0.5806	0.0	No	2.782	0.018	n/a	NoResponse	0	n/a	n/a	3	30	Cue	MissedWin	True
291.169	3.9	Win2	0.5806	0.0	No	2.782	0.001	n/a	NoResponse	0	n/a	n/a	3	30	Fixation	MissedWin	True
295.064	0.2	Win2	0.5806	0.004	No	2.782	-0.004	4.0	NoResponse	0	0.224	294.288	3	30	Target	MissedWin	True
295.264	0.5	Win2	0.5806	n/a	No	2.782	n/a	n/a	NoResponse	0	n/a	n/a	3	30	Blank	MissedWin	True
295.288	0.3	Win2	0.5806	0.004	No	2.782	-0.004	4.0	NoResponse	0	0.224	n/a	3	30	ButtonPress	MissedWin	True
295.766	1.45	Win2	0.5806	n/a	No	2.782	n/a	5.0	NoResponse	0	0.016	294.782	3	30	Feedback	MissedWin	True
297.22	2.782	Win2	0.5806	n/a	No	2.782	n/a	n/a	NoResponse	0	0.0	n/a	3	30	ISIslide	MissedWin	True
300.029	0.25	Lose2	0.5938	0.0	Yes	2.821	0.029	n/a	GoodResponse	0	n/a	n/a	3	31	Cue	AvoidedLoss	True
300.28	4.05	Lose2	0.5938	0.0	Yes	2.821	0.001	n/a	GoodResponse	0	n/a	n/a	3	31	Fixation	AvoidedLoss	True
304.325	0.21	Lose2	0.5938	0.004	Yes	2.821	-0.004	4.0	GoodResponse	0	0.181	303.506	3	31	Target	AvoidedLoss	True
304.506	0.3	Lose2	0.5938	0.004	Yes	2.821	-0.004	4.0	GoodResponse	0	0.181	n/a	3	31	ButtonPress	AvoidedLoss	True
304.542	0.49	Lose2	0.5938	n/a	Yes	2.821	n/a	n/a	GoodResponse	0	n/a	n/a	3	31	Blank	AvoidedLoss	True
305.027	1.45	Lose2	0.5938	n/a	Yes	2.821	n/a	5.0	GoodResponse	0	0.022	304.049	3	31	Feedback	AvoidedLoss	True
306.481	2.821	Lose2	0.5938	n/a	Yes	2.821	n/a	n/a	GoodResponse	0	0.0	n/a	3	31	ISIslide	AvoidedLoss	True
309.323	0.25	Lose2	0.6061	0.0	Yes	2.627	0.023	n/a	GoodResponse	0	n/a	n/a	3	32	Cue	AvoidedLoss	True
309.574	4.15	Lose2	0.6061	0.0	Yes	2.627	0.001	n/a	GoodResponse	0	n/a	n/a	3	32	Fixation	AvoidedLoss	True
313.72	0.22	Lose2	0.6061	0.003	Yes	2.627	-0.003	4.0	GoodResponse	0	0.192	312.912	3	32	Target	AvoidedLoss	True
313.912	0.3	Lose2	0.6061	0.003	Yes	2.627	-0.003	4.0	GoodResponse	0	0.192	n/a	3	32	ButtonPress	AvoidedLoss	True
313.954	0.48	Lose2	0.6061	n/a	Yes	2.627	n/a	n/a	GoodResponse	0	n/a	n/a	3	32	Blank	AvoidedLoss	True
314.422	1.45	Lose2	0.6061	n/a	Yes	2.627	n/a	5.0	GoodResponse	0	0.042	313.464	3	32	Feedback	AvoidedLoss	True
315.876	2.627	Lose2	0.6061	n/a	Yes	2.627	n/a	n/a	GoodResponse	0	0.0	n/a	3	32	ISIslide	AvoidedLoss	True
318.517	0.25	Win2	0.6175999999999999	0.001	Yes	2.683	0.017	n/a	GoodResponse	1	n/a	n/a	4	33	Cue	Win	True
318.768	4.0	Win2	0.6175999999999999	0.0	Yes	2.683	0.001	n/a	GoodResponse	1	n/a	n/a	4	33	Fixation	Win	True
322.764	0.23	Win2	0.6175999999999999	0.003	Yes	2.683	-0.003	4.0	GoodResponse	1	0.223	321.987	4	33	Target	Win	True
322.987	0.3	Win2	0.6175999999999999	0.003	Yes	2.683	-0.003	4.0	GoodResponse	1	0.223	n/a	4	33	ButtonPress	Win	True
322.998	0.47	Win2	0.6175999999999999	n/a	Yes	2.683	n/a	n/a	GoodResponse	1	n/a	n/a	4	33	Blank	Win	True
323.466	1.45	Win2	0.6175999999999999	n/a	Yes	2.683	n/a	5.0	GoodResponse	1	0.022	322.488	4	33	Feedback	Win	True
324.92	2.683	Win2	0.6175999999999999	n/a	Yes	2.683	n/a	n/a	GoodResponse	1	0.0	n/a	4	33	ISIslide	Win	True
327.628	0.25	Lose2	0.6	0.0	No	2.622	0.028	n/a	LatePress	-1	n/a	n/a	3	34	Cue	Loss	True
327.879	4.05	Lose2	0.6	0.0	No	2.622	0.001	n/a	LatePress	-1	n/a	n/a	3	34	Fixation	Loss	True
331.924	0.24	Lose2	0.6	0.004	No	2.622	-0.004	4.0	LatePress	-1	0.243	331.167	3	34	Target	Loss	True
332.167	0.3	Lose2	0.6	0.004	No	2.622	-0.004	4.0	LatePress	-1	0.243	n/a	3	34	ButtonPress	Loss	True
332.175	0.46	Lose2	0.6	n/a	No	2.622	n/a	n/a	LatePress	-1	n/a	n/a	3	34	Blank	Loss	True
332.626	1.45	Lose2	0.6	n/a	No	2.622	n/a	5.0	LatePress	-1	0.033	331.659	3	34	Feedback	Loss	True
334.081	2.622	Lose2	0.6	n/a	No	2.622	n/a	n/a	LatePress	-1	0.0	n/a	3	34	ISIslide	Loss	True
336.722	0.25	Lose2	0.6111	0.0	Yes	2.678	0.022	n/a	GoodResponse	0	n/a	n/a	3	35	Cue	AvoidedLoss	True
336.973	4.0	Lose2	0.6111	0.0	Yes	2.678	0.001	n/a	GoodResponse	0	n/a	n/a	3	35	Fixation	AvoidedLoss	True
340.968	0.25	Lose2	0.6111	0.004	Yes	2.678	-0.004	4.0	GoodResponse	0	0.212	340.18	3	35	Target	AvoidedLoss	True
341.18	0.3	Lose2	0.6111	0.004	Yes	2.678	-0.004	4.0	GoodResponse	0	0.212	n/a	3	35	ButtonPress	AvoidedLoss	True
341.219	0.45	Lose2	0.6111	n/a	Yes	2.678	n/a	n/a	GoodResponse	0	n/a	n/a	3	35	Blank	AvoidedLoss	True
341.67	1.45	Lose2	0.6111	n/a	Yes	2.678	n/a	5.0	GoodResponse	0	0.014	340.684	3	35	Feedback	AvoidedLoss	True
343.125	2.678	Lose2	0.6111	n/a	Yes	2.678	n/a	n/a	GoodResponse	0	0.0	n/a	3	35	ISIslide	AvoidedLoss	True
345.816	0.25	Control	0.6215999999999999	0.0	Yes	2.684	0.016	n/a	GoodResponse	0	n/a	n/a	3	36	Cue	Neutral	True
346.067	4.0	Control	0.6215999999999999	0.0	Yes	2.684	0.001	n/a	GoodResponse	0	n/a	n/a	3	36	Fixation	Neutral	True
350.062	0.26	Control	0.6215999999999999	0.004	Yes	2.684	-0.004	4.0	GoodResponse	0	0.199	349.261	3	36	Target	Neutral	True
350.261	0.3	Control	0.6215999999999999	0.004	Yes	2.684	-0.004	4.0	GoodResponse	0	0.199	n/a	3	36	ButtonPress	Neutral	True
350.329	0.44	Control	0.6215999999999999	n/a	Yes	2.684	n/a	n/a	GoodResponse	0	n/a	n/a	3	36	Blank	Neutral	True
350.764	1.45	Control	0.6215999999999999	n/a	Yes	2.684	n/a	5.0	GoodResponse	0	0.042	349.806	3	36	Feedback	Neutral	True
352.218	2.684	Control	0.6215999999999999	n/a	Yes	2.684	n/a	n/a	GoodResponse	0	0.0	n/a	3	36	ISIslide	Neutral	True
354.927	0.25	Win2	0.6315999999999999	0.0	Yes	2.873	0.027	n/a	GoodResponse	1	n/a	n/a	4	37	Cue	Win	False
355.177	4.0	Win2	0.6315999999999999	0.0	Yes	2.873	0.0	4.0	GoodResponse	1	3.832	358.009	4	37	Fixation	Win	False
359.009	0.3	Win2	0.6315999999999999	0.0	Yes	2.873	0.0	4.0	GoodResponse	1	3.832	n/a	4	37	ButtonPress	Win	False
359.173	0.27	Win2	0.6315999999999999	0.004	Yes	2.873	-0.004	4.0	GoodResponse	1	0.262	358.435	4	37	Target	Win	False
359.435	0.3	Win2	0.6315999999999999	0.004	Yes	2.873	-0.004	4.0	GoodResponse	1	0.262	n/a	4	37	ButtonPress	Win	False
359.457	0.43	Win2	0.6315999999999999	n/a	Yes	2.873	n/a	n/a	GoodResponse	1	n/a	n/a	4	37	Blank	Win	False
359.875	1.45	Win2	0.6315999999999999	n/a	Yes	2.873	n/a	5.0	GoodResponse	1	0.006	358.881	4	37	Feedback	Win	False
361.329	2.873	Win2	0.6315999999999999	n/a	Yes	2.873	n/a	n/a	GoodResponse	1	0.0	n/a	4	37	ISIslide	Win	False
364.221	0.25	Lose2	0.6409999999999999	0.0	Yes	2.829	0.021	n/a	GoodResponse	0	n/a	n/a	4	38	Cue	AvoidedLoss	True
364.472	3.95	Lose2	0.6409999999999999	0.0	Yes	2.829	0.001	n/a	GoodResponse	0	n/a	n/a	4	38	Fixation	AvoidedLoss	True
368.417	0.28	Lose2	0.6409999999999999	0.004	Yes	2.829	-0.004	4.0	GoodResponse	0	0.235	367.652	4	38	Target	AvoidedLoss	True
368.652	0.3	Lose2	0.6409999999999999	0.004	Yes	2.829	-0.004	4.0	GoodResponse	0	0.235	n/a	4	38	ButtonPress	AvoidedLoss	True
368.701	0.42	Lose2	0.6409999999999999	n/a	Yes	2.829	n/a	n/a	GoodResponse	0	n/a	n/a	4	38	Blank	AvoidedLoss	True
369.119	1.45	Lose2	0.6409999999999999	n/a	Yes	2.829	n/a	5.0	GoodResponse	0	0.027	368.146	4	38	Feedback	AvoidedLoss	True
370.573	2.829	Lose2	0.6409999999999999	n/a	Yes	2.829	n/a	n/a	GoodResponse	0	0.0	n/a	4	38	ISIslide	AvoidedLoss	True
373.415	0.25	Win2	0.65	0.0	Yes	2.985	0.015	n/a	GoodResponse	1	n/a	n/a	5	39	Cue	Win	True
373.666	4.1	Win2	0.65	0.0	Yes	2.985	0.001	n/a	GoodResponse	1	n/a	n/a	5	39	Fixation	Win	True
377.762	0.29	Win2	0.65	0.003	Yes	2.985	-0.003	4.0	GoodResponse	1	0.18	376.942	5	39	Target	Win	True
377.942	0.3	Win2	0.65	0.003	Yes	2.985	-0.003	4.0	GoodResponse	1	0.18	n/a	5	39	ButtonPress	Win	True
378.063	0.41	Win2	0.65	n/a	Yes	2.985	n/a	n/a	GoodResponse	1	n/a	n/a	5	39	Blank	Win	True
378.464	1.45	Win2	0.65	n/a	Yes	2.985	n/a	5.0	GoodResponse	1	0.0	377.464	5	39	Feedback	Win	True
379.918	2.985	Win2	0.65	n/a	Yes	2.985	n/a	n/a	GoodResponse	1	0.0	n/a	5	39	ISIslide	Win	True
382.927	0.25	Win2	0.6585	0.0	Yes	2.723	0.027	n/a	GoodResponse	1	n/a	n/a	6	40	Cue	Win	True
383.178	3.95	Win2	0.6585	0.0	Yes	2.723	0.001	n/a	GoodResponse	1	n/a	n/a	6	40	Fixation	Win	True
387.123	0.3	Win2	0.6585	0.004	Yes	2.723	-0.004	4.0	GoodResponse	1	0.231	386.354	6	40	Target	Win	True
387.354	0.3	Win2	0.6585	0.004	Yes	2.723	-0.004	4.0	GoodResponse	1	0.231	n/a	6	40	ButtonPress	Win	True
387.424	0.4	Win2	0.6585	n/a	Yes	2.723	n/a	n/a	GoodResponse	1	n/a	n/a	6	40	Blank	Win	True
387.825	1.45	Win2	0.6585	n/a	Yes	2.723	n/a	5.0	GoodResponse	1	0.006	386.831	6	40	Feedback	Win	True
389.28	2.723	Win2	0.6585	n/a	Yes	2.723	n/a	n/a	GoodResponse	1	0.0	n/a	6	40	ISIslide	Win	True
392.021	0.25	Win2	0.6667000000000001	0.0	Yes	2.779	0.021	n/a	GoodResponse	1	n/a	n/a	7	41	Cue	Win	True
392.272	3.9	Win2	0.6667000000000001	0.0	Yes	2.779	0.001	n/a	GoodResponse	1	n/a	n/a	7	41	Fixation	Win	True
396.167	0.3	Win2	0.6667000000000001	0.004	Yes	2.779	-0.004	4.0	GoodResponse	1	0.226	395.393	7	41	Target	Win	True
396.393	0.3	Win2	0.6667000000000001	0.004	Yes	2.779	-0.004	4.0	GoodResponse	1	0.226	n/a	7	41	ButtonPress	Win	True
396.468	0.4	Win2	0.6667000000000001	n/a	Yes	2.779	n/a	n/a	GoodResponse	1	n/a	n/a	7	41	Blank	Win	True
396.869	1.45	Win2	0.6667000000000001	n/a	Yes	2.779	n/a	5.0	GoodResponse	1	0.034	395.903	7	41	Feedback	Win	True
398.323	2.779	Win2	0.6667000000000001	n/a	Yes	2.779	n/a	n/a	GoodResponse	1	0.0	n/a	7	41	ISIslide	Win	True
401.115	0.25	Control	0.6744	0.0	Yes	2.935	0.015	n/a	GoodResponse	0	n/a	n/a	7	42	Cue	Neutral	True
401.366	3.85	Control	0.6744	0.0	Yes	2.935	0.001	n/a	GoodResponse	0	n/a	n/a	7	42	Fixation	Neutral	True
405.211	0.29	Control	0.6744	0.004	Yes	2.935	-0.004	4.0	GoodResponse	0	0.216	404.427	7	42	Target	Neutral	True
405.427	0.3	Control	0.6744	0.004	Yes	2.935	-0.004	4.0	GoodResponse	0	0.216	n/a	7	42	ButtonPress	Neutral	True
405.511	0.41	Control	0.6744	n/a	Yes	2.935	n/a	n/a	GoodResponse	0	n/a	n/a	7	42	Blank	Neutral	True
405.913	1.45	Control	0.6744	n/a	Yes	2.935	n/a	5.0	GoodResponse	0	0.014	404.927	7	42	Feedback	Neutral	True
407.367	2.935	Control	0.6744	n/a	Yes	2.935	n/a	n/a	GoodResponse	0	0.0	n/a	7	42	ISIslide	Neutral	True
410.326	0.25	Win2	0.6818000000000001	0.0	Yes	3.174	0.026	n/a	GoodResponse	1	n/a	n/a	8	43	Cue	Win	True
410.577	4.0	Win2	0.6818000000000001	0.0	Yes	3.174	0.001	n/a	GoodResponse	1	n/a	n/a	8	43	Fixation	Win	True
414.572	0.28	Win2	0.6818000000000001	0.004	Yes	3.174	-0.004	4.0	GoodResponse	1	0.186	413.758	8	43	Target	Win	True
414.758	0.3	Win2	0.6818000000000001	0.004	Yes	3.174	-0.004	4.0	GoodResponse	1	0.186	n/a	8	43	ButtonPress	Win	True
414.856	0.42	Win2	0.6818000000000001	n/a	Yes	3.174	n/a	n/a	GoodResponse	1	n/a	n/a	8	43	Blank	Win	True
415.274	1.45	Win2	0.6818000000000001	n/a	Yes	3.174	n/a	5.0	GoodResponse	1	0.019	414.293	8	43	Feedback	Win	True
416.728	3.174	Win2	0.6818000000000001	n/a	Yes	3.174	n/a	n/a	GoodResponse	1	0.0	n/a	8	43	ISIslide	Win	True
419.921	0.25	Win2	0.6889	0.0	Yes	2.979	0.021	n/a	GoodResponse	1	n/a	n/a	9	44	Cue	Win	True
420.172	4.0	Win2	0.6889	0.0	Yes	2.979	0.001	n/a	GoodResponse	1	n/a	n/a	9	44	Fixation	Win	True
424.167	0.27	Win2	0.6889	0.004	Yes	2.979	-0.004	4.0	GoodResponse	1	0.225	423.392	9	44	Target	Win	True
424.392	0.3	Win2	0.6889	0.004	Yes	2.979	-0.004	4.0	GoodResponse	1	0.225	n/a	9	44	ButtonPress	Win	True
424.452	0.43	Win2	0.6889	n/a	Yes	2.979	n/a	n/a	GoodResponse	1	n/a	n/a	9	44	Blank	Win	True
424.87	1.45	Win2	0.6889	n/a	Yes	2.979	n/a	5.0	GoodResponse	1	0.033	423.903	9	44	Feedback	Win	True
426.324	2.979	Win2	0.6889	n/a	Yes	2.979	n/a	n/a	GoodResponse	1	0.0	n/a	9	44	ISIslide	Win	True
429.316	0.25	Control	0.6957	0.0	Yes	2.884	0.016	n/a	GoodResponse	0	n/a	n/a	9	45	Cue	Neutral	True
429.567	4.1	Control	0.6957	0.0	Yes	2.884	0.001	n/a	GoodResponse	0	n/a	n/a	9	45	Fixation	Neutral	True
433.663	0.26	Control	0.6957	0.003	Yes	2.884	-0.003	4.0	GoodResponse	0	0.222	432.885	9	45	Target	Neutral	True
433.885	0.3	Control	0.6957	0.003	Yes	2.884	-0.003	4.0	GoodResponse	0	0.222	n/a	9	45	ButtonPress	Neutral	True
433.93	0.44	Control	0.6957	n/a	Yes	2.884	n/a	n/a	GoodResponse	0	n/a	n/a	9	45	Blank	Neutral	True
434.365	1.45	Control	0.6957	n/a	Yes	2.884	n/a	5.0	GoodResponse	0	0.006	433.371	9	45	Feedback	Neutral	True
435.819	2.884	Control	0.6957	n/a	Yes	2.884	n/a	n/a	GoodResponse	0	0.0	n/a	9	45	ISIslide	Neutral	True
438.728	0.25	Lose2	0.6809000000000001	0.0	No	3.372	0.028	n/a	NoResponse	-1	n/a	n/a	8	46	Cue	Loss	True
438.978	4.0	Lose2	0.6809000000000001	0.001	No	3.372	0.0	n/a	NoResponse	-1	n/a	n/a	8	46	Fixation	Loss	True
442.974	0.25	Lose2	0.6809000000000001	0.004	No	3.372	-0.004	4.0	NoResponse	-1	0.535	442.509	8	46	Target	Loss	True
443.224	0.45	Lose2	0.6809000000000001	n/a	No	3.372	n/a	n/a	NoResponse	-1	n/a	n/a	8	46	Blank	Loss	True
443.509	0.3	Lose2	0.6809000000000001	0.004	No	3.372	-0.004	4.0	NoResponse	-1	0.535	n/a	8	46	ButtonPress	Loss	True
443.676	1.45	Lose2	0.6809000000000001	n/a	No	3.372	n/a	5.0	NoResponse	-1	0.007	442.683	8	46	Feedback	Loss	True
445.13	3.372	Lose2	0.6809000000000001	n/a	No	3.372	n/a	n/a	NoResponse	-1	0.0	n/a	8	46	ISIslide	Loss	True
448.524	0.25	Lose2	0.6875	0.0	Yes	2.676	0.024	n/a	GoodResponse	0	n/a	n/a	8	47	Cue	AvoidedLoss	True
448.774	4.0	Lose2	0.6875	0.001	Yes	2.676	0.0	n/a	GoodResponse	0	n/a	n/a	8	47	Fixation	AvoidedLoss	True
452.77	0.24	Lose2	0.6875	0.004	Yes	2.676	-0.004	4.0	GoodResponse	0	0.228	451.998	8	47	Target	AvoidedLoss	True
452.998	0.3	Lose2	0.6875	0.004	Yes	2.676	-0.004	4.0	GoodResponse	0	0.228	n/a	8	47	ButtonPress	AvoidedLoss	True
453.021	0.46	Lose2	0.6875	n/a	Yes	2.676	n/a	n/a	GoodResponse	0	n/a	n/a	8	47	Blank	AvoidedLoss	True
453.472	1.45	Lose2	0.6875	n/a	Yes	2.676	n/a	5.0	GoodResponse	0	0.016	452.488	8	47	Feedback	AvoidedLoss	True
454.926	2.676	Lose2	0.6875	n/a	Yes	2.676	n/a	n/a	GoodResponse	0	0.0	n/a	8	47	ISIslide	AvoidedLoss	True
457.618	0.25	Lose2	0.6939	0.0	Yes	3.032	0.018	n/a	GoodResponse	0	n/a	n/a	8	48	Cue	AvoidedLoss	True
457.868	3.95	Lose2	0.6939	0.0	Yes	3.032	0.0	n/a	GoodResponse	0	n/a	n/a	8	48	Fixation	AvoidedLoss	True
461.814	0.23	Lose2	0.6939	0.004	Yes	3.032	-0.004	4.0	GoodResponse	0	0.19	461.004	8	48	Target	AvoidedLoss	True
462.004	0.3	Lose2	0.6939	0.004	Yes	3.032	-0.004	4.0	GoodResponse	0	0.19	n/a	8	48	ButtonPress	AvoidedLoss	True
462.048	0.47	Lose2	0.6939	n/a	Yes	3.032	n/a	n/a	GoodResponse	0	n/a	n/a	8	48	Blank	AvoidedLoss	True
462.516	1.45	Lose2	0.6939	n/a	Yes	3.032	n/a	5.0	GoodResponse	0	0.045	461.561	8	48	Feedback	AvoidedLoss	True
463.97	3.032	Lose2	0.6939	n/a	Yes	3.032	n/a	n/a	GoodResponse	0	0.0	n/a	8	48	ISIslide	AvoidedLoss	True
467.029	0.25	Control	0.7	0.0	Yes	2.871	0.029	n/a	GoodResponse	0	n/a	n/a	8	49	Cue	Neutral	True
467.28	4.0	Control	0.7	0.0	Yes	2.871	0.001	n/a	GoodResponse	0	n/a	n/a	8	49	Fixation	Neutral	True
471.275	0.22	Control	0.7	0.004	Yes	2.871	-0.004	4.0	GoodResponse	0	0.198	470.473	8	49	Target	Neutral	True
471.473	0.3	Control	0.7	0.004	Yes	2.871	-0.004	4.0	GoodResponse	0	0.198	n/a	8	49	ButtonPress	Neutral	True
471.509	0.48	Control	0.7	n/a	Yes	2.871	n/a	n/a	GoodResponse	0	n/a	n/a	8	49	Blank	Neutral	True
471.977	1.45	Control	0.7	n/a	Yes	2.871	n/a	5.0	GoodResponse	0	0.048	471.025	8	49	Feedback	Neutral	True
473.432	2.871	Control	0.7	n/a	Yes	2.871	n/a	n/a	GoodResponse	0	0.0	n/a	8	49	ISIslide	Neutral	True
476.324	0.25	Control	0.7059000000000001	0.0	Yes	2.776	0.024	n/a	GoodResponse	0	n/a	n/a	8	50	Cue	Neutral	True
476.574	4.0	Control	0.7059000000000001	0.0	Yes	2.776	0.0	n/a	GoodResponse	0	n/a	n/a	8	50	Fixation	Neutral	True
480.57	0.21	Control	0.7059000000000001	0.004	Yes	2.776	-0.004	4.0	GoodResponse	0	0.205	479.775	8	50	Target	Neutral	True
480.775	0.3	Control	0.7059000000000001	0.004	Yes	2.776	-0.004	4.0	GoodResponse	0	0.205	n/a	8	50	ButtonPress	Neutral	True
480.787	0.49	Control	0.7059000000000001	n/a	Yes	2.776	n/a	n/a	GoodResponse	0	n/a	n/a	8	50	Blank	Neutral	True
481.272	1.45	Control	0.7059000000000001	n/a	Yes	2.776	n/a	5.0	GoodResponse	0	0.021	480.293	8	50	Feedback	Neutral	True
482.726	2.776	Control	0.7059000000000001	n/a	Yes	2.776	n/a	n/a	GoodResponse	0	0.0	n/a	8	50	ISIslide	Neutral	True
485.518	0.25	Control	0.7115	0.0	Yes	2.732	0.018	n/a	GoodResponse	0	n/a	n/a	8	51	Cue	Neutral	True
485.769	3.95	Control	0.7115	0.0	Yes	2.732	0.001	n/a	GoodResponse	0	n/a	n/a	8	51	Fixation	Neutral	True
489.714	0.2	Control	0.7115	0.004	Yes	2.732	-0.004	4.0	GoodResponse	0	0.182	488.896	8	51	Target	Neutral	True
489.896	0.3	Control	0.7115	0.004	Yes	2.732	-0.004	4.0	GoodResponse	0	0.182	n/a	8	51	ButtonPress	Neutral	True
489.914	0.5	Control	0.7115	n/a	Yes	2.732	n/a	n/a	GoodResponse	0	n/a	n/a	8	51	Blank	Neutral	True
490.416	1.45	Control	0.7115	n/a	Yes	2.732	n/a	5.0	GoodResponse	0	0.047	489.463	8	51	Feedback	Neutral	True
491.87	2.732	Control	0.7115	n/a	Yes	2.732	n/a	n/a	GoodResponse	0	0.0	n/a	8	51	ISIslide	Neutral	True
494.629	0.25	Control	0.7170000000000001	0.0	Yes	2.621	0.029	n/a	GoodResponse	0	n/a	n/a	8	52	Cue	Neutral	True
494.879	4.05	Control	0.7170000000000001	0.0	Yes	2.621	0.0	n/a	GoodResponse	0	n/a	n/a	8	52	Fixation	Neutral	True
498.925	0.19	Control	0.7170000000000001	0.004	Yes	2.621	-0.004	4.0	GoodResponse	0	0.176	498.101	8	52	Target	Neutral	True
499.101	0.3	Control	0.7170000000000001	0.004	Yes	2.621	-0.004	4.0	GoodResponse	0	0.176	n/a	8	52	ButtonPress	Neutral	True
499.125	0.51	Control	0.7170000000000001	n/a	Yes	2.621	n/a	n/a	GoodResponse	0	n/a	n/a	8	52	Blank	Neutral	True
499.627	1.45	Control	0.7170000000000001	n/a	Yes	2.621	n/a	5.0	GoodResponse	0	0.007	498.634	8	52	Feedback	Neutral	True
501.081	2.621	Control	0.7170000000000001	n/a	Yes	2.621	n/a	n/a	GoodResponse	0	0.0	n/a	8	52	ISIslide	Neutral	True
503.722	0.25	Win2	0.7037	0.001	No	2.928	0.022	n/a	LatePress	0	n/a	n/a	8	53	Cue	MissedWin	True
503.973	4.05	Win2	0.7037	0.0	No	2.928	0.001	n/a	LatePress	0	n/a	n/a	8	53	Fixation	MissedWin	True
508.019	0.18	Win2	0.7037	0.003	No	2.928	-0.003	4.0	LatePress	0	0.182	507.201	8	53	Target	MissedWin	True
508.201	0.3	Win2	0.7037	0.003	No	2.928	-0.003	4.0	LatePress	0	0.182	n/a	8	53	ButtonPress	MissedWin	True
508.203	0.52	Win2	0.7037	n/a	No	2.928	n/a	n/a	LatePress	0	n/a	n/a	8	53	Blank	MissedWin	True
508.721	1.45	Win2	0.7037	n/a	No	2.928	n/a	5.0	LatePress	0	0.035	507.756	8	53	Feedback	MissedWin	True
510.175	2.928	Win2	0.7037	n/a	No	2.928	n/a	n/a	LatePress	0	0.0	n/a	8	53	ISIslide	MissedWin	True
513.117	0.25	Win2	0.6909000000000001	0.0	No	2.733	0.017	n/a	NoResponse	0	n/a	n/a	8	54	Cue	MissedWin	True
513.368	3.95	Win2	0.6909000000000001	0.0	No	2.733	0.001	n/a	NoResponse	0	n/a	n/a	8	54	Fixation	MissedWin	True
517.313	0.17	Win2	0.6909000000000001	0.004	No	2.733	-0.004	4.0	NoResponse	0	0.233	516.546	8	54	Target	MissedWin	True
517.497	0.53	Win2	0.6909000000000001	n/a	No	2.733	n/a	n/a	NoResponse	0	n/a	n/a	8	54	Blank	MissedWin	True
517.546	0.3	Win2	0.6909000000000001	0.004	No	2.733	-0.004	4.0	NoResponse	0	0.233	n/a	8	54	ButtonPress	MissedWin	True
518.015	1.45	Win2	0.6909000000000001	n/a	No	2.733	n/a	5.0	NoResponse	0	0.009	517.024	8	54	Feedback	MissedWin	True
519.47	2.733	Win2	0.6909000000000001	n/a	No	2.733	n/a	n/a	NoResponse	0	0.0	n/a	8	54	ISIslide	MissedWin	True
522.228	0.25	Control	0.6786	0.0	No	3.022	0.028	n/a	NoResponse	0	n/a	n/a	8	55	Cue	Neutral	True
522.479	3.95	Control	0.6786	0.0	No	3.022	0.001	n/a	NoResponse	0	n/a	n/a	8	55	Fixation	Neutral	True
526.424	0.16	Control	0.6786	0.004	No	3.022	-0.004	4.0	NoResponse	0	0.234	525.658	8	55	Target	Neutral	True
526.591	0.54	Control	0.6786	n/a	No	3.022	n/a	n/a	NoResponse	0	n/a	n/a	8	55	Blank	Neutral	True
526.658	0.3	Control	0.6786	0.004	No	3.022	-0.004	4.0	NoResponse	0	0.234	n/a	8	55	ButtonPress	Neutral	True
527.126	1.45	Control	0.6786	n/a	No	3.022	n/a	5.0	NoResponse	0	0.02	526.146	8	55	Feedback	Neutral	True
528.58	3.022	Control	0.6786	n/a	No	3.022	n/a	n/a	NoResponse	0	0.0	n/a	8	55	ISIslide	Neutral	True
531.623	0.25	Control	0.6667000000000001	0.0	No	2.827	0.023	n/a	NoResponse	0	n/a	n/a	8	56	Cue	Neutral	True
531.873	3.95	Control	0.6667000000000001	0.001	No	2.827	0.0	n/a	NoResponse	0	n/a	n/a	8	56	Fixation	Neutral	True
535.819	0.15	Control	0.6667000000000001	0.004	No	2.827	-0.004	4.0	NoResponse	0	0.208	535.027	8	56	Target	Neutral	True
535.969	0.55	Control	0.6667000000000001	n/a	No	2.827	n/a	n/a	NoResponse	0	n/a	n/a	8	56	Blank	Neutral	True
536.027	0.3	Control	0.6667000000000001	0.004	No	2.827	-0.004	4.0	NoResponse	0	0.208	n/a	8	56	ButtonPress	Neutral	True
536.521	1.45	Control	0.6667000000000001	n/a	No	2.827	n/a	5.0	NoResponse	0	0.04	535.561	8	56	Feedback	Neutral	True
537.975	2.827	Control	0.6667000000000001	n/a	No	2.827	n/a	n/a	NoResponse	0	0.0	n/a	8	56	ISIslide	Neutral	True
540.817	0.25	Control	0.6552	0.0	No	3.483	0.017	n/a	NoResponse	0	n/a	n/a	8	57	Cue	Neutral	True
541.068	4.0	Control	0.6552	0.0	No	3.483	0.001	n/a	NoResponse	0	n/a	n/a	8	57	Fixation	Neutral	True
545.063	0.15	Control	0.6552	0.004	No	3.483	-0.004	4.0	NoResponse	0	0.214	544.277	8	57	Target	Neutral	True
545.213	0.55	Control	0.6552	n/a	No	3.483	n/a	n/a	NoResponse	0	n/a	n/a	8	57	Blank	Neutral	True
545.277	0.3	Control	0.6552	0.004	No	3.483	-0.004	4.0	NoResponse	0	0.214	n/a	8	57	ButtonPress	Neutral	True
545.765	1.45	Control	0.6552	n/a	No	3.483	n/a	5.0	NoResponse	0	0.015	544.78	8	57	Feedback	Neutral	True
547.219	3.483	Control	0.6552	n/a	No	3.483	n/a	n/a	NoResponse	0	0.0	n/a	8	57	ISIslide	Neutral	True
550.73	0.25	Win2	0.6441	0.0	No	2.72	0.03	n/a	NoResponse	0	n/a	n/a	8	58	Cue	MissedWin	True
550.981	4.05	Win2	0.6441	0.0	No	2.72	0.001	n/a	NoResponse	0	n/a	n/a	8	58	Fixation	MissedWin	True
555.026	0.15	Win2	0.6441	0.004	No	2.72	-0.004	4.0	NoResponse	0	0.198	554.224	8	58	Target	MissedWin	True
555.177	0.55	Win2	0.6441	n/a	No	2.72	n/a	n/a	NoResponse	0	n/a	n/a	8	58	Blank	MissedWin	True
555.224	0.3	Win2	0.6441	0.004	No	2.72	-0.004	4.0	NoResponse	0	0.198	n/a	8	58	ButtonPress	MissedWin	True
555.728	1.45	Win2	0.6441	n/a	No	2.72	n/a	5.0	NoResponse	0	0.007	554.735	8	58	Feedback	MissedWin	True
557.183	2.72	Win2	0.6441	n/a	No	2.72	n/a	n/a	NoResponse	0	0.0	n/a	8	58	ISIslide	MissedWin	True
559.924	0.25	Lose2	0.6333	0.0	No	2.676	0.024	n/a	NoResponse	-1	n/a	n/a	7	59	Cue	Loss	True
560.175	4.0	Lose2	0.6333	0.0	No	2.676	0.001	n/a	NoResponse	-1	n/a	n/a	7	59	Fixation	Loss	True
564.17	0.16	Lose2	0.6333	0.004	No	2.676	-0.004	4.0	NoResponse	-1	0.232	563.402	7	59	Target	Loss	True
564.337	0.54	Lose2	0.6333	n/a	No	2.676	n/a	n/a	NoResponse	-1	n/a	n/a	7	59	Blank	Loss	True
564.402	0.3	Lose2	0.6333	0.004	No	2.676	-0.004	4.0	NoResponse	-1	0.232	n/a	7	59	ButtonPress	Loss	True
564.872	1.45	Lose2	0.6333	n/a	No	2.676	n/a	5.0	NoResponse	-1	0.03	563.902	7	59	Feedback	Loss	True
566.327	2.676	Lose2	0.6333	n/a	No	2.676	n/a	n/a	NoResponse	-1	0.0	n/a	7	59	ISIslide	Loss	True
569.018	0.25	Control	0.623	0.0	No	2.682	0.018	n/a	NoResponse	0	n/a	n/a	7	60	Cue	Neutral	True
569.269	4.0	Control	0.623	0.0	No	2.682	0.001	n/a	NoResponse	0	n/a	n/a	7	60	Fixation	Neutral	True
573.264	0.17	Control	0.623	0.004	No	2.682	-0.004	4.0	NoResponse	0	0.266	572.53	7	60	Target	Neutral	True
573.448	0.53	Control	0.623	n/a	No	2.682	n/a	n/a	NoResponse	0	n/a	n/a	7	60	Blank	Neutral	True
573.53	0.3	Control	0.623	0.004	No	2.682	-0.004	4.0	NoResponse	0	0.266	n/a	7	60	ButtonPress	Neutral	True
573.966	1.45	Control	0.623	n/a	No	2.682	n/a	5.0	NoResponse	0	0.009	572.975	7	60	Feedback	Neutral	True
575.421	2.682	Control	0.623	n/a	No	2.682	n/a	n/a	NoResponse	0	0.0	n/a	7	60	ISIslide	Neutral	True
578.129	0.25	Lose2	0.6129	0.0	No	2.971	0.029	n/a	NoResponse	-1	n/a	n/a	6	61	Cue	Loss	True
578.379	4.0	Lose2	0.6129	0.001	No	2.971	0.0	n/a	NoResponse	-1	n/a	n/a	6	61	Fixation	Loss	True
582.375	0.18	Lose2	0.6129	0.004	No	2.971	-0.004	4.0	NoResponse	-1	0.217	581.592	6	61	Target	Loss	True
582.559	0.52	Lose2	0.6129	n/a	No	2.971	n/a	n/a	NoResponse	-1	n/a	n/a	6	61	Blank	Loss	True
582.592	0.3	Lose2	0.6129	0.004	No	2.971	-0.004	4.0	NoResponse	-1	0.217	n/a	6	61	ButtonPress	Loss	True
583.077	1.45	Lose2	0.6129	n/a	No	2.971	n/a	5.0	NoResponse	-1	0.02	582.097	6	61	Feedback	Loss	True
584.531	2.971	Lose2	0.6129	n/a	No	2.971	n/a	n/a	NoResponse	-1	0.0	n/a	6	61	ISIslide	Loss	True
587.524	0.25	Lose2	0.6032	0.0	No	2.876	0.024	n/a	NoResponse	-1	n/a	n/a	5	62	Cue	Loss	True
587.774	3.9	Lose2	0.6032	0.0	No	2.876	0.0	n/a	NoResponse	-1	n/a	n/a	5	62	Fixation	Loss	True
591.686	0.19	Lose2	0.6032	0.0	No	2.876	0.012	4.0	NoResponse	-1	0.243	590.929	5	62	Target	Loss	True
591.87	0.51	Lose2	0.6032	n/a	No	2.876	n/a	n/a	NoResponse	-1	n/a	n/a	5	62	Blank	Loss	True
591.929	0.3	Lose2	0.6032	0.0	No	2.876	0.012	4.0	NoResponse	-1	0.243	n/a	5	62	ButtonPress	Loss	True
592.371	1.45	Lose2	0.6032	n/a	No	2.876	n/a	5.0	NoResponse	-1	0.044	591.415	5	62	Feedback	Loss	True
593.826	2.876	Lose2	0.6032	n/a	No	2.876	n/a	n/a	NoResponse	-1	0.0	n/a	5	62	ISIslide	Loss	True
596.718	0.25	Lose2	0.5938	0.0	No	2.632	0.018	n/a	NoResponse	-1	n/a	n/a	4	63	Cue	Loss	True
596.968	4.05	Lose2	0.5938	0.001	No	2.632	0.0	n/a	NoResponse	-1	n/a	n/a	4	63	Fixation	Loss	True
601.014	0.2	Lose2	0.5938	0.004	No	2.632	-0.004	4.0	NoResponse	-1	0.214	600.228	4	63	Target	Loss	True
601.215	0.5	Lose2	0.5938	n/a	No	2.632	n/a	n/a	NoResponse	-1	n/a	n/a	4	63	Blank	Loss	True
601.228	0.3	Lose2	0.5938	0.004	No	2.632	-0.004	4.0	NoResponse	-1	0.214	n/a	4	63	ButtonPress	Loss	True
601.716	1.45	Lose2	0.5938	n/a	No	2.632	n/a	5.0	NoResponse	-1	0.016	600.732	4	63	Feedback	Loss	True
603.17	2.632	Lose2	0.5938	n/a	No	2.632	n/a	n/a	NoResponse	-1	0.0	n/a	4	63	ISIslide	Loss	True
605.828	0.25	Win2	0.6	0.001	Yes	3.122	0.028	n/a	GoodResponse	1	n/a	n/a	5	64	Cue	Win	True
606.079	4.15	Win2	0.6	0.0	Yes	3.122	0.001	n/a	GoodResponse	1	n/a	n/a	5	64	Fixation	Win	True
610.225	0.21	Win2	0.6	0.003	Yes	3.122	-0.003	4.0	GoodResponse	1	0.192	609.417	5	64	Target	Win	True
610.417	0.3	Win2	0.6	0.003	Yes	3.122	-0.003	4.0	GoodResponse	1	0.192	n/a	5	64	ButtonPress	Win	True
610.442	0.49	Win2	0.6	n/a	Yes	3.122	n/a	n/a	GoodResponse	1	n/a	n/a	5	64	Blank	Win	True
610.927	1.45	Win2	0.6	n/a	Yes	3.122	n/a	5.0	GoodResponse	1	0.023	609.95	5	64	Feedback	Win	True
612.381	3.122	Win2	0.6	n/a	Yes	3.122	n/a	n/a	GoodResponse	1	0.0	n/a	5	64	ISIslide	Win	True
615.524	0.25	Control	0.5909	0.0	No	2.776	0.024	n/a	LatePress	0	n/a	n/a	5	65	Cue	Neutral	True
615.775	4.0	Control	0.5909	0.0	No	2.776	0.001	n/a	LatePress	0	n/a	n/a	5	65	Fixation	Neutral	True
619.77	0.22	Control	0.5909	0.004	No	2.776	-0.004	4.0	LatePress	0	0.23	619.0	5	65	Target	Neutral	True
620	0.3	Control	0.5909	0.004	No	2.776	-0.004	4.0	LatePress	0	0.23	n/a	5	65	ButtonPress	Neutral	True
620.004	0.48	Control	0.5909	n/a	No	2.776	n/a	n/a	LatePress	0	n/a	n/a	5	65	Blank	Neutral	True
620.472	1.45	Control	0.5909	n/a	No	2.776	n/a	5.0	LatePress	0	0.04	619.512	5	65	Feedback	Neutral	True
621.927	2.776	Control	0.5909	n/a	No	2.776	n/a	n/a	LatePress	0	0.0	n/a	5	65	ISIslide	Neutral	True
624.718	0.25	Win2	0.597	0.0	Yes	2.782	0.018	n/a	GoodResponse	1	n/a	n/a	6	66	Cue	Win	True
624.969	3.9	Win2	0.597	0.0	Yes	2.782	0.001	n/a	GoodResponse	1	n/a	n/a	6	66	Fixation	Win	True
628.864	0.23	Win2	0.597	0.004	Yes	2.782	-0.004	4.0	GoodResponse	1	0.18	628.044	6	66	Target	Win	True
629.044	0.3	Win2	0.597	0.004	Yes	2.782	-0.004	4.0	GoodResponse	1	0.18	n/a	6	66	ButtonPress	Win	True
629.098	0.47	Win2	0.597	n/a	Yes	2.782	n/a	n/a	GoodResponse	1	n/a	n/a	6	66	Blank	Win	True
629.566	1.45	Win2	0.597	n/a	Yes	2.782	n/a	5.0	GoodResponse	1	0.019	628.585	6	66	Feedback	Win	True
631.021	2.782	Win2	0.597	n/a	Yes	2.782	n/a	n/a	GoodResponse	1	0.0	n/a	6	66	ISIslide	Win	True
633.829	0.25	Control	0.6029	0.0	Yes	2.721	0.029	n/a	GoodResponse	0	n/a	n/a	6	67	Cue	Neutral	True
634.08	3.95	Control	0.6029	0.0	Yes	2.721	0.001	n/a	GoodResponse	0	n/a	n/a	6	67	Fixation	Neutral	True
638.025	0.24	Control	0.6029	0.004	Yes	2.721	-0.004	4.0	GoodResponse	0	0.194	637.219	6	67	Target	Neutral	True
638.219	0.3	Control	0.6029	0.004	Yes	2.721	-0.004	4.0	GoodResponse	0	0.194	n/a	6	67	ButtonPress	Neutral	True
638.276	0.46	Control	0.6029	n/a	Yes	2.721	n/a	n/a	GoodResponse	0	n/a	n/a	6	67	Blank	Neutral	True
638.727	1.45	Control	0.6029	n/a	Yes	2.721	n/a	5.0	GoodResponse	0	0.029	637.756	6	67	Feedback	Neutral	True
640.181	2.721	Control	0.6029	n/a	Yes	2.721	n/a	n/a	GoodResponse	0	0.0	n/a	6	67	ISIslide	Neutral	True
642.923	0.25	Win2	0.6087	0.0	Yes	3.077	0.023	n/a	GoodResponse	1	n/a	n/a	7	68	Cue	Win	True
643.174	4.0	Win2	0.6087	0.0	Yes	3.077	0.001	n/a	GoodResponse	1	n/a	n/a	7	68	Fixation	Win	True
647.169	0.25	Win2	0.6087	0.004	Yes	3.077	-0.004	4.0	GoodResponse	1	0.206	646.375	7	68	Target	Win	True
647.375	0.3	Win2	0.6087	0.004	Yes	3.077	-0.004	4.0	GoodResponse	1	0.206	n/a	7	68	ButtonPress	Win	True
647.42	0.45	Win2	0.6087	n/a	Yes	3.077	n/a	n/a	GoodResponse	1	n/a	n/a	7	68	Blank	Win	True
647.871	1.45	Win2	0.6087	n/a	Yes	3.077	n/a	5.0	GoodResponse	1	0.007	646.878	7	68	Feedback	Win	True
649.325	3.077	Win2	0.6087	n/a	Yes	3.077	n/a	n/a	GoodResponse	1	0.0	n/a	7	68	ISIslide	Win	True
652.418	0.25	Win2	0.6143	0.0	Yes	3.232	0.018	n/a	GoodResponse	1	n/a	n/a	8	69	Cue	Win	True
652.669	3.95	Win2	0.6143	0.0	Yes	3.232	0.001	n/a	GoodResponse	1	n/a	n/a	8	69	Fixation	Win	True
656.614	0.26	Win2	0.6143	0.004	Yes	3.232	-0.004	4.0	GoodResponse	1	0.195	655.809	8	69	Target	Win	True
656.809	0.3	Win2	0.6143	0.004	Yes	3.232	-0.004	4.0	GoodResponse	1	0.195	n/a	8	69	ButtonPress	Win	True
656.881	0.44	Win2	0.6143	n/a	Yes	3.232	n/a	n/a	GoodResponse	1	n/a	n/a	8	69	Blank	Win	True
657.316	1.45	Win2	0.6143	n/a	Yes	3.232	n/a	5.0	GoodResponse	1	0.025	656.341	8	69	Feedback	Win	True
658.77	3.232	Win2	0.6143	n/a	Yes	3.232	n/a	n/a	GoodResponse	1	0.0	n/a	8	69	ISIslide	Win	True
662.03	0.25	Lose2	0.6197	0.0	Yes	3.02	0.03	n/a	GoodResponse	0	n/a	n/a	8	70	Cue	AvoidedLoss	True
662.281	4.05	Lose2	0.6197	0.0	Yes	3.02	0.001	n/a	GoodResponse	0	n/a	n/a	8	70	Fixation	AvoidedLoss	True
666.326	0.27	Lose2	0.6197	0.004	Yes	3.02	-0.004	4.0	GoodResponse	0	0.203	665.529	8	70	Target	AvoidedLoss	True
666.529	0.3	Lose2	0.6197	0.004	Yes	3.02	-0.004	4.0	GoodResponse	0	0.203	n/a	8	70	ButtonPress	AvoidedLoss	True
666.611	0.43	Lose2	0.6197	n/a	Yes	3.02	n/a	n/a	GoodResponse	0	n/a	n/a	8	70	Blank	AvoidedLoss	True
667.028	1.45	Lose2	0.6197	n/a	Yes	3.02	n/a	5.0	GoodResponse	0	0.02	666.048	8	70	Feedback	AvoidedLoss	True
668.483	3.02	Lose2	0.6197	n/a	Yes	3.02	n/a	n/a	GoodResponse	0	0.0	n/a	8	70	ISIslide	AvoidedLoss	True
671.525	0.25	Win2	0.625	0.0	Yes	2.725	0.025	n/a	GoodResponse	1	n/a	n/a	9	71	Cue	Win	False
671.776	4.05	Win2	0.625	0.0	Yes	2.725	0.001	4.0	GoodResponse	1	3.559	674.335	9	71	Fixation	Win	False
675.335	0.3	Win2	0.625	0.0	Yes	2.725	0.001	4.0	GoodResponse	1	3.559	n/a	9	71	ButtonPress	Win	False
675.821	0.28	Win2	0.625	0.004	Yes	2.725	-0.004	4.0	GoodResponse	1	0.115	674.936	9	71	Target	Win	False
675.936	0.3	Win2	0.625	0.004	Yes	2.725	-0.004	4.0	GoodResponse	1	0.115	n/a	9	71	ButtonPress	Win	False
676.106	0.42	Win2	0.625	n/a	Yes	2.725	n/a	n/a	GoodResponse	1	n/a	n/a	9	71	Blank	Win	False
676.524	1.45	Win2	0.625	n/a	Yes	2.725	n/a	5.0	GoodResponse	1	0.036	675.56	9	71	Feedback	Win	False
677.978	2.725	Win2	0.625	n/a	Yes	2.725	n/a	n/a	GoodResponse	1	0.0	n/a	9	71	ISIslide	Win	False
680.719	0.25	Win2	0.6301	0.001	Yes	2.781	0.019	n/a	GoodResponse	1	n/a	n/a	10	72	Cue	Win	True
680.97	4.1	Win2	0.6301	0.0	Yes	2.781	0.001	n/a	GoodResponse	1	n/a	n/a	10	72	Fixation	Win	True
685.066	0.29	Win2	0.6301	0.003	Yes	2.781	-0.003	4.0	GoodResponse	1	0.242	684.308	10	72	Target	Win	True
685.308	0.3	Win2	0.6301	0.003	Yes	2.781	-0.003	4.0	GoodResponse	1	0.242	n/a	10	72	ButtonPress	Win	True
685.367	0.41	Win2	0.6301	n/a	Yes	2.781	n/a	n/a	GoodResponse	1	n/a	n/a	10	72	Blank	Win	True
685.768	1.45	Win2	0.6301	n/a	Yes	2.781	n/a	5.0	GoodResponse	1	0.012	684.78	10	72	Feedback	Win	True
687.222	2.781	Win2	0.6301	n/a	Yes	2.781	n/a	n/a	GoodResponse	1	0.0	n/a	10	72	ISIslide	Win	True
690.031	0.25	Win2	0.6351	0.0	Yes	2.669	0.031	n/a	GoodResponse	1	n/a	n/a	11	73	Cue	Win	True
690.281	4.0	Win2	0.6351	0.001	Yes	2.669	0.0	n/a	GoodResponse	1	n/a	n/a	11	73	Fixation	Win	True
694.277	0.3	Win2	0.6351	0.004	Yes	2.669	-0.004	4.0	GoodResponse	1	0.21	693.487	11	73	Target	Win	True
694.487	0.3	Win2	0.6351	0.004	Yes	2.669	-0.004	4.0	GoodResponse	1	0.21	n/a	11	73	ButtonPress	Win	True
694.578	0.4	Win2	0.6351	n/a	Yes	2.669	n/a	n/a	GoodResponse	1	n/a	n/a	11	73	Blank	Win	True
694.979	1.45	Win2	0.6351	n/a	Yes	2.669	n/a	5.0	GoodResponse	1	0.02	693.999	11	73	Feedback	Win	True
696.433	2.669	Win2	0.6351	n/a	Yes	2.669	n/a	n/a	GoodResponse	1	0.0	n/a	11	73	ISIslide	Win	True
699.125	0.25	Lose2	0.64	0.0	Yes	2.625	0.025	n/a	GoodResponse	0	n/a	n/a	11	74	Cue	AvoidedLoss	True
699.375	4.05	Lose2	0.64	0.0	Yes	2.625	0.0	n/a	GoodResponse	0	n/a	n/a	11	74	Fixation	AvoidedLoss	True
703.421	0.31	Lose2	0.64	0.004	Yes	2.625	-0.004	4.0	GoodResponse	0	0.234	702.655	11	74	Target	AvoidedLoss	True
703.655	0.3	Lose2	0.64	0.004	Yes	2.625	-0.004	4.0	GoodResponse	0	0.234	n/a	11	74	ButtonPress	AvoidedLoss	True
703.738	0.39	Lose2	0.64	n/a	Yes	2.625	n/a	n/a	GoodResponse	0	n/a	n/a	11	74	Blank	AvoidedLoss	True
704.123	1.45	Lose2	0.64	n/a	Yes	2.625	n/a	5.0	GoodResponse	0	0.047	703.17	11	74	Feedback	AvoidedLoss	True
705.577	2.625	Lose2	0.64	n/a	Yes	2.625	n/a	n/a	GoodResponse	0	0.0	n/a	11	74	ISIslide	AvoidedLoss	True
708.219	0.25	Lose2	0.6446999999999999	0.0	Yes	2.931	0.019	n/a	GoodResponse	0	n/a	n/a	11	75	Cue	AvoidedLoss	True
708.469	3.95	Lose2	0.6446999999999999	0.0	Yes	2.931	0.0	n/a	GoodResponse	0	n/a	n/a	11	75	Fixation	AvoidedLoss	True
712.431	0.32	Lose2	0.6446999999999999	0.0	Yes	2.931	0.012	4.0	GoodResponse	0	0.207	711.638	11	75	Target	AvoidedLoss	True
712.638	0.3	Lose2	0.6446999999999999	0.0	Yes	2.931	0.012	4.0	GoodResponse	0	0.207	n/a	11	75	ButtonPress	AvoidedLoss	True
712.749	0.38	Lose2	0.6446999999999999	n/a	Yes	2.931	n/a	n/a	GoodResponse	0	n/a	n/a	11	75	Blank	AvoidedLoss	True
713.117	1.45	Lose2	0.6446999999999999	n/a	Yes	2.931	n/a	5.0	GoodResponse	0	0.029	712.146	11	75	Feedback	AvoidedLoss	True
714.571	2.931	Lose2	0.6446999999999999	n/a	Yes	2.931	n/a	n/a	GoodResponse	0	0.0	n/a	11	75	ISIslide	AvoidedLoss	True
717.53	0.25	Control	0.6494	0.0	Yes	3.22	0.03	n/a	GoodResponse	0	n/a	n/a	11	76	Cue	Neutral	True
717.781	4.05	Control	0.6494	0.0	Yes	3.22	0.001	n/a	GoodResponse	0	n/a	n/a	11	76	Fixation	Neutral	True
721.826	0.33	Control	0.6494	0.004	Yes	3.22	-0.004	4.0	GoodResponse	0	0.284	721.11	11	76	Target	Neutral	True
722.11	0.3	Control	0.6494	0.004	Yes	3.22	-0.004	4.0	GoodResponse	0	0.284	n/a	11	76	ButtonPress	Neutral	True
722.16	0.37	Control	0.6494	n/a	Yes	3.22	n/a	n/a	GoodResponse	0	n/a	n/a	11	76	Blank	Neutral	True
722.528	1.45	Control	0.6494	n/a	Yes	3.22	n/a	5.0	GoodResponse	0	0.032	721.56	11	76	Feedback	Neutral	True
723.982	3.22	Control	0.6494	n/a	Yes	3.22	n/a	n/a	GoodResponse	0	0.0	n/a	11	76	ISIslide	Neutral	True
727.225	0.25	Lose2	0.6409999999999999	0.001	No	2.575	0.025	n/a	NoResponse	-1	n/a	n/a	10	77	Cue	Loss	True
727.476	3.95	Lose2	0.6409999999999999	0.0	No	2.575	0.001	n/a	NoResponse	-1	n/a	n/a	10	77	Fixation	Loss	True
731.421	0.34	Lose2	0.6409999999999999	0.004	No	2.575	-0.004	4.0	NoResponse	-1	0.37	730.791	10	77	Target	Loss	True
731.772	0.36	Lose2	0.6409999999999999	n/a	No	2.575	n/a	n/a	NoResponse	-1	n/a	n/a	10	77	Blank	Loss	True
731.791	0.3	Lose2	0.6409999999999999	0.004	No	2.575	-0.004	4.0	NoResponse	-1	0.37	n/a	10	77	ButtonPress	Loss	True
732.123	1.45	Lose2	0.6409999999999999	n/a	No	2.575	n/a	5.0	NoResponse	-1	0.047	731.17	10	77	Feedback	Loss	True
733.578	2.575	Lose2	0.6409999999999999	n/a	No	2.575	n/a	n/a	NoResponse	-1	0.0	n/a	10	77	ISIslide	Loss	True
