onset	duration	cue_type	current_mean_accuracy	duration_error	is_hit	isi_adjusted	onset_delay	response	response_type	reward	rt	rt_time	total_reward	trial_number	trial_phase	trial_type	one_press
11.109	0.25	Control	1.0	0.0	Yes	2.941	0.009	n/a	GoodResponse	0	n/a	n/a	0	0	Cue	Neutral	False
11.359	3.85	Control	1.0	0.001	Yes	2.941	0.0	4.0	GoodResponse	0	0.27	10.629	0	0	Fixation	Neutral	False
11.629	0.3	Control	1.0	0.001	Yes	2.941	0.0	4.0	GoodResponse	0	0.27	n/a	0	0	ButtonPress	Neutral	False
15.221	0.4	Control	1.0	0.0	Yes	2.941	0.012	4.0	GoodResponse	0	0.266	14.487	0	0	Target	Neutral	False
15.487	0.3	Control	1.0	0.0	Yes	2.941	0.012	4.0	GoodResponse	0	0.266	n/a	0	0	ButtonPress	Neutral	False
15.605	0.3	Control	1.0	n/a	Yes	2.941	n/a	n/a	GoodResponse	0	n/a	n/a	0	0	Blank	Neutral	False
15.906	1.45	Control	1.0	n/a	Yes	2.941	n/a	5.0	GoodResponse	0	0.023	14.929	0	0	Feedback	Neutral	False
17.361	2.941	Control	1.0	n/a	Yes	2.941	n/a	n/a	GoodResponse	0	0.0	n/a	0	0	ISIslide	Neutral	False
20.32	0.25	Lose2	1.0	0.0	Yes	2.78	0.02	n/a	GoodResponse	0	n/a	n/a	0	1	Cue	AvoidedLoss	True
20.57	4.0	Lose2	1.0	0.0	Yes	2.78	0.0	n/a	GoodResponse	0	n/a	n/a	0	1	Fixation	AvoidedLoss	True
24.566	0.39	Lose2	1.0	0.004	Yes	2.78	-0.004	4.0	GoodResponse	0	0.283	23.849	0	1	Target	AvoidedLoss	True
24.849	0.3	Lose2	1.0	0.004	Yes	2.78	-0.004	4.0	GoodResponse	0	0.283	n/a	0	1	ButtonPress	AvoidedLoss	True
24.967	0.31	Lose2	1.0	n/a	Yes	2.78	n/a	n/a	GoodResponse	0	n/a	n/a	0	1	Blank	AvoidedLoss	True
25.268	1.45	Lose2	1.0	n/a	Yes	2.78	n/a	5.0	GoodResponse	0	0.027	24.295	0	1	Feedback	AvoidedLoss	True
26.722	2.78	Lose2	1.0	n/a	Yes	2.78	n/a	n/a	GoodResponse	0	0.0	n/a	0	1	ISIslide	AvoidedLoss	True
29.53	0.25	Control	1.0	0.0	Yes	2.57	0.03	n/a	GoodResponse	0	n/a	n/a	0	2	Cue	Neutral	True
29.781	4.1	Control	1.0	0.0	Yes	2.57	0.001	n/a	GoodResponse	0	n/a	n/a	0	2	Fixation	Neutral	True
33.877	0.38	Control	1.0	0.003	Yes	2.57	-0.003	4.0	GoodResponse	0	0.268	33.145	0	2	Target	Neutral	True
34.145	0.3	Control	1.0	0.003	Yes	2.57	-0.003	4.0	GoodResponse	0	0.268	n/a	0	2	ButtonPress	Neutral	True
34.261	0.32	Control	1.0	n/a	Yes	2.57	n/a	n/a	GoodResponse	0	n/a	n/a	0	2	Blank	Neutral	True
34.579	1.45	Control	1.0	n/a	Yes	2.57	n/a	5.0	GoodResponse	0	0.033	33.612	0	2	Feedback	Neutral	True
36.033	2.57	Control	1.0	n/a	Yes	2.57	n/a	n/a	GoodResponse	0	0.0	n/a	0	2	ISIslide	Neutral	True
38.624	0.25	Win2	1.0	0.0	Yes	2.826	0.024	n/a	GoodResponse	1	n/a	n/a	1	3	Cue	Win	True
38.875	3.95	Win2	1.0	0.0	Yes	2.826	0.001	n/a	GoodResponse	1	n/a	n/a	1	3	Fixation	Win	True
42.82	0.37	Win2	1.0	0.004	Yes	2.826	-0.004	4.0	GoodResponse	1	0.306	42.126	1	3	Target	Win	True
43.126	0.3	Win2	1.0	0.004	Yes	2.826	-0.004	4.0	GoodResponse	1	0.306	n/a	1	3	ButtonPress	Win	True
43.205	0.33	Win2	1.0	n/a	Yes	2.826	n/a	n/a	GoodResponse	1	n/a	n/a	1	3	Blank	Win	True
43.522	1.45	Win2	1.0	n/a	Yes	2.826	n/a	5.0	GoodResponse	1	0.017	42.539	1	3	Feedback	Win	True
44.977	2.826	Win2	1.0	n/a	Yes	2.826	n/a	n/a	GoodResponse	1	0.0	n/a	1	3	ISIslide	Win	True
47.818	0.25	Win2	1.0	0.001	Yes	3.282	0.018	n/a	GoodResponse	1	n/a	n/a	2	4	Cue	Win	True
48.069	4.0	Win2	1.0	0.0	Yes	3.282	0.001	n/a	GoodResponse	1	n/a	n/a	2	4	Fixation	Win	True
52.064	0.36	Win2	1.0	0.004	Yes	3.282	-0.004	4.0	GoodResponse	1	0.311	51.375	2	4	Target	Win	True
52.375	0.3	Win2	1.0	0.004	Yes	3.282	-0.004	4.0	GoodResponse	1	0.311	n/a	2	4	ButtonPress	Win	True
52.432	0.34	Win2	1.0	n/a	Yes	3.282	n/a	n/a	GoodResponse	1	n/a	n/a	2	4	Blank	Win	True
52.767	1.45	Win2	1.0	n/a	Yes	3.282	n/a	5.0	GoodResponse	1	0.039	51.806	2	4	Feedback	Win	True
54.221	3.282	Win2	1.0	n/a	Yes	3.282	n/a	n/a	GoodResponse	1	0.0	n/a	2	4	ISIslide	Win	True
57.531	0.25	Win2	1.0	0.0	Yes	2.769	0.031	n/a	GoodResponse	1	n/a	n/a	3	5	Cue	Win	True
57.782	4.0	Win2	1.0	0.0	Yes	2.769	0.001	n/a	GoodResponse	1	n/a	n/a	3	5	Fixation	Win	True
61.777	0.35	Win2	1.0	0.004	Yes	2.769	-0.004	4.0	GoodResponse	1	0.328	61.105	3	5	Target	Win	True
62.105	0.3	Win2	1.0	0.004	Yes	2.769	-0.004	4.0	GoodResponse	1	0.328	n/a	3	5	ButtonPress	Win	True
62.128	0.35	Win2	1.0	n/a	Yes	2.769	n/a	n/a	GoodResponse	1	n/a	n/a	3	5	Blank	Win	True
62.479	1.45	Win2	1.0	n/a	Yes	2.769	n/a	5.0	GoodResponse	1	0.035	61.514	3	5	Feedback	Win	True
63.933	2.769	Win2	1.0	n/a	Yes	2.769	n/a	n/a	GoodResponse	1	0.0	n/a	3	5	ISIslide	Win	True
66.725	0.25	Lose2	0.8571	0.0	No	2.725	0.025	n/a	NoResponse	-1	n/a	n/a	2	6	Cue	Loss	True
66.976	3.95	Lose2	0.8571	0.0	No	2.725	0.001	n/a	NoResponse	-1	n/a	n/a	2	6	Fixation	Loss	True
70.921	0.34	Lose2	0.8571	0.004	No	2.725	-0.004	4.0	NoResponse	-1	0.36	70.281	2	6	Target	Loss	True
71.272	0.36	Lose2	0.8571	n/a	No	2.725	n/a	n/a	NoResponse	-1	n/a	n/a	2	6	Blank	Loss	True
71.281	0.3	Lose2	0.8571	0.004	No	2.725	-0.004	4.0	NoResponse	-1	0.36	n/a	2	6	ButtonPress	Loss	True
71.623	1.45	Lose2	0.8571	n/a	No	2.725	n/a	5.0	NoResponse	-1	0.013	70.636	2	6	Feedback	Loss	True
73.077	2.725	Lose2	0.8571	n/a	No	2.725	n/a	n/a	NoResponse	-1	0.0	n/a	2	6	ISIslide	Loss	True
75.819	0.25	Lose2	0.875	0.0	Yes	4.031	0.019	n/a	GoodResponse	0	n/a	n/a	2	7	Cue	AvoidedLoss	True
76.07	4.05	Lose2	0.875	0.0	Yes	4.031	0.001	n/a	GoodResponse	0	n/a	n/a	2	7	Fixation	AvoidedLoss	True
80.115	0.33	Lose2	0.875	0.004	Yes	4.031	-0.004	4.0	GoodResponse	0	0.287	79.402	2	7	Target	AvoidedLoss	True
80.402	0.3	Lose2	0.875	0.004	Yes	4.031	-0.004	4.0	GoodResponse	0	0.287	n/a	2	7	ButtonPress	AvoidedLoss	True
80.449	0.37	Lose2	0.875	n/a	Yes	4.031	n/a	n/a	GoodResponse	0	n/a	n/a	2	7	Blank	AvoidedLoss	True
80.817	1.45	Lose2	0.875	n/a	Yes	4.031	n/a	5.0	GoodResponse	0	0.038	79.855	2	7	Feedback	AvoidedLoss	True
82.271	4.031	Lose2	0.875	n/a	Yes	4.031	n/a	n/a	GoodResponse	0	0.0	n/a	2	7	ISIslide	AvoidedLoss	True
86.317	0.25	Lose2	0.8889	0.0	Yes	3.033	0.017	n/a	GoodResponse	0	n/a	n/a	2	8	Cue	AvoidedLoss	True
86.568	3.95	Lose2	0.8889	0.0	Yes	3.033	0.001	n/a	GoodResponse	0	n/a	n/a	2	8	Fixation	AvoidedLoss	True
90.513	0.32	Lose2	0.8889	0.004	Yes	3.033	-0.004	4.0	GoodResponse	0	0.287	89.8	2	8	Target	AvoidedLoss	True
90.8	0.3	Lose2	0.8889	0.004	Yes	3.033	-0.004	4.0	GoodResponse	0	0.287	n/a	2	8	ButtonPress	AvoidedLoss	True
90.847	0.38	Lose2	0.8889	n/a	Yes	3.033	n/a	n/a	GoodResponse	0	n/a	n/a	2	8	Blank	AvoidedLoss	True
91.215	1.45	Lose2	0.8889	n/a	Yes	3.033	n/a	5.0	GoodResponse	0	0.031	90.246	2	8	Feedback	AvoidedLoss	True
92.669	3.033	Lose2	0.8889	n/a	Yes	3.033	n/a	n/a	GoodResponse	0	0.0	n/a	2	8	ISIslide	AvoidedLoss	True
95.728	0.25	Lose2	0.8	0.0	No	3.122	0.028	n/a	NoResponse	-1	n/a	n/a	1	9	Cue	Loss	True
95.979	3.95	Lose2	0.8	0.0	No	3.122	0.001	n/a	NoResponse	-1	n/a	n/a	1	9	Fixation	Loss	True
99.924	0.31	Lose2	0.8	0.004	No	3.122	-0.004	4.0	NoResponse	-1	0.327	99.251	1	9	Target	Loss	True
100.242	0.39	Lose2	0.8	n/a	No	3.122	n/a	n/a	NoResponse	-1	n/a	n/a	1	9	Blank	Loss	True
100.251	0.3	Lose2	0.8	0.004	No	3.122	-0.004	4.0	NoResponse	-1	0.327	n/a	1	9	ButtonPress	Loss	True
100.626	1.45	Lose2	0.8	n/a	No	3.122	n/a	5.0	NoResponse	-1	0.033	99.659	1	9	Feedback	Loss	True
102.081	3.122	Lose2	0.8	n/a	No	3.122	n/a	n/a	NoResponse	-1	0.0	n/a	1	9	ISIslide	Loss	True
105.223	0.25	Control	0.7273000000000001	0.001	No	3.277	0.023	n/a	NoResponse	0	n/a	n/a	1	10	Cue	Neutral	True
105.474	4.0	Control	0.7273000000000001	0.0	No	3.277	0.001	n/a	NoResponse	0	n/a	n/a	1	10	Fixation	Neutral	True
109.469	0.3	Control	0.7273000000000001	0.004	No	3.277	-0.004	4.0	NoResponse	0	0.315	108.784	1	10	Target	Neutral	True
109.77	0.4	Control	0.7273000000000001	n/a	No	3.277	n/a	n/a	NoResponse	0	n/a	n/a	1	10	Blank	Neutral	True
109.784	0.3	Control	0.7273000000000001	0.004	No	3.277	-0.004	4.0	NoResponse	0	0.315	n/a	1	10	ButtonPress	Neutral	True
110.172	1.45	Control	0.7273000000000001	n/a	No	3.277	n/a	5.0	NoResponse	0	0.0	109.172	1	10	Feedback	Neutral	True
111.626	3.277	Control	0.7273000000000001	n/a	No	3.277	n/a	n/a	NoResponse	0	0.0	n/a	1	10	ISIslide	Neutral	True
114.919	0.25	Lose2	0.6667000000000001	0.0	No	2.731	0.019	n/a	NoResponse	-1	n/a	n/a	0	11	Cue	Loss	True
115.17	4.05	Lose2	0.6667000000000001	0.0	No	2.731	0.001	n/a	NoResponse	-1	n/a	n/a	0	11	Fixation	Loss	True
119.215	0.29	Lose2	0.6667000000000001	0.004	No	2.731	-0.004	4.0	NoResponse	-1	0.31	118.525	0	11	Target	Loss	True
119.516	0.41	Lose2	0.6667000000000001	n/a	No	2.731	n/a	n/a	NoResponse	-1	n/a	n/a	0	11	Blank	Loss	True
119.525	0.3	Lose2	0.6667000000000001	0.004	No	2.731	-0.004	4.0	NoResponse	-1	0.31	n/a	0	11	ButtonPress	Loss	True
119.917	1.45	Lose2	0.6667000000000001	n/a	No	2.731	n/a	5.0	NoResponse	-1	0.011	118.928	0	11	Feedback	Loss	True
121.372	2.731	Lose2	0.6667000000000001	n/a	No	2.731	n/a	n/a	NoResponse	-1	0.0	n/a	0	11	ISIslide	Loss	True
124.13	0.25	Control	0.6154	0.0	No	2.97	0.03	n/a	NoResponse	0	n/a	n/a	0	12	Cue	Neutral	True
124.381	3.9	Control	0.6154	0.0	No	2.97	0.001	n/a	NoResponse	0	n/a	n/a	0	12	Fixation	Neutral	True
128.276	0.28	Control	0.6154	0.004	No	2.97	-0.004	4.0	NoResponse	0	0.363	127.639	0	12	Target	Neutral	True
128.56	0.42	Control	0.6154	n/a	No	2.97	n/a	n/a	NoResponse	0	n/a	n/a	0	12	Blank	Neutral	True
128.639	0.3	Control	0.6154	0.004	No	2.97	-0.004	4.0	NoResponse	0	0.363	n/a	0	12	ButtonPress	Neutral	True
128.978	1.45	Control	0.6154	n/a	No	2.97	n/a	5.0	NoResponse	0	0.023	128.001	0	12	Feedback	Neutral	True
130.432	2.97	Control	0.6154	n/a	No	2.97	n/a	n/a	NoResponse	0	0.0	n/a	0	12	ISIslide	Neutral	True
133.424	0.25	Control	0.5714	0.0	No	2.776	0.024	n/a	NoResponse	0	n/a	n/a	0	13	Cue	Neutral	True
133.675	4.0	Control	0.5714	0.0	No	2.776	0.001	n/a	NoResponse	0	n/a	n/a	0	13	Fixation	Neutral	True
137.67	0.29	Control	0.5714	0.004	No	2.776	-0.004	4.0	NoResponse	0	0.327	136.997	0	13	Target	Neutral	True
137.971	0.41	Control	0.5714	n/a	No	2.776	n/a	n/a	NoResponse	0	n/a	n/a	0	13	Blank	Neutral	True
137.997	0.3	Control	0.5714	0.004	No	2.776	-0.004	4.0	NoResponse	0	0.327	n/a	0	13	ButtonPress	Neutral	True
138.373	1.45	Control	0.5714	n/a	No	2.776	n/a	5.0	NoResponse	0	0.043	137.416	0	13	Feedback	Neutral	True
139.827	2.776	Control	0.5714	n/a	No	2.776	n/a	n/a	NoResponse	0	0.0	n/a	0	13	ISIslide	Neutral	True
142.619	0.25	Win2	0.6	0.0	Yes	2.681	0.019	n/a	GoodResponse	1	n/a	n/a	1	14	Cue	Win	True
142.869	4.1	Win2	0.6	0.0	Yes	2.681	0.0	n/a	GoodResponse	1	n/a	n/a	1	14	Fixation	Win	True
146.965	0.3	Win2	0.6	0.004	Yes	2.681	-0.004	4.0	GoodResponse	1	0.295	146.26	1	14	Target	Win	True
147.26	0.3	Win2	0.6	0.004	Yes	2.681	-0.004	4.0	GoodResponse	1	0.295	n/a	1	14	ButtonPress	Win	True
147.266	0.4	Win2	0.6	n/a	Yes	2.681	n/a	n/a	GoodResponse	1	n/a	n/a	1	14	Blank	Win	True
147.667	1.45	Win2	0.6	n/a	Yes	2.681	n/a	5.0	GoodResponse	1	0.016	146.683	1	14	Feedback	Win	True
149.121	2.681	Win2	0.6	n/a	Yes	2.681	n/a	n/a	GoodResponse	1	0.0	n/a	1	14	ISIslide	Win	True
151.829	0.25	Control	0.5625	0.0	No	2.971	0.029	n/a	LatePress	0	n/a	n/a	1	15	Cue	Neutral	True
152.08	4.0	Control	0.5625	0.0	No	2.971	0.001	n/a	LatePress	0	n/a	n/a	1	15	Fixation	Neutral	True
156.075	0.31	Control	0.5625	0.004	No	2.971	-0.004	4.0	LatePress	0	0.31	155.385	1	15	Target	Neutral	True
156.385	0.3	Control	0.5625	0.004	No	2.971	-0.004	4.0	LatePress	0	0.31	n/a	1	15	ButtonPress	Neutral	True
156.393	0.39	Control	0.5625	n/a	No	2.971	n/a	n/a	LatePress	0	n/a	n/a	1	15	Blank	Neutral	True
156.778	1.45	Control	0.5625	n/a	No	2.971	n/a	5.0	LatePress	0	0.027	155.805	1	15	Feedback	Neutral	True
158.232	2.971	Control	0.5625	n/a	No	2.971	n/a	n/a	LatePress	0	0.0	n/a	1	15	ISIslide	Neutral	True
161.224	0.25	Win2	0.5882000000000001	0.0	Yes	2.876	0.024	n/a	GoodResponse	1	n/a	n/a	2	16	Cue	Win	True
161.475	4.0	Win2	0.5882000000000001	0.0	Yes	2.876	0.001	n/a	GoodResponse	1	n/a	n/a	2	16	Fixation	Win	True
165.47	0.32	Win2	0.5882000000000001	0.004	Yes	2.876	-0.004	4.0	GoodResponse	1	0.281	164.751	2	16	Target	Win	True
165.751	0.3	Win2	0.5882000000000001	0.004	Yes	2.876	-0.004	4.0	GoodResponse	1	0.281	n/a	2	16	ButtonPress	Win	True
165.805	0.38	Win2	0.5882000000000001	n/a	Yes	2.876	n/a	n/a	GoodResponse	1	n/a	n/a	2	16	Blank	Win	True
166.172	1.45	Win2	0.5882000000000001	n/a	Yes	2.876	n/a	5.0	GoodResponse	1	0.048	165.22	2	16	Feedback	Win	True
167.627	2.876	Win2	0.5882000000000001	n/a	Yes	2.876	n/a	n/a	GoodResponse	1	0.0	n/a	2	16	ISIslide	Win	True
170.519	0.25	Lose2	0.6111	0.0	Yes	2.731	0.019	n/a	GoodResponse	0	n/a	n/a	2	17	Cue	AvoidedLoss	True
170.769	3.95	Lose2	0.6111	0.0	Yes	2.731	0.0	n/a	GoodResponse	0	n/a	n/a	2	17	Fixation	AvoidedLoss	True
174.715	0.33	Lose2	0.6111	0.004	Yes	2.731	-0.004	4.0	GoodResponse	0	0.265	173.98	2	17	Target	AvoidedLoss	True
174.98	0.3	Lose2	0.6111	0.004	Yes	2.731	-0.004	4.0	GoodResponse	0	0.265	n/a	2	17	ButtonPress	AvoidedLoss	True
175.049	0.37	Lose2	0.6111	n/a	Yes	2.731	n/a	n/a	GoodResponse	0	n/a	n/a	2	17	Blank	AvoidedLoss	True
175.417	1.45	Lose2	0.6111	n/a	Yes	2.731	n/a	5.0	GoodResponse	0	0.023	174.44	2	17	Feedback	AvoidedLoss	True
176.871	2.731	Lose2	0.6111	n/a	Yes	2.731	n/a	n/a	GoodResponse	0	0.0	n/a	2	17	ISIslide	AvoidedLoss	True
179.629	0.25	Lose2	0.5789	0.0	No	2.721	0.029	n/a	NoResponse	-1	n/a	n/a	1	18	Cue	Loss	True
179.88	4.05	Lose2	0.5789	0.0	No	2.721	0.001	n/a	NoResponse	-1	n/a	n/a	1	18	Fixation	Loss	True
183.925	0.34	Lose2	0.5789	0.004	No	2.721	-0.004	4.0	NoResponse	-1	0.376	183.301	1	18	Target	Loss	True
184.276	0.36	Lose2	0.5789	n/a	No	2.721	n/a	n/a	NoResponse	-1	n/a	n/a	1	18	Blank	Loss	True
184.301	0.3	Lose2	0.5789	0.004	No	2.721	-0.004	4.0	NoResponse	-1	0.376	n/a	1	18	ButtonPress	Loss	True
184.627	1.45	Lose2	0.5789	n/a	No	2.721	n/a	5.0	NoResponse	-1	0.031	183.658	1	18	Feedback	Loss	True
186.082	2.721	Lose2	0.5789	n/a	No	2.721	n/a	n/a	NoResponse	-1	0.0	n/a	1	18	ISIslide	Loss	True
188.823	0.25	Control	0.55	0.0	No	2.927	0.023	n/a	NoResponse	0	n/a	n/a	1	19	Cue	Neutral	True
189.074	3.95	Control	0.55	0.0	No	2.927	0.001	n/a	NoResponse	0	n/a	n/a	1	19	Fixation	Neutral	True
193.019	0.35	Control	0.55	0.004	No	2.927	-0.004	4.0	NoResponse	0	0.405	192.424	1	19	Target	Neutral	True
193.37	0.35	Control	0.55	n/a	No	2.927	n/a	n/a	NoResponse	0	n/a	n/a	1	19	Blank	Neutral	True
193.424	0.3	Control	0.55	0.004	No	2.927	-0.004	4.0	NoResponse	0	0.405	n/a	1	19	ButtonPress	Neutral	True
193.721	1.45	Control	0.55	n/a	No	2.927	n/a	5.0	NoResponse	0	0.011	192.732	1	19	Feedback	Neutral	True
195.176	2.927	Control	0.55	n/a	No	2.927	n/a	n/a	NoResponse	0	0.0	n/a	1	19	ISIslide	Neutral	True
198.118	0.25	Control	0.5714	0.0	Yes	2.632	0.018	n/a	GoodResponse	0	n/a	n/a	1	20	Cue	Neutral	True
198.369	4.05	Control	0.5714	0.0	Yes	2.632	0.001	n/a	GoodResponse	0	n/a	n/a	1	20	Fixation	Neutral	True
202.414	0.36	Control	0.5714	0.004	Yes	2.632	-0.004	4.0	GoodResponse	0	0.293	201.707	1	20	Target	Neutral	True
202.707	0.3	Control	0.5714	0.004	Yes	2.632	-0.004	4.0	GoodResponse	0	0.293	n/a	1	20	ButtonPress	Neutral	True
202.782	0.34	Control	0.5714	n/a	Yes	2.632	n/a	n/a	GoodResponse	0	n/a	n/a	1	20	Blank	Neutral	True
203.116	1.45	Control	0.5714	n/a	Yes	2.632	n/a	5.0	GoodResponse	0	0.031	202.147	1	20	Feedback	Neutral	True
204.57	2.632	Control	0.5714	n/a	Yes	2.632	n/a	n/a	GoodResponse	0	0.0	n/a	1	20	ISIslide	Neutral	True
207.228	0.25	Control	0.5909	0.0	Yes	2.772	0.028	n/a	GoodResponse	0	n/a	n/a	1	21	Cue	Neutral	True
207.479	4.1	Control	0.5909	0.0	Yes	2.772	0.001	n/a	GoodResponse	0	n/a	n/a	1	21	Fixation	Neutral	True
211.575	0.37	Control	0.5909	0.003	Yes	2.772	-0.003	4.0	GoodResponse	0	0.325	210.9	1	21	Target	Neutral	True
211.9	0.3	Control	0.5909	0.003	Yes	2.772	-0.003	4.0	GoodResponse	0	0.325	n/a	1	21	ButtonPress	Neutral	True
211.959	0.33	Control	0.5909	n/a	Yes	2.772	n/a	n/a	GoodResponse	0	n/a	n/a	1	21	Blank	Neutral	True
212.277	1.45	Control	0.5909	n/a	Yes	2.772	n/a	5.0	GoodResponse	0	0.04	211.317	1	21	Feedback	Neutral	True
213.731	2.772	Control	0.5909	n/a	Yes	2.772	n/a	n/a	GoodResponse	0	0.0	n/a	1	21	ISIslide	Neutral	True
216.523	0.25	Control	0.6087	0.0	Yes	2.777	0.023	n/a	GoodResponse	0	n/a	n/a	1	22	Cue	Neutral	True
216.774	4.0	Control	0.6087	0.0	Yes	2.777	0.001	n/a	GoodResponse	0	n/a	n/a	1	22	Fixation	Neutral	True
220.769	0.38	Control	0.6087	0.004	Yes	2.777	-0.004	4.0	GoodResponse	0	0.304	220.073	1	22	Target	Neutral	True
221.073	0.3	Control	0.6087	0.004	Yes	2.777	-0.004	4.0	GoodResponse	0	0.304	n/a	1	22	ButtonPress	Neutral	True
221.153	0.32	Control	0.6087	n/a	Yes	2.777	n/a	n/a	GoodResponse	0	n/a	n/a	1	22	Blank	Neutral	True
221.471	1.45	Control	0.6087	n/a	Yes	2.777	n/a	5.0	GoodResponse	0	0.017	220.488	1	22	Feedback	Neutral	True
222.925	2.777	Control	0.6087	n/a	Yes	2.777	n/a	n/a	GoodResponse	0	0.0	n/a	1	22	ISIslide	Neutral	True
225.717	0.25	Control	0.5832999999999999	0.0	No	2.783	0.017	n/a	NoResponse	0	n/a	n/a	1	23	Cue	Neutral	True
225.968	3.9	Control	0.5832999999999999	0.0	No	2.783	0.001	n/a	NoResponse	0	n/a	n/a	1	23	Fixation	Neutral	True
229.863	0.39	Control	0.5832999999999999	0.004	No	2.783	-0.004	4.0	NoResponse	0	0.462	229.325	1	23	Target	Neutral	True
230.264	0.31	Control	0.5832999999999999	n/a	No	2.783	n/a	n/a	NoResponse	0	n/a	n/a	1	23	Blank	Neutral	True
230.325	0.3	Control	0.5832999999999999	0.004	No	2.783	-0.004	4.0	NoResponse	0	0.462	n/a	1	23	ButtonPress	Neutral	True
230.565	1.45	Control	0.5832999999999999	n/a	No	2.783	n/a	5.0	NoResponse	0	0.044	229.609	1	23	Feedback	Neutral	True
232.019	2.783	Control	0.5832999999999999	n/a	No	2.783	n/a	n/a	NoResponse	0	0.0	n/a	1	23	ISIslide	Neutral	True
234.828	0.25	Win2	0.6	0.0	Yes	3.122	0.028	n/a	GoodResponse	1	n/a	n/a	2	24	Cue	Win	True
235.078	3.95	Win2	0.6	0.0	Yes	3.122	0.0	n/a	GoodResponse	1	n/a	n/a	2	24	Fixation	Win	True
239.04	0.4	Win2	0.6	0.0	Yes	3.122	0.012	4.0	GoodResponse	1	0.329	238.369	2	24	Target	Win	True
239.369	0.3	Win2	0.6	0.0	Yes	3.122	0.012	4.0	GoodResponse	1	0.329	n/a	2	24	ButtonPress	Win	True
239.425	0.3	Win2	0.6	n/a	Yes	3.122	n/a	n/a	GoodResponse	1	n/a	n/a	2	24	Blank	Win	True
239.726	1.45	Win2	0.6	n/a	Yes	3.122	n/a	5.0	GoodResponse	1	0.008	238.734	2	24	Feedback	Win	True
241.18	3.122	Win2	0.6	n/a	Yes	3.122	n/a	n/a	GoodResponse	1	0.0	n/a	2	24	ISIslide	Win	True
244.323	0.25	Win2	0.6154	0.0	Yes	3.077	0.023	n/a	GoodResponse	1	n/a	n/a	3	25	Cue	Win	True
244.573	4.0	Win2	0.6154	0.0	Yes	3.077	0.0	n/a	GoodResponse	1	n/a	n/a	3	25	Fixation	Win	True
248.569	0.41	Win2	0.6154	0.004	Yes	3.077	-0.004	4.0	GoodResponse	1	0.27	247.839	3	25	Target	Win	True
248.839	0.3	Win2	0.6154	0.004	Yes	3.077	-0.004	4.0	GoodResponse	1	0.27	n/a	3	25	ButtonPress	Win	True
248.987	0.29	Win2	0.6154	n/a	Yes	3.077	n/a	n/a	GoodResponse	1	n/a	n/a	3	25	Blank	Win	True
249.271	1.45	Win2	0.6154	n/a	Yes	3.077	n/a	5.0	GoodResponse	1	0.021	248.292	3	25	Feedback	Win	True
250.725	3.077	Win2	0.6154	n/a	Yes	3.077	n/a	n/a	GoodResponse	1	0.0	n/a	3	25	ISIslide	Win	True
253.818	0.25	Win2	0.6296	0.0	Yes	2.932	0.018	n/a	GoodResponse	1	n/a	n/a	4	26	Cue	Win	True
254.068	3.95	Win2	0.6296	0.001	Yes	2.932	0.0	n/a	GoodResponse	1	n/a	n/a	4	26	Fixation	Win	True
258.014	0.42	Win2	0.6296	0.004	Yes	2.932	-0.004	4.0	GoodResponse	1	0.263	257.277	4	26	Target	Win	True
258.277	0.3	Win2	0.6296	0.004	Yes	2.932	-0.004	4.0	GoodResponse	1	0.263	n/a	4	26	ButtonPress	Win	True
258.448	0.28	Win2	0.6296	n/a	Yes	2.932	n/a	n/a	GoodResponse	1	n/a	n/a	4	26	Blank	Win	True
258.716	1.45	Win2	0.6296	n/a	Yes	2.932	n/a	5.0	GoodResponse	1	0.04	257.756	4	26	Feedback	Win	True
260.17	2.932	Win2	0.6296	n/a	Yes	2.932	n/a	n/a	GoodResponse	1	0.0	n/a	4	26	ISIslide	Win	True
263.129	0.25	Lose2	0.6429	0.0	Yes	2.821	0.029	n/a	GoodResponse	0	n/a	n/a	4	27	Cue	AvoidedLoss	False
263.38	4.05	Lose2	0.6429	0.0	Yes	2.821	0.001	4.0	GoodResponse	0	0.222	262.602	4	27	Fixation	AvoidedLoss	False
263.602	0.3	Lose2	0.6429	0.0	Yes	2.821	0.001	4.0	GoodResponse	0	0.222	n/a	4	27	ButtonPress	AvoidedLoss	False
267.425	0.43	Lose2	0.6429	0.004	Yes	2.821	-0.004	4.0	GoodResponse	0	0.258	266.683	4	27	Target	AvoidedLoss	False
267.683	0.3	Lose2	0.6429	0.004	Yes	2.821	-0.004	4.0	GoodResponse	0	0.258	n/a	4	27	ButtonPress	AvoidedLoss	False
267.86	0.27	Lose2	0.6429	n/a	Yes	2.821	n/a	n/a	GoodResponse	0	n/a	n/a	4	27	Blank	AvoidedLoss	False
268.127	1.45	Lose2	0.6429	n/a	Yes	2.821	n/a	5.0	GoodResponse	0	0.043	267.17	4	27	Feedback	AvoidedLoss	False
269.581	2.821	Lose2	0.6429	n/a	Yes	2.821	n/a	n/a	GoodResponse	0	0.0	n/a	4	27	ISIslide	AvoidedLoss	False
272.423	0.25	Control	0.6552	0.0	Yes	2.827	0.023	n/a	GoodResponse	0	n/a	n/a	4	28	Cue	Neutral	True
272.674	4.05	Control	0.6552	0.0	Yes	2.827	0.001	n/a	GoodResponse	0	n/a	n/a	4	28	Fixation	Neutral	True
276.719	0.44	Control	0.6552	0.004	Yes	2.827	-0.004	4.0	GoodResponse	0	0.35	276.069	4	28	Target	Neutral	True
277.069	0.3	Control	0.6552	0.004	Yes	2.827	-0.004	4.0	GoodResponse	0	0.35	n/a	4	28	ButtonPress	Neutral	True
277.171	0.26	Control	0.6552	n/a	Yes	2.827	n/a	n/a	GoodResponse	0	n/a	n/a	4	28	Blank	Neutral	True
277.422	1.45	Control	0.6552	n/a	Yes	2.827	n/a	5.0	GoodResponse	0	0.016	276.438	4	28	Feedback	Neutral	True
278.876	2.827	Control	0.6552	n/a	Yes	2.827	n/a	n/a	GoodResponse	0	0.0	n/a	4	28	ISIslide	Neutral	True
281.718	0.25	Lose2	0.6667000000000001	0.0	Yes	2.832	0.018	n/a	GoodResponse	0	n/a	n/a	4	29	Cue	AvoidedLoss	True
281.969	3.95	Lose2	0.6667000000000001	0.0	Yes	2.832	0.001	n/a	GoodResponse	0	n/a	n/a	4	29	Fixation	AvoidedLoss	True
285.914	0.44	Lose2	0.6667000000000001	0.004	Yes	2.832	-0.004	4.0	GoodResponse	0	0.29	285.204	4	29	Target	AvoidedLoss	True
286.204	0.3	Lose2	0.6667000000000001	0.004	Yes	2.832	-0.004	4.0	GoodResponse	0	0.29	n/a	4	29	ButtonPress	AvoidedLoss	True
286.365	0.26	Lose2	0.6667000000000001	n/a	Yes	2.832	n/a	n/a	GoodResponse	0	n/a	n/a	4	29	Blank	AvoidedLoss	True
286.616	1.45	Lose2	0.6667000000000001	n/a	Yes	2.832	n/a	5.0	GoodResponse	0	0.042	285.658	4	29	Feedback	AvoidedLoss	True
288.07	2.832	Lose2	0.6667000000000001	n/a	Yes	2.832	n/a	n/a	GoodResponse	0	0.0	n/a	4	29	ISIslide	AvoidedLoss	True
290.929	0.25	Win2	0.6774	0.0	Yes	2.771	0.029	n/a	GoodResponse	1	n/a	n/a	5	30	Cue	Win	True
291.179	3.9	Win2	0.6774	0.0	Yes	2.771	0.0	n/a	GoodResponse	1	n/a	n/a	5	30	Fixation	Win	True
295.091	0.43	Win2	0.6774	0.0	Yes	2.771	0.012	4.0	GoodResponse	1	0.264	294.355	5	30	Target	Win	True
295.355	0.3	Win2	0.6774	0.0	Yes	2.771	0.012	4.0	GoodResponse	1	0.264	n/a	5	30	ButtonPress	Win	True
295.509	0.27	Win2	0.6774	n/a	Yes	2.771	n/a	n/a	GoodResponse	1	n/a	n/a	5	30	Blank	Win	True
295.776	1.45	Win2	0.6774	n/a	Yes	2.771	n/a	5.0	GoodResponse	1	0.008	294.784	5	30	Feedback	Win	True
297.231	2.771	Win2	0.6774	n/a	Yes	2.771	n/a	n/a	GoodResponse	1	0.0	n/a	5	30	ISIslide	Win	True
300.023	0.25	Lose2	0.6875	0.0	Yes	2.827	0.023	n/a	GoodResponse	0	n/a	n/a	5	31	Cue	AvoidedLoss	True
300.273	4.05	Lose2	0.6875	0.0	Yes	2.827	0.0	n/a	GoodResponse	0	n/a	n/a	5	31	Fixation	AvoidedLoss	True
304.319	0.42	Lose2	0.6875	0.004	Yes	2.827	-0.004	4.0	GoodResponse	0	0.265	303.584	5	31	Target	AvoidedLoss	True
304.584	0.3	Lose2	0.6875	0.004	Yes	2.827	-0.004	4.0	GoodResponse	0	0.265	n/a	5	31	ButtonPress	AvoidedLoss	True
304.753	0.28	Lose2	0.6875	n/a	Yes	2.827	n/a	n/a	GoodResponse	0	n/a	n/a	5	31	Blank	AvoidedLoss	True
305.021	1.45	Lose2	0.6875	n/a	Yes	2.827	n/a	5.0	GoodResponse	0	0.027	304.048	5	31	Feedback	AvoidedLoss	True
306.475	2.827	Lose2	0.6875	n/a	Yes	2.827	n/a	n/a	GoodResponse	0	0.0	n/a	5	31	ISIslide	AvoidedLoss	True
309.317	0.25	Lose2	0.6970000000000001	0.0	Yes	2.633	0.017	n/a	GoodResponse	0	n/a	n/a	5	32	Cue	AvoidedLoss	True
309.568	4.15	Lose2	0.6970000000000001	0.0	Yes	2.633	0.001	n/a	GoodResponse	0	n/a	n/a	5	32	Fixation	AvoidedLoss	True
313.713	0.41	Lose2	0.6970000000000001	0.004	Yes	2.633	-0.004	4.0	GoodResponse	0	0.312	313.025	5	32	Target	AvoidedLoss	True
314.025	0.3	Lose2	0.6970000000000001	0.004	Yes	2.633	-0.004	4.0	GoodResponse	0	0.312	n/a	5	32	ButtonPress	AvoidedLoss	True
314.131	0.29	Lose2	0.6970000000000001	n/a	Yes	2.633	n/a	n/a	GoodResponse	0	n/a	n/a	5	32	Blank	AvoidedLoss	True
314.416	1.45	Lose2	0.6970000000000001	n/a	Yes	2.633	n/a	5.0	GoodResponse	0	0.046	313.462	5	32	Feedback	AvoidedLoss	True
315.87	2.633	Lose2	0.6970000000000001	n/a	Yes	2.633	n/a	n/a	GoodResponse	0	0.0	n/a	5	32	ISIslide	AvoidedLoss	True
318.528	0.25	Win2	0.7059000000000001	0.0	Yes	2.672	0.028	n/a	GoodResponse	1	n/a	n/a	6	33	Cue	Win	True
318.779	4.0	Win2	0.7059000000000001	0.0	Yes	2.672	0.001	n/a	GoodResponse	1	n/a	n/a	6	33	Fixation	Win	True
322.774	0.4	Win2	0.7059000000000001	0.004	Yes	2.672	-0.004	4.0	GoodResponse	1	0.29	322.064	6	33	Target	Win	True
323.064	0.3	Win2	0.7059000000000001	0.004	Yes	2.672	-0.004	4.0	GoodResponse	1	0.29	n/a	6	33	ButtonPress	Win	True
323.175	0.3	Win2	0.7059000000000001	n/a	Yes	2.672	n/a	n/a	GoodResponse	1	n/a	n/a	6	33	Blank	Win	True
323.476	1.45	Win2	0.7059000000000001	n/a	Yes	2.672	n/a	5.0	GoodResponse	1	0.01	322.486	6	33	Feedback	Win	True
324.93	2.672	Win2	0.7059000000000001	n/a	Yes	2.672	n/a	n/a	GoodResponse	1	0.0	n/a	6	33	ISIslide	Win	True
327.622	0.25	Lose2	0.7143	0.0	Yes	2.628	0.022	n/a	GoodResponse	0	n/a	n/a	6	34	Cue	AvoidedLoss	True
327.872	4.05	Lose2	0.7143	0.001	Yes	2.628	0.0	n/a	GoodResponse	0	n/a	n/a	6	34	Fixation	AvoidedLoss	True
331.918	0.39	Lose2	0.7143	0.004	Yes	2.628	-0.004	4.0	GoodResponse	0	0.285	331.203	6	34	Target	AvoidedLoss	True
332.203	0.3	Lose2	0.7143	0.004	Yes	2.628	-0.004	4.0	GoodResponse	0	0.285	n/a	6	34	ButtonPress	AvoidedLoss	True
332.319	0.31	Lose2	0.7143	n/a	Yes	2.628	n/a	n/a	GoodResponse	0	n/a	n/a	6	34	Blank	AvoidedLoss	True
332.62	1.45	Lose2	0.7143	n/a	Yes	2.628	n/a	5.0	GoodResponse	0	0.037	331.657	6	34	Feedback	AvoidedLoss	True
334.074	2.628	Lose2	0.7143	n/a	Yes	2.628	n/a	n/a	GoodResponse	0	0.0	n/a	6	34	ISIslide	AvoidedLoss	True
336.716	0.25	Lose2	0.7222	0.0	Yes	2.684	0.016	n/a	GoodResponse	0	n/a	n/a	6	35	Cue	AvoidedLoss	True
336.966	4.0	Lose2	0.7222	0.0	Yes	2.684	0.0	n/a	GoodResponse	0	n/a	n/a	6	35	Fixation	AvoidedLoss	True
340.962	0.38	Lose2	0.7222	0.004	Yes	2.684	-0.004	4.0	GoodResponse	0	0.299	340.261	6	35	Target	AvoidedLoss	True
341.261	0.3	Lose2	0.7222	0.004	Yes	2.684	-0.004	4.0	GoodResponse	0	0.299	n/a	6	35	ButtonPress	AvoidedLoss	True
341.346	0.32	Lose2	0.7222	n/a	Yes	2.684	n/a	n/a	GoodResponse	0	n/a	n/a	6	35	Blank	AvoidedLoss	True
341.664	1.45	Lose2	0.7222	n/a	Yes	2.684	n/a	5.0	GoodResponse	0	0.018	340.682	6	35	Feedback	AvoidedLoss	True
343.118	2.684	Lose2	0.7222	n/a	Yes	2.684	n/a	n/a	GoodResponse	0	0.0	n/a	6	35	ISIslide	AvoidedLoss	True
345.826	0.25	Control	0.7297	0.0	Yes	2.674	0.026	n/a	GoodResponse	0	n/a	n/a	6	36	Cue	Neutral	True
346.077	4.0	Control	0.7297	0.0	Yes	2.674	0.001	n/a	GoodResponse	0	n/a	n/a	6	36	Fixation	Neutral	True
350.072	0.37	Control	0.7297	0.004	Yes	2.674	-0.004	4.0	GoodResponse	0	0.347	349.419	6	36	Target	Neutral	True
350.419	0.3	Control	0.7297	0.004	Yes	2.674	-0.004	4.0	GoodResponse	0	0.347	n/a	6	36	ButtonPress	Neutral	True
350.457	0.33	Control	0.7297	n/a	Yes	2.674	n/a	n/a	GoodResponse	0	n/a	n/a	6	36	Blank	Neutral	True
350.774	1.45	Control	0.7297	n/a	Yes	2.674	n/a	5.0	GoodResponse	0	0.03	349.804	6	36	Feedback	Neutral	True
352.229	2.674	Control	0.7297	n/a	Yes	2.674	n/a	n/a	GoodResponse	0	0.0	n/a	6	36	ISIslide	Neutral	True
354.92	0.25	Win2	0.7368000000000001	0.0	Yes	2.88	0.02	n/a	GoodResponse	1	n/a	n/a	7	37	Cue	Win	True
355.171	4.0	Win2	0.7368000000000001	0.0	Yes	2.88	0.001	n/a	GoodResponse	1	n/a	n/a	7	37	Fixation	Win	True
359.166	0.36	Win2	0.7368000000000001	0.004	Yes	2.88	-0.004	4.0	GoodResponse	1	0.296	358.462	7	37	Target	Win	True
359.462	0.3	Win2	0.7368000000000001	0.004	Yes	2.88	-0.004	4.0	GoodResponse	1	0.296	n/a	7	37	ButtonPress	Win	True
359.534	0.34	Win2	0.7368000000000001	n/a	Yes	2.88	n/a	n/a	GoodResponse	1	n/a	n/a	7	37	Blank	Win	True
359.868	1.45	Win2	0.7368000000000001	n/a	Yes	2.88	n/a	5.0	GoodResponse	1	0.008	358.876	7	37	Feedback	Win	True
361.322	2.88	Win2	0.7368000000000001	n/a	Yes	2.88	n/a	n/a	GoodResponse	1	0.0	n/a	7	37	ISIslide	Win	True
364.231	0.25	Lose2	0.7436	0.0	Yes	2.819	0.031	n/a	GoodResponse	0	n/a	n/a	7	38	Cue	AvoidedLoss	True
364.482	3.95	Lose2	0.7436	0.0	Yes	2.819	0.001	n/a	GoodResponse	0	n/a	n/a	7	38	Fixation	AvoidedLoss	True
368.427	0.35	Lose2	0.7436	0.004	Yes	2.819	-0.004	4.0	GoodResponse	0	0.245	367.672	7	38	Target	AvoidedLoss	True
368.672	0.3	Lose2	0.7436	0.004	Yes	2.819	-0.004	4.0	GoodResponse	0	0.245	n/a	7	38	ButtonPress	AvoidedLoss	True
368.778	0.35	Lose2	0.7436	n/a	Yes	2.819	n/a	n/a	GoodResponse	0	n/a	n/a	7	38	Blank	AvoidedLoss	True
369.129	1.45	Lose2	0.7436	n/a	Yes	2.819	n/a	5.0	GoodResponse	0	0.016	368.145	7	38	Feedback	AvoidedLoss	True
370.583	2.819	Lose2	0.7436	n/a	Yes	2.819	n/a	n/a	GoodResponse	0	0.0	n/a	7	38	ISIslide	AvoidedLoss	True
373.425	0.25	Win2	0.75	0.0	Yes	2.975	0.025	n/a	GoodResponse	1	n/a	n/a	8	39	Cue	Win	True
373.676	4.1	Win2	0.75	0.0	Yes	2.975	0.001	n/a	GoodResponse	1	n/a	n/a	8	39	Fixation	Win	True
377.772	0.34	Win2	0.75	0.003	Yes	2.975	-0.003	4.0	GoodResponse	1	0.27	377.042	8	39	Target	Win	True
378.042	0.3	Win2	0.75	0.003	Yes	2.975	-0.003	4.0	GoodResponse	1	0.27	n/a	8	39	ButtonPress	Win	True
378.123	0.36	Win2	0.75	n/a	Yes	2.975	n/a	n/a	GoodResponse	1	n/a	n/a	8	39	Blank	Win	True
378.474	1.45	Win2	0.75	n/a	Yes	2.975	n/a	5.0	GoodResponse	1	0.037	377.511	8	39	Feedback	Win	True
379.928	2.975	Win2	0.75	n/a	Yes	2.975	n/a	n/a	GoodResponse	1	0.0	n/a	8	39	ISIslide	Win	True
382.92	0.25	Win2	0.7561	0.0	Yes	2.73	0.02	n/a	GoodResponse	1	n/a	n/a	9	40	Cue	Win	True
383.171	3.95	Win2	0.7561	0.0	Yes	2.73	0.001	n/a	GoodResponse	1	n/a	n/a	9	40	Fixation	Win	True
387.116	0.33	Win2	0.7561	0.004	Yes	2.73	-0.004	4.0	GoodResponse	1	0.274	386.39	9	40	Target	Win	True
387.39	0.3	Win2	0.7561	0.004	Yes	2.73	-0.004	4.0	GoodResponse	1	0.274	n/a	9	40	ButtonPress	Win	True
387.451	0.37	Win2	0.7561	n/a	Yes	2.73	n/a	n/a	GoodResponse	1	n/a	n/a	9	40	Blank	Win	True
387.818	1.45	Win2	0.7561	n/a	Yes	2.73	n/a	5.0	GoodResponse	1	0.01	386.828	9	40	Feedback	Win	True
389.273	2.73	Win2	0.7561	n/a	Yes	2.73	n/a	n/a	GoodResponse	1	0.0	n/a	9	40	ISIslide	Win	True
392.031	0.25	Win2	0.7381	0.0	No	2.769	0.031	n/a	NoResponse	0	n/a	n/a	9	41	Cue	MissedWin	True
392.282	3.9	Win2	0.7381	0.0	No	2.769	0.001	n/a	NoResponse	0	n/a	n/a	9	41	Fixation	MissedWin	True
396.177	0.32	Win2	0.7381	0.004	No	2.769	-0.004	4.0	NoResponse	0	0.396	395.573	9	41	Target	MissedWin	True
396.511	0.38	Win2	0.7381	n/a	No	2.769	n/a	n/a	NoResponse	0	n/a	n/a	9	41	Blank	MissedWin	True
396.573	0.3	Win2	0.7381	0.004	No	2.769	-0.004	4.0	NoResponse	0	0.396	n/a	9	41	ButtonPress	MissedWin	True
396.879	1.45	Win2	0.7381	n/a	No	2.769	n/a	5.0	NoResponse	0	0.022	395.901	9	41	Feedback	MissedWin	True
398.333	2.769	Win2	0.7381	n/a	No	2.769	n/a	n/a	NoResponse	0	0.0	n/a	9	41	ISIslide	MissedWin	True
401.125	0.25	Control	0.7209	0.0	No	2.925	0.025	n/a	NoResponse	0	n/a	n/a	9	42	Cue	Neutral	True
401.376	3.85	Control	0.7209	0.0	No	2.925	0.001	n/a	NoResponse	0	n/a	n/a	9	42	Fixation	Neutral	True
405.237	0.31	Control	0.7209	0.0	No	2.925	0.012	4.0	NoResponse	0	0.369	404.606	9	42	Target	Neutral	True
405.538	0.39	Control	0.7209	n/a	No	2.925	n/a	n/a	NoResponse	0	n/a	n/a	9	42	Blank	Neutral	True
405.606	0.3	Control	0.7209	0.0	No	2.925	0.012	4.0	NoResponse	0	0.369	n/a	9	42	ButtonPress	Neutral	True
405.922	1.45	Control	0.7209	n/a	No	2.925	n/a	5.0	NoResponse	0	0.01	404.932	9	42	Feedback	Neutral	True
407.377	2.925	Control	0.7209	n/a	No	2.925	n/a	n/a	NoResponse	0	0.0	n/a	9	42	ISIslide	Neutral	True
410.319	0.25	Win2	0.7045	0.0	No	3.181	0.019	n/a	NoResponse	0	n/a	n/a	9	43	Cue	MissedWin	True
410.57	4.0	Win2	0.7045	0.0	No	3.181	0.001	n/a	NoResponse	0	n/a	n/a	9	43	Fixation	MissedWin	True
414.565	0.3	Win2	0.7045	0.004	No	3.181	-0.004	4.0	NoResponse	0	0.327	413.892	9	43	Target	MissedWin	True
414.866	0.4	Win2	0.7045	n/a	No	3.181	n/a	n/a	NoResponse	0	n/a	n/a	9	43	Blank	MissedWin	True
414.892	0.3	Win2	0.7045	0.004	No	3.181	-0.004	4.0	NoResponse	0	0.327	n/a	9	43	ButtonPress	MissedWin	True
415.267	1.45	Win2	0.7045	n/a	No	3.181	n/a	5.0	NoResponse	0	0.024	414.291	9	43	Feedback	MissedWin	True
416.721	3.181	Win2	0.7045	n/a	No	3.181	n/a	n/a	NoResponse	0	0.0	n/a	9	43	ISIslide	MissedWin	True
419.931	0.25	Win2	0.7111	0.0	Yes	2.969	0.031	n/a	GoodResponse	1	n/a	n/a	10	44	Cue	Win	True
420.182	4.0	Win2	0.7111	0.0	Yes	2.969	0.001	n/a	GoodResponse	1	n/a	n/a	10	44	Fixation	Win	True
424.177	0.29	Win2	0.7111	0.004	Yes	2.969	-0.004	4.0	GoodResponse	1	0.26	423.437	10	44	Target	Win	True
424.437	0.3	Win2	0.7111	0.004	Yes	2.969	-0.004	4.0	GoodResponse	1	0.26	n/a	10	44	ButtonPress	Win	True
424.478	0.41	Win2	0.7111	n/a	Yes	2.969	n/a	n/a	GoodResponse	1	n/a	n/a	10	44	Blank	Win	True
424.879	1.45	Win2	0.7111	n/a	Yes	2.969	n/a	5.0	GoodResponse	1	0.021	423.9	10	44	Feedback	Win	True
426.333	2.969	Win2	0.7111	n/a	Yes	2.969	n/a	n/a	GoodResponse	1	0.0	n/a	10	44	ISIslide	Win	True
429.326	0.25	Control	0.6957	0.0	No	2.874	0.026	n/a	NoResponse	0	n/a	n/a	10	45	Cue	Neutral	True
429.577	4.1	Control	0.6957	0.0	No	2.874	0.001	n/a	NoResponse	0	n/a	n/a	10	45	Fixation	Neutral	True
433.672	0.28	Control	0.6957	0.004	No	2.874	-0.004	4.0	NoResponse	0	0.529	433.201	10	45	Target	Neutral	True
433.956	0.42	Control	0.6957	n/a	No	2.874	n/a	n/a	NoResponse	0	n/a	n/a	10	45	Blank	Neutral	True
434.201	0.3	Control	0.6957	0.004	No	2.874	-0.004	4.0	NoResponse	0	0.529	n/a	10	45	ButtonPress	Neutral	True
434.374	1.45	Control	0.6957	n/a	No	2.874	n/a	5.0	NoResponse	0	0.039	433.413	10	45	Feedback	Neutral	True
435.829	2.874	Control	0.6957	n/a	No	2.874	n/a	n/a	NoResponse	0	0.0	n/a	10	45	ISIslide	Neutral	True
438.721	0.25	Lose2	0.7021	0.0	Yes	3.379	0.021	n/a	GoodResponse	0	n/a	n/a	10	46	Cue	AvoidedLoss	False
438.971	4.0	Lose2	0.7021	0.0	Yes	3.379	0.0	4.0	GoodResponse	0	0.094	438.065	10	46	Fixation	AvoidedLoss	False
439.065	0.3	Lose2	0.7021	0.0	Yes	3.379	0.0	4.0	GoodResponse	0	0.094	n/a	10	46	ButtonPress	AvoidedLoss	False
442.967	0.27	Lose2	0.7021	0.004	Yes	3.379	-0.004	4.0	GoodResponse	0	0.263	442.23	10	46	Target	AvoidedLoss	False
443.23	0.3	Lose2	0.7021	0.004	Yes	3.379	-0.004	4.0	GoodResponse	0	0.263	n/a	10	46	ButtonPress	AvoidedLoss	False
443.251	0.43	Lose2	0.7021	n/a	Yes	3.379	n/a	n/a	GoodResponse	0	n/a	n/a	10	46	Blank	AvoidedLoss	False
443.669	1.45	Lose2	0.7021	n/a	Yes	3.379	n/a	5.0	GoodResponse	0	0.011	442.68	10	46	Feedback	AvoidedLoss	False
445.123	3.379	Lose2	0.7021	n/a	Yes	3.379	n/a	n/a	GoodResponse	0	0.0	n/a	10	46	ISIslide	AvoidedLoss	False
448.516	0.25	Lose2	0.6875	0.001	No	2.684	0.016	n/a	NoResponse	-1	n/a	n/a	9	47	Cue	Loss	True
448.767	4.0	Lose2	0.6875	0.0	No	2.684	0.001	n/a	NoResponse	-1	n/a	n/a	9	47	Fixation	Loss	True
452.763	0.26	Lose2	0.6875	0.003	No	2.684	-0.003	4.0	NoResponse	-1	0.28	452.043	9	47	Target	Loss	True
453.03	0.44	Lose2	0.6875	n/a	No	2.684	n/a	n/a	NoResponse	-1	n/a	n/a	9	47	Blank	Loss	True
453.043	0.3	Lose2	0.6875	0.003	No	2.684	-0.003	4.0	NoResponse	-1	0.28	n/a	9	47	ButtonPress	Loss	True
453.465	1.45	Lose2	0.6875	n/a	No	2.684	n/a	5.0	NoResponse	-1	0.02	452.485	9	47	Feedback	Loss	True
454.919	2.684	Lose2	0.6875	n/a	No	2.684	n/a	n/a	NoResponse	-1	0.0	n/a	9	47	ISIslide	Loss	True
457.627	0.25	Lose2	0.6735	0.0	No	3.023	0.027	n/a	NoResponse	-1	n/a	n/a	8	48	Cue	Loss	True
457.878	3.95	Lose2	0.6735	0.0	No	3.023	0.001	n/a	NoResponse	-1	n/a	n/a	8	48	Fixation	Loss	True
461.823	0.25	Lose2	0.6735	0.004	No	3.023	-0.004	4.0	NoResponse	-1	0.269	461.092	8	48	Target	Loss	True
462.074	0.45	Lose2	0.6735	n/a	No	3.023	n/a	n/a	NoResponse	-1	n/a	n/a	8	48	Blank	Loss	True
462.092	0.3	Lose2	0.6735	0.004	No	3.023	-0.004	4.0	NoResponse	-1	0.269	n/a	8	48	ButtonPress	Loss	True
462.525	1.45	Lose2	0.6735	n/a	No	3.023	n/a	5.0	NoResponse	-1	0.033	461.558	8	48	Feedback	Loss	True
463.979	3.023	Lose2	0.6735	n/a	No	3.023	n/a	n/a	NoResponse	-1	0.0	n/a	8	48	ISIslide	Loss	True
467.022	0.25	Control	0.66	0.0	No	2.878	0.022	n/a	NoResponse	0	n/a	n/a	8	49	Cue	Neutral	True
467.273	4.0	Control	0.66	0.0	No	2.878	0.001	n/a	NoResponse	0	n/a	n/a	8	49	Fixation	Neutral	True
471.268	0.24	Control	0.66	0.004	No	2.878	-0.004	4.0	NoResponse	0	0.26	470.528	8	49	Target	Neutral	True
471.519	0.46	Control	0.66	n/a	No	2.878	n/a	n/a	NoResponse	0	n/a	n/a	8	49	Blank	Neutral	True
471.528	0.3	Control	0.66	0.004	No	2.878	-0.004	4.0	NoResponse	0	0.26	n/a	8	49	ButtonPress	Neutral	True
471.97	1.45	Control	0.66	n/a	No	2.878	n/a	5.0	NoResponse	0	0.006	470.976	8	49	Feedback	Neutral	True
473.424	2.878	Control	0.66	n/a	No	2.878	n/a	n/a	NoResponse	0	0.0	n/a	8	49	ISIslide	Neutral	True
476.316	0.25	Control	0.6470999999999999	0.0	No	2.784	0.016	n/a	NoResponse	0	n/a	n/a	8	50	Cue	Neutral	True
476.567	4.0	Control	0.6470999999999999	0.0	No	2.784	0.001	n/a	NoResponse	0	n/a	n/a	8	50	Fixation	Neutral	True
480.562	0.24	Control	0.6470999999999999	0.004	No	2.784	-0.004	4.0	NoResponse	0	0.298	479.86	8	50	Target	Neutral	True
480.813	0.46	Control	0.6470999999999999	n/a	No	2.784	n/a	n/a	NoResponse	0	n/a	n/a	8	50	Blank	Neutral	True
480.86	0.3	Control	0.6470999999999999	0.004	No	2.784	-0.004	4.0	NoResponse	0	0.298	n/a	8	50	ButtonPress	Neutral	True
481.264	1.45	Control	0.6470999999999999	n/a	No	2.784	n/a	5.0	NoResponse	0	0.026	480.29	8	50	Feedback	Neutral	True
482.719	2.784	Control	0.6470999999999999	n/a	No	2.784	n/a	n/a	NoResponse	0	0.0	n/a	8	50	ISIslide	Neutral	True
485.527	0.25	Control	0.6346	0.0	No	2.723	0.027	n/a	NoResponse	0	n/a	n/a	8	51	Cue	Neutral	False
485.778	3.95	Control	0.6346	0.0	No	2.723	0.001	4.0	NoResponse	0	0.109	484.887	8	51	Fixation	Neutral	False
485.887	0.3	Control	0.6346	0.0	No	2.723	0.001	4.0	NoResponse	0	0.109	n/a	8	51	ButtonPress	Neutral	False
489.723	0.25	Control	0.6346	0.004	No	2.723	-0.004	4.0	NoResponse	0	0.333	489.056	8	51	Target	Neutral	False
489.974	0.45	Control	0.6346	n/a	No	2.723	n/a	n/a	NoResponse	0	n/a	n/a	8	51	Blank	Neutral	False
490.056	0.3	Control	0.6346	0.004	No	2.723	-0.004	4.0	NoResponse	0	0.333	n/a	8	51	ButtonPress	Neutral	False
490.425	1.45	Control	0.6346	n/a	No	2.723	n/a	5.0	NoResponse	0	0.035	489.46	8	51	Feedback	Neutral	False
491.879	2.723	Control	0.6346	n/a	No	2.723	n/a	n/a	NoResponse	0	0.0	n/a	8	51	ISIslide	Neutral	False
494.621	0.25	Control	0.6415000000000001	0.0	Yes	2.629	0.021	n/a	GoodResponse	0	n/a	n/a	8	52	Cue	Neutral	True
494.872	4.05	Control	0.6415000000000001	0.0	Yes	2.629	0.001	n/a	GoodResponse	0	n/a	n/a	8	52	Fixation	Neutral	True
498.917	0.26	Control	0.6415000000000001	0.004	Yes	2.629	-0.004	4.0	GoodResponse	0	0.258	498.175	8	52	Target	Neutral	True
499.175	0.3	Control	0.6415000000000001	0.004	Yes	2.629	-0.004	4.0	GoodResponse	0	0.258	n/a	8	52	ButtonPress	Neutral	True
499.185	0.44	Control	0.6415000000000001	n/a	Yes	2.629	n/a	n/a	GoodResponse	0	n/a	n/a	8	52	Blank	Neutral	True
499.619	1.45	Control	0.6415000000000001	n/a	Yes	2.629	n/a	5.0	GoodResponse	0	0.012	498.631	8	52	Feedback	Neutral	True
501.074	2.629	Control	0.6415000000000001	n/a	Yes	2.629	n/a	n/a	GoodResponse	0	0.0	n/a	8	52	ISIslide	Neutral	True
503.715	0.25	Win2	0.6296	0.0	No	2.935	0.015	n/a	NoResponse	0	n/a	n/a	8	53	Cue	MissedWin	True
503.966	4.05	Win2	0.6296	0.0	No	2.935	0.001	n/a	NoResponse	0	n/a	n/a	8	53	Fixation	MissedWin	True
508.011	0.27	Win2	0.6296	0.004	No	2.935	-0.004	4.0	NoResponse	0	0.454	507.465	8	53	Target	MissedWin	True
508.295	0.43	Win2	0.6296	n/a	No	2.935	n/a	n/a	NoResponse	0	n/a	n/a	8	53	Blank	MissedWin	True
508.465	0.3	Win2	0.6296	0.004	No	2.935	-0.004	4.0	NoResponse	0	0.454	n/a	8	53	ButtonPress	MissedWin	True
508.713	1.45	Win2	0.6296	n/a	No	2.935	n/a	5.0	NoResponse	0	0.04	507.753	8	53	Feedback	MissedWin	True
510.167	2.935	Win2	0.6296	n/a	No	2.935	n/a	n/a	NoResponse	0	0.0	n/a	8	53	ISIslide	MissedWin	True
513.126	0.25	Win2	0.6364	0.0	Yes	2.724	0.026	n/a	GoodResponse	1	n/a	n/a	9	54	Cue	Win	True
513.377	3.95	Win2	0.6364	0.0	Yes	2.724	0.001	n/a	GoodResponse	1	n/a	n/a	9	54	Fixation	Win	True
517.322	0.28	Win2	0.6364	0.004	Yes	2.724	-0.004	4.0	GoodResponse	1	0.277	516.599	9	54	Target	Win	True
517.599	0.3	Win2	0.6364	0.004	Yes	2.724	-0.004	4.0	GoodResponse	1	0.277	n/a	9	54	ButtonPress	Win	True
517.606	0.42	Win2	0.6364	n/a	Yes	2.724	n/a	n/a	GoodResponse	1	n/a	n/a	9	54	Blank	Win	True
518.024	1.45	Win2	0.6364	n/a	Yes	2.724	n/a	5.0	GoodResponse	1	0.046	517.07	9	54	Feedback	Win	True
519.479	2.724	Win2	0.6364	n/a	Yes	2.724	n/a	n/a	GoodResponse	1	0.0	n/a	9	54	ISIslide	Win	True
522.22	0.25	Control	0.625	0.0	No	3.03	0.02	n/a	NoResponse	0	n/a	n/a	9	55	Cue	Neutral	True
522.471	3.95	Control	0.625	0.0	No	3.03	0.001	n/a	NoResponse	0	n/a	n/a	9	55	Fixation	Neutral	True
526.416	0.29	Control	0.625	0.004	No	3.03	-0.004	4.0	NoResponse	0	0.392	525.808	9	55	Target	Neutral	True
526.717	0.41	Control	0.625	n/a	No	3.03	n/a	n/a	NoResponse	0	n/a	n/a	9	55	Blank	Neutral	True
526.808	0.3	Control	0.625	0.004	No	3.03	-0.004	4.0	NoResponse	0	0.392	n/a	9	55	ButtonPress	Neutral	True
527.118	1.45	Control	0.625	n/a	No	3.03	n/a	5.0	NoResponse	0	0.025	526.143	9	55	Feedback	Neutral	True
528.573	3.03	Control	0.625	n/a	No	3.03	n/a	n/a	NoResponse	0	0.0	n/a	9	55	ISIslide	Neutral	True
531.615	0.25	Control	0.614	0.0	No	2.835	0.015	n/a	NoResponse	0	n/a	n/a	9	56	Cue	Neutral	True
531.866	3.95	Control	0.614	0.0	No	2.835	0.001	n/a	NoResponse	0	n/a	n/a	9	56	Fixation	Neutral	True
535.811	0.3	Control	0.614	0.004	No	2.835	-0.004	4.0	NoResponse	0	0.339	535.15	9	56	Target	Neutral	True
536.112	0.4	Control	0.614	n/a	No	2.835	n/a	n/a	NoResponse	0	n/a	n/a	9	56	Blank	Neutral	True
536.15	0.3	Control	0.614	0.004	No	2.835	-0.004	4.0	NoResponse	0	0.339	n/a	9	56	ButtonPress	Neutral	True
536.513	1.45	Control	0.614	n/a	No	2.835	n/a	5.0	NoResponse	0	0.044	535.557	9	56	Feedback	Neutral	True
537.967	2.835	Control	0.614	n/a	No	2.835	n/a	n/a	NoResponse	0	0.0	n/a	9	56	ISIslide	Neutral	True
540.826	0.25	Control	0.6034	0.0	No	3.474	0.026	n/a	NoResponse	0	n/a	n/a	9	57	Cue	Neutral	True
541.077	4.0	Control	0.6034	0.0	No	3.474	0.001	n/a	NoResponse	0	n/a	n/a	9	57	Fixation	Neutral	True
545.072	0.31	Control	0.6034	0.004	No	3.474	-0.004	4.0	NoResponse	0	0.41	544.482	9	57	Target	Neutral	True
545.389	0.39	Control	0.6034	n/a	No	3.474	n/a	n/a	NoResponse	0	n/a	n/a	9	57	Blank	Neutral	True
545.482	0.3	Control	0.6034	0.004	No	3.474	-0.004	4.0	NoResponse	0	0.41	n/a	9	57	ButtonPress	Neutral	True
545.774	1.45	Control	0.6034	n/a	No	3.474	n/a	5.0	NoResponse	0	0.005	544.779	9	57	Feedback	Neutral	True
547.228	3.474	Control	0.6034	n/a	No	3.474	n/a	n/a	NoResponse	0	0.0	n/a	9	57	ISIslide	Neutral	True
550.722	0.25	Win2	0.5932	0.0	No	2.728	0.022	n/a	LatePress	0	n/a	n/a	9	58	Cue	MissedWin	False
550.973	4.05	Win2	0.5932	0.0	No	2.728	0.001	4.0	LatePress	0	0.151	550.124	9	58	Fixation	MissedWin	False
551.124	0.3	Win2	0.5932	0.0	No	2.728	0.001	4.0	LatePress	0	0.151	n/a	9	58	ButtonPress	MissedWin	False
555.018	0.32	Win2	0.5932	0.004	No	2.728	-0.004	4.0	LatePress	0	0.323	554.341	9	58	Target	MissedWin	False
555.341	0.3	Win2	0.5932	0.004	No	2.728	-0.004	4.0	LatePress	0	0.323	n/a	9	58	ButtonPress	MissedWin	False
555.353	0.38	Win2	0.5932	n/a	No	2.728	n/a	n/a	LatePress	0	n/a	n/a	9	58	Blank	MissedWin	False
555.72	1.45	Win2	0.5932	n/a	No	2.728	n/a	5.0	LatePress	0	0.008	554.728	9	58	Feedback	MissedWin	False
557.175	2.728	Win2	0.5932	n/a	No	2.728	n/a	n/a	LatePress	0	0.0	n/a	9	58	ISIslide	MissedWin	False
559.916	0.25	Lose2	0.5832999999999999	0.0	No	2.684	0.016	n/a	NoResponse	-1	n/a	n/a	8	59	Cue	Loss	True
560.167	4.0	Lose2	0.5832999999999999	0.0	No	2.684	0.001	n/a	NoResponse	-1	n/a	n/a	8	59	Fixation	Loss	True
564.162	0.33	Lose2	0.5832999999999999	0.004	No	2.684	-0.004	4.0	NoResponse	-1	0.602	563.764	8	59	Target	Loss	True
564.497	0.37	Lose2	0.5832999999999999	n/a	No	2.684	n/a	n/a	NoResponse	-1	n/a	n/a	8	59	Blank	Loss	True
564.764	0.3	Lose2	0.5832999999999999	0.004	No	2.684	-0.004	4.0	NoResponse	-1	0.602	n/a	8	59	ButtonPress	Loss	True
564.864	1.45	Lose2	0.5832999999999999	n/a	No	2.684	n/a	5.0	NoResponse	-1	0.035	563.899	8	59	Feedback	Loss	True
566.319	2.684	Lose2	0.5832999999999999	n/a	No	2.684	n/a	n/a	NoResponse	-1	0.0	n/a	8	59	ISIslide	Loss	True
569.027	0.25	Control	0.5738	0.0	No	2.673	0.027	n/a	NoResponse	0	n/a	n/a	8	60	Cue	Neutral	True
569.278	4.0	Control	0.5738	0.0	No	2.673	0.001	n/a	NoResponse	0	n/a	n/a	8	60	Fixation	Neutral	True
573.273	0.34	Control	0.5738	0.004	No	2.673	-0.004	4.0	NoResponse	0	0.384	572.657	8	60	Target	Neutral	True
573.624	0.36	Control	0.5738	n/a	No	2.673	n/a	n/a	NoResponse	0	n/a	n/a	8	60	Blank	Neutral	True
573.657	0.3	Control	0.5738	0.004	No	2.673	-0.004	4.0	NoResponse	0	0.384	n/a	8	60	ButtonPress	Neutral	True
573.975	1.45	Control	0.5738	n/a	No	2.673	n/a	5.0	NoResponse	0	0.045	573.02	8	60	Feedback	Neutral	True
575.429	2.673	Control	0.5738	n/a	No	2.673	n/a	n/a	NoResponse	0	0.0	n/a	8	60	ISIslide	Neutral	True
578.121	0.25	Lose2	0.5806	0.0	Yes	2.979	0.021	n/a	GoodResponse	0	n/a	n/a	8	61	Cue	AvoidedLoss	True
578.371	4.0	Lose2	0.5806	0.0	Yes	2.979	0.0	n/a	GoodResponse	0	n/a	n/a	8	61	Fixation	AvoidedLoss	True
582.367	0.35	Lose2	0.5806	0.004	Yes	2.979	-0.004	4.0	GoodResponse	0	0.287	581.654	8	61	Target	AvoidedLoss	True
582.654	0.3	Lose2	0.5806	0.004	Yes	2.979	-0.004	4.0	GoodResponse	0	0.287	n/a	8	61	ButtonPress	AvoidedLoss	True
582.718	0.35	Lose2	0.5806	n/a	Yes	2.979	n/a	n/a	GoodResponse	0	n/a	n/a	8	61	Blank	AvoidedLoss	True
583.069	1.45	Lose2	0.5806	n/a	Yes	2.979	n/a	5.0	GoodResponse	0	0.024	582.093	8	61	Feedback	AvoidedLoss	True
584.523	2.979	Lose2	0.5806	n/a	Yes	2.979	n/a	n/a	GoodResponse	0	0.0	n/a	8	61	ISIslide	AvoidedLoss	True
587.515	0.25	Lose2	0.5872999999999999	0.0	Yes	2.885	0.015	n/a	GoodResponse	0	n/a	n/a	8	62	Cue	AvoidedLoss	True
587.766	3.9	Lose2	0.5872999999999999	0.0	Yes	2.885	0.001	n/a	GoodResponse	0	n/a	n/a	8	62	Fixation	AvoidedLoss	True
591.661	0.36	Lose2	0.5872999999999999	0.004	Yes	2.885	-0.004	4.0	GoodResponse	0	0.301	590.962	8	62	Target	AvoidedLoss	True
591.962	0.3	Lose2	0.5872999999999999	0.004	Yes	2.885	-0.004	4.0	GoodResponse	0	0.301	n/a	8	62	ButtonPress	AvoidedLoss	True
592.029	0.34	Lose2	0.5872999999999999	n/a	Yes	2.885	n/a	n/a	GoodResponse	0	n/a	n/a	8	62	Blank	AvoidedLoss	True
592.363	1.45	Lose2	0.5872999999999999	n/a	Yes	2.885	n/a	5.0	GoodResponse	0	0.048	591.411	8	62	Feedback	AvoidedLoss	True
593.818	2.885	Lose2	0.5872999999999999	n/a	Yes	2.885	n/a	n/a	GoodResponse	0	0.0	n/a	8	62	ISIslide	AvoidedLoss	True
596.726	0.25	Lose2	0.5938	0.0	Yes	2.624	0.026	n/a	GoodResponse	0	n/a	n/a	8	63	Cue	AvoidedLoss	True
596.977	4.05	Lose2	0.5938	0.0	Yes	2.624	0.001	n/a	GoodResponse	0	n/a	n/a	8	63	Fixation	AvoidedLoss	True
601.022	0.37	Lose2	0.5938	0.004	Yes	2.624	-0.004	4.0	GoodResponse	0	0.309	600.331	8	63	Target	AvoidedLoss	True
601.331	0.3	Lose2	0.5938	0.004	Yes	2.624	-0.004	4.0	GoodResponse	0	0.309	n/a	8	63	ButtonPress	AvoidedLoss	True
601.407	0.33	Lose2	0.5938	n/a	Yes	2.624	n/a	n/a	GoodResponse	0	n/a	n/a	8	63	Blank	AvoidedLoss	True
601.725	1.45	Lose2	0.5938	n/a	Yes	2.624	n/a	5.0	GoodResponse	0	0.004	600.729	8	63	Feedback	AvoidedLoss	True
603.179	2.624	Lose2	0.5938	n/a	Yes	2.624	n/a	n/a	GoodResponse	0	0.0	n/a	8	63	ISIslide	AvoidedLoss	True
605.82	0.25	Win2	0.6	0.0	Yes	3.13	0.02	n/a	GoodResponse	1	n/a	n/a	9	64	Cue	Win	True
606.071	4.15	Win2	0.6	0.0	Yes	3.13	0.001	n/a	GoodResponse	1	n/a	n/a	9	64	Fixation	Win	True
610.217	0.38	Win2	0.6	0.003	Yes	3.13	-0.003	4.0	GoodResponse	1	0.333	609.55	9	64	Target	Win	True
610.55	0.3	Win2	0.6	0.003	Yes	3.13	-0.003	4.0	GoodResponse	1	0.333	n/a	9	64	ButtonPress	Win	True
610.601	0.32	Win2	0.6	n/a	Yes	3.13	n/a	n/a	GoodResponse	1	n/a	n/a	9	64	Blank	Win	True
610.919	1.45	Win2	0.6	n/a	Yes	3.13	n/a	5.0	GoodResponse	1	0.027	609.946	9	64	Feedback	Win	True
612.373	3.13	Win2	0.6	n/a	Yes	3.13	n/a	n/a	GoodResponse	1	0.0	n/a	9	64	ISIslide	Win	True
615.516	0.25	Control	0.5909	0.0	No	2.784	0.016	n/a	LatePress	0	n/a	n/a	9	65	Cue	Neutral	True
615.767	4.0	Control	0.5909	0.0	No	2.784	0.001	n/a	LatePress	0	n/a	n/a	9	65	Fixation	Neutral	True
619.762	0.39	Control	0.5909	0.004	No	2.784	-0.004	4.0	LatePress	0	0.398	619.16	9	65	Target	Neutral	True
620.16	0.3	Control	0.5909	0.004	No	2.784	-0.004	4.0	LatePress	0	0.398	n/a	9	65	ButtonPress	Neutral	True
620.163	0.31	Control	0.5909	n/a	No	2.784	n/a	n/a	LatePress	0	n/a	n/a	9	65	Blank	Neutral	True
620.464	1.45	Control	0.5909	n/a	No	2.784	n/a	5.0	LatePress	0	0.044	619.508	9	65	Feedback	Neutral	True
621.918	2.784	Control	0.5909	n/a	No	2.784	n/a	n/a	LatePress	0	0.0	n/a	9	65	ISIslide	Neutral	True
624.727	0.25	Win2	0.597	0.0	Yes	2.773	0.027	n/a	GoodResponse	1	n/a	n/a	10	66	Cue	Win	True
624.977	3.9	Win2	0.597	0.0	Yes	2.773	0.0	n/a	GoodResponse	1	n/a	n/a	10	66	Fixation	Win	True
628.889	0.4	Win2	0.597	0.0	Yes	2.773	0.012	4.0	GoodResponse	1	0.272	628.161	10	66	Target	Win	True
629.161	0.3	Win2	0.597	0.0	Yes	2.773	0.012	4.0	GoodResponse	1	0.272	n/a	10	66	ButtonPress	Win	True
629.274	0.3	Win2	0.597	n/a	Yes	2.773	n/a	n/a	GoodResponse	1	n/a	n/a	10	66	Blank	Win	True
629.575	1.45	Win2	0.597	n/a	Yes	2.773	n/a	5.0	GoodResponse	1	0.006	628.581	10	66	Feedback	Win	True
631.029	2.773	Win2	0.597	n/a	Yes	2.773	n/a	n/a	GoodResponse	1	0.0	n/a	10	66	ISIslide	Win	True
633.821	0.25	Control	0.6029	0.0	Yes	2.729	0.021	n/a	GoodResponse	0	n/a	n/a	10	67	Cue	Neutral	True
634.071	3.95	Control	0.6029	0.0	Yes	2.729	0.0	n/a	GoodResponse	0	n/a	n/a	10	67	Fixation	Neutral	True
638.033	0.41	Control	0.6029	0.0	Yes	2.729	0.012	4.0	GoodResponse	0	0.284	637.317	10	67	Target	Neutral	True
638.317	0.3	Control	0.6029	0.0	Yes	2.729	0.012	4.0	GoodResponse	0	0.284	n/a	10	67	ButtonPress	Neutral	True
638.434	0.29	Control	0.6029	n/a	Yes	2.729	n/a	n/a	GoodResponse	0	n/a	n/a	10	67	Blank	Neutral	True
638.719	1.45	Control	0.6029	n/a	Yes	2.729	n/a	5.0	GoodResponse	0	0.033	637.752	10	67	Feedback	Neutral	True
640.173	2.729	Control	0.6029	n/a	Yes	2.729	n/a	n/a	GoodResponse	0	0.0	n/a	10	67	ISIslide	Neutral	True
642.914	0.25	Win2	0.6087	0.0	Yes	3.086	0.014	n/a	GoodResponse	1	n/a	n/a	11	68	Cue	Win	True
643.165	4.0	Win2	0.6087	0.0	Yes	3.086	0.001	n/a	GoodResponse	1	n/a	n/a	11	68	Fixation	Win	True
647.16	0.42	Win2	0.6087	0.004	Yes	3.086	-0.004	4.0	GoodResponse	1	0.322	646.482	11	68	Target	Win	True
647.482	0.3	Win2	0.6087	0.004	Yes	3.086	-0.004	4.0	GoodResponse	1	0.322	n/a	11	68	ButtonPress	Win	True
647.595	0.28	Win2	0.6087	n/a	Yes	3.086	n/a	n/a	GoodResponse	1	n/a	n/a	11	68	Blank	Win	True
647.863	1.45	Win2	0.6087	n/a	Yes	3.086	n/a	5.0	GoodResponse	1	0.011	646.874	11	68	Feedback	Win	True
649.317	3.086	Win2	0.6087	n/a	Yes	3.086	n/a	n/a	GoodResponse	1	0.0	n/a	11	68	ISIslide	Win	True
652.426	0.25	Win2	0.6143	0.0	Yes	3.224	0.026	n/a	GoodResponse	1	n/a	n/a	12	69	Cue	Win	True
652.677	3.95	Win2	0.6143	0.0	Yes	3.224	0.001	n/a	GoodResponse	1	n/a	n/a	12	69	Fixation	Win	True
656.622	0.43	Win2	0.6143	0.004	Yes	3.224	-0.004	4.0	GoodResponse	1	0.357	655.979	12	69	Target	Win	True
656.979	0.3	Win2	0.6143	0.004	Yes	3.224	-0.004	4.0	GoodResponse	1	0.357	n/a	12	69	ButtonPress	Win	True
657.057	0.27	Win2	0.6143	n/a	Yes	3.224	n/a	n/a	GoodResponse	1	n/a	n/a	12	69	Blank	Win	True
657.324	1.45	Win2	0.6143	n/a	Yes	3.224	n/a	5.0	GoodResponse	1	0.012	656.336	12	69	Feedback	Win	True
658.778	3.224	Win2	0.6143	n/a	Yes	3.224	n/a	n/a	GoodResponse	1	0.0	n/a	12	69	ISIslide	Win	True
662.022	0.25	Lose2	0.6197	0.0	Yes	3.028	0.022	n/a	GoodResponse	0	n/a	n/a	12	70	Cue	AvoidedLoss	True
662.272	4.05	Lose2	0.6197	0.0	Yes	3.028	0.0	n/a	GoodResponse	0	n/a	n/a	12	70	Fixation	AvoidedLoss	True
666.318	0.44	Lose2	0.6197	0.004	Yes	3.028	-0.004	4.0	GoodResponse	0	0.293	665.611	12	70	Target	AvoidedLoss	True
666.611	0.3	Lose2	0.6197	0.004	Yes	3.028	-0.004	4.0	GoodResponse	0	0.293	n/a	12	70	ButtonPress	AvoidedLoss	True
666.769	0.26	Lose2	0.6197	n/a	Yes	3.028	n/a	n/a	GoodResponse	0	n/a	n/a	12	70	Blank	AvoidedLoss	True
667.02	1.45	Lose2	0.6197	n/a	Yes	3.028	n/a	5.0	GoodResponse	0	0.024	666.044	12	70	Feedback	AvoidedLoss	True
668.474	3.028	Lose2	0.6197	n/a	Yes	3.028	n/a	n/a	GoodResponse	0	0.0	n/a	12	70	ISIslide	AvoidedLoss	True
671.517	0.25	Win2	0.625	0.0	Yes	2.733	0.017	n/a	GoodResponse	1	n/a	n/a	13	71	Cue	Win	True
671.767	4.05	Win2	0.625	0.0	Yes	2.733	0.0	n/a	GoodResponse	1	n/a	n/a	13	71	Fixation	Win	True
675.813	0.45	Win2	0.625	0.004	Yes	2.733	-0.004	4.0	GoodResponse	1	0.34	675.153	13	71	Target	Win	True
676.153	0.3	Win2	0.625	0.004	Yes	2.733	-0.004	4.0	GoodResponse	1	0.34	n/a	13	71	ButtonPress	Win	True
676.264	0.25	Win2	0.625	n/a	Yes	2.733	n/a	n/a	GoodResponse	1	n/a	n/a	13	71	Blank	Win	True
676.515	1.45	Win2	0.625	n/a	Yes	2.733	n/a	5.0	GoodResponse	1	0.041	675.556	13	71	Feedback	Win	True
677.969	2.733	Win2	0.625	n/a	Yes	2.733	n/a	n/a	GoodResponse	1	0.0	n/a	13	71	ISIslide	Win	True
680.727	0.25	Win2	0.6301	0.001	Yes	2.773	0.027	n/a	GoodResponse	1	n/a	n/a	14	72	Cue	Win	True
680.978	4.1	Win2	0.6301	0.0	Yes	2.773	0.001	n/a	GoodResponse	1	n/a	n/a	14	72	Fixation	Win	True
685.074	0.46	Win2	0.6301	0.003	Yes	2.773	-0.003	4.0	GoodResponse	1	0.334	684.408	14	72	Target	Win	True
685.408	0.3	Win2	0.6301	0.003	Yes	2.773	-0.003	4.0	GoodResponse	1	0.334	n/a	14	72	ButtonPress	Win	True
685.542	0.24	Win2	0.6301	n/a	Yes	2.773	n/a	n/a	GoodResponse	1	n/a	n/a	14	72	Blank	Win	True
685.776	1.45	Win2	0.6301	n/a	Yes	2.773	n/a	5.0	GoodResponse	1	0.048	684.824	14	72	Feedback	Win	True
687.23	2.773	Win2	0.6301	n/a	Yes	2.773	n/a	n/a	GoodResponse	1	0.0	n/a	14	72	ISIslide	Win	True
690.022	0.25	Win2	0.6351	0.0	Yes	2.678	0.022	n/a	GoodResponse	1	n/a	n/a	15	73	Cue	Win	True
690.273	4.0	Win2	0.6351	0.0	Yes	2.678	0.001	n/a	GoodResponse	1	n/a	n/a	15	73	Fixation	Win	True
694.268	0.47	Win2	0.6351	0.004	Yes	2.678	-0.004	4.0	GoodResponse	1	0.276	693.544	15	73	Target	Win	True
694.544	0.3	Win2	0.6351	0.004	Yes	2.678	-0.004	4.0	GoodResponse	1	0.276	n/a	15	73	ButtonPress	Win	True
694.753	0.23	Win2	0.6351	n/a	Yes	2.678	n/a	n/a	GoodResponse	1	n/a	n/a	15	73	Blank	Win	True
694.97	1.45	Win2	0.6351	n/a	Yes	2.678	n/a	5.0	GoodResponse	1	0.025	693.995	15	73	Feedback	Win	True
696.424	2.678	Win2	0.6351	n/a	Yes	2.678	n/a	n/a	GoodResponse	1	0.0	n/a	15	73	ISIslide	Win	True
699.116	0.25	Lose2	0.64	0.0	Yes	2.634	0.016	n/a	GoodResponse	0	n/a	n/a	15	74	Cue	AvoidedLoss	True
699.367	4.05	Lose2	0.64	0.0	Yes	2.634	0.001	n/a	GoodResponse	0	n/a	n/a	15	74	Fixation	AvoidedLoss	True
703.412	0.48	Lose2	0.64	0.004	Yes	2.634	-0.004	4.0	GoodResponse	0	0.271	702.683	15	74	Target	AvoidedLoss	True
703.683	0.3	Lose2	0.64	0.004	Yes	2.634	-0.004	4.0	GoodResponse	0	0.271	n/a	15	74	ButtonPress	AvoidedLoss	True
703.897	0.22	Lose2	0.64	n/a	Yes	2.634	n/a	n/a	GoodResponse	0	n/a	n/a	15	74	Blank	AvoidedLoss	True
704.114	1.45	Lose2	0.64	n/a	Yes	2.634	n/a	5.0	GoodResponse	0	0.007	703.121	15	74	Feedback	AvoidedLoss	True
705.568	2.634	Lose2	0.64	n/a	Yes	2.634	n/a	n/a	GoodResponse	0	0.0	n/a	15	74	ISIslide	AvoidedLoss	True
708.226	0.25	Lose2	0.6446999999999999	0.0	Yes	2.924	0.026	n/a	GoodResponse	0	n/a	n/a	15	75	Cue	AvoidedLoss	True
708.477	3.95	Lose2	0.6446999999999999	0.0	Yes	2.924	0.001	n/a	GoodResponse	0	n/a	n/a	15	75	Fixation	AvoidedLoss	True
712.422	0.49	Lose2	0.6446999999999999	0.004	Yes	2.924	-0.004	4.0	GoodResponse	0	0.281	711.703	15	75	Target	AvoidedLoss	True
712.703	0.3	Lose2	0.6446999999999999	0.004	Yes	2.924	-0.004	4.0	GoodResponse	0	0.281	n/a	15	75	ButtonPress	AvoidedLoss	True
712.924	0.21	Lose2	0.6446999999999999	n/a	Yes	2.924	n/a	n/a	GoodResponse	0	n/a	n/a	15	75	Blank	AvoidedLoss	True
713.124	1.45	Lose2	0.6446999999999999	n/a	Yes	2.924	n/a	5.0	GoodResponse	0	0.017	712.141	15	75	Feedback	AvoidedLoss	True
714.579	2.924	Lose2	0.6446999999999999	n/a	Yes	2.924	n/a	n/a	GoodResponse	0	0.0	n/a	15	75	ISIslide	AvoidedLoss	True
717.521	0.25	Control	0.6494	0.0	Yes	3.229	0.021	n/a	GoodResponse	0	n/a	n/a	15	76	Cue	Neutral	True
717.772	4.05	Control	0.6494	0.0	Yes	3.229	0.001	n/a	GoodResponse	0	n/a	n/a	15	76	Fixation	Neutral	True
721.817	0.5	Control	0.6494	0.004	Yes	3.229	-0.004	4.0	GoodResponse	0	0.344	721.161	15	76	Target	Neutral	True
722.161	0.3	Control	0.6494	0.004	Yes	3.229	-0.004	4.0	GoodResponse	0	0.344	n/a	15	76	ButtonPress	Neutral	True
722.318	0.2	Control	0.6494	n/a	Yes	3.229	n/a	n/a	GoodResponse	0	n/a	n/a	15	76	Blank	Neutral	True
722.519	1.45	Control	0.6494	n/a	Yes	3.229	n/a	5.0	GoodResponse	0	0.037	721.556	15	76	Feedback	Neutral	True
723.973	3.229	Control	0.6494	n/a	Yes	3.229	n/a	n/a	GoodResponse	0	0.0	n/a	15	76	ISIslide	Neutral	True
727.216	0.25	Lose2	0.6537999999999999	0.001	Yes	2.584	0.016	n/a	GoodResponse	0	n/a	n/a	15	77	Cue	AvoidedLoss	True
727.467	3.95	Lose2	0.6537999999999999	0.0	Yes	2.584	0.001	n/a	GoodResponse	0	n/a	n/a	15	77	Fixation	AvoidedLoss	True
731.412	0.5	Lose2	0.6537999999999999	0.004	Yes	2.584	-0.004	4.0	GoodResponse	0	0.31	730.722	15	77	Target	AvoidedLoss	True
731.722	0.3	Lose2	0.6537999999999999	0.004	Yes	2.584	-0.004	4.0	GoodResponse	0	0.31	n/a	15	77	ButtonPress	AvoidedLoss	True
731.914	0.2	Lose2	0.6537999999999999	n/a	Yes	2.584	n/a	n/a	GoodResponse	0	n/a	n/a	15	77	Blank	AvoidedLoss	True
732.114	1.45	Lose2	0.6537999999999999	n/a	Yes	2.584	n/a	5.0	GoodResponse	0	0.005	731.119	15	77	Feedback	AvoidedLoss	True
733.569	2.584	Lose2	0.6537999999999999	n/a	Yes	2.584	n/a	n/a	GoodResponse	0	0.0	n/a	15	77	ISIslide	AvoidedLoss	True
