onset	duration	cue_type	current_mean_accuracy	duration_error	is_hit	isi_adjusted	onset_delay	response	response_type	reward	rt	rt_time	total_reward	trial_number	trial_phase	trial_type	one_press
11.099	0.25	Control	1.0	0.0	Yes	2.951	-0.001	n/a	GoodResponse	0	n/a	n/a	0	0	Cue	Neutral	False
11.349	3.85	Control	1.0	0.0	Yes	2.951	0.0	4.0	GoodResponse	0	0.323	10.672	0	0	Fixation	Neutral	False
11.672	0.3	Control	1.0	0.0	Yes	2.951	0.0	4.0	GoodResponse	0	0.323	n/a	0	0	ButtonPress	Neutral	False
15.211	0.4	Control	1.0	0.0	Yes	2.951	0.012	4.0	GoodResponse	0	0.257	14.468	0	0	Target	Neutral	False
15.468	0.3	Control	1.0	0.0	Yes	2.951	0.012	4.0	GoodResponse	0	0.257	n/a	0	0	ButtonPress	Neutral	False
15.595	0.3	Control	1.0	n/a	Yes	2.951	n/a	n/a	GoodResponse	0	n/a	n/a	0	0	Blank	Neutral	False
15.896	1.45	Control	1.0	n/a	Yes	2.951	n/a	5.0	GoodResponse	0	0.03	14.926	0	0	Feedback	Neutral	False
17.351	2.951	Control	1.0	n/a	Yes	2.951	n/a	n/a	GoodResponse	0	0.0	n/a	0	0	ISIslide	Neutral	False
20.393	0.25	Lose2	1.0	0.0	Yes	2.707	0.093	n/a	GoodResponse	0	n/a	n/a	0	1	Cue	AvoidedLoss	True
20.644	4.0	Lose2	1.0	0.0	Yes	2.707	0.001	n/a	GoodResponse	0	n/a	n/a	0	1	Fixation	AvoidedLoss	True
24.639	0.39	Lose2	1.0	0.004	Yes	2.707	-0.004	4.0	GoodResponse	0	0.215	23.854	0	1	Target	AvoidedLoss	True
24.854	0.3	Lose2	1.0	0.004	Yes	2.707	-0.004	4.0	GoodResponse	0	0.215	n/a	0	1	ButtonPress	AvoidedLoss	True
25.04	0.31	Lose2	1.0	n/a	Yes	2.707	n/a	n/a	GoodResponse	0	n/a	n/a	0	1	Blank	AvoidedLoss	True
25.341	1.45	Lose2	1.0	n/a	Yes	2.707	n/a	5.0	GoodResponse	0	0.049	24.39	0	1	Feedback	AvoidedLoss	True
26.796	2.707	Lose2	1.0	n/a	Yes	2.707	n/a	n/a	GoodResponse	0	0.0	n/a	0	1	ISIslide	AvoidedLoss	True
29.521	0.25	Control	0.6667000000000001	0.0	No	2.579	0.021	n/a	NoResponse	0	n/a	n/a	0	2	Cue	Neutral	False
29.771	4.1	Control	0.6667000000000001	0.0	No	2.579	0.0	n/a	NoResponse	0	n/a	n/a	0	2	Fixation	Neutral	False
33.867	0.38	Control	0.6667000000000001	0.004	No	2.579	-0.004	n/a	NoResponse	0	n/a	n/a	0	2	Target	Neutral	False
34.251	0.32	Control	0.6667000000000001	n/a	No	2.579	n/a	n/a	NoResponse	0	n/a	n/a	0	2	Blank	Neutral	False
34.569	1.45	Control	0.6667000000000001	n/a	No	2.579	n/a	5.0	NoResponse	0	0.04	33.609	0	2	Feedback	Neutral	False
36.023	2.579	Control	0.6667000000000001	n/a	No	2.579	n/a	n/a	NoResponse	0	0.0	n/a	0	2	ISIslide	Neutral	False
38.698	0.25	Win2	0.75	0.0	Yes	2.752	0.098	n/a	GoodResponse	1	n/a	n/a	1	3	Cue	Win	True
38.949	3.95	Win2	0.75	0.0	Yes	2.752	0.001	n/a	GoodResponse	1	n/a	n/a	1	3	Fixation	Win	True
42.894	0.37	Win2	0.75	0.004	Yes	2.752	-0.004	4.0	GoodResponse	1	0.137	42.031	1	3	Target	Win	True
43.031	0.3	Win2	0.75	0.004	Yes	2.752	-0.004	4.0	GoodResponse	1	0.137	n/a	1	3	ButtonPress	Win	True
43.278	0.33	Win2	0.75	n/a	Yes	2.752	n/a	n/a	GoodResponse	1	n/a	n/a	1	3	Blank	Win	True
43.596	1.45	Win2	0.75	n/a	Yes	2.752	n/a	5.0	GoodResponse	1	0.038	42.634	1	3	Feedback	Win	True
45.05	2.752	Win2	0.75	n/a	Yes	2.752	n/a	n/a	GoodResponse	1	0.0	n/a	1	3	ISIslide	Win	True
47.825	0.25	Win2	0.8	0.001	Yes	3.275	0.025	n/a	GoodResponse	1	n/a	n/a	2	4	Cue	Win	True
48.076	4.0	Win2	0.8	0.0	Yes	3.275	0.001	n/a	GoodResponse	1	n/a	n/a	2	4	Fixation	Win	True
52.072	0.36	Win2	0.8	0.003	Yes	3.275	-0.003	4.0	GoodResponse	1	0.153	51.225	2	4	Target	Win	True
52.225	0.3	Win2	0.8	0.003	Yes	3.275	-0.003	4.0	GoodResponse	1	0.153	n/a	2	4	ButtonPress	Win	True
52.439	0.34	Win2	0.8	n/a	Yes	3.275	n/a	n/a	GoodResponse	1	n/a	n/a	2	4	Blank	Win	True
52.774	1.45	Win2	0.8	n/a	Yes	3.275	n/a	5.0	GoodResponse	1	0.031	51.805	2	4	Feedback	Win	True
54.228	3.275	Win2	0.8	n/a	Yes	3.275	n/a	n/a	GoodResponse	1	0.0	n/a	2	4	ISIslide	Win	True
57.521	0.25	Win2	0.8332999999999999	0.0	Yes	2.779	0.021	n/a	GoodResponse	1	n/a	n/a	3	5	Cue	Win	False
57.772	4.0	Win2	0.8332999999999999	0.0	Yes	2.779	0.001	4.0	GoodResponse	1	3.759	60.531	3	5	Fixation	Win	False
61.531	0.3	Win2	0.8332999999999999	0.0	Yes	2.779	0.001	4.0	GoodResponse	1	3.759	n/a	3	5	ButtonPress	Win	False
61.767	0.35	Win2	0.8332999999999999	0.004	Yes	2.779	-0.004	4.0	GoodResponse	1	0.154	60.921	3	5	Target	Win	False
61.921	0.3	Win2	0.8332999999999999	0.004	Yes	2.779	-0.004	4.0	GoodResponse	1	0.154	n/a	3	5	ButtonPress	Win	False
62.118	0.35	Win2	0.8332999999999999	n/a	Yes	2.779	n/a	n/a	GoodResponse	1	n/a	n/a	3	5	Blank	Win	False
62.469	1.45	Win2	0.8332999999999999	n/a	Yes	2.779	n/a	5.0	GoodResponse	1	0.043	61.512	3	5	Feedback	Win	False
63.924	2.779	Win2	0.8332999999999999	n/a	Yes	2.779	n/a	n/a	GoodResponse	1	0.0	n/a	3	5	ISIslide	Win	False
66.715	0.25	Lose2	0.8571	0.001	Yes	2.735	0.015	n/a	GoodResponse	0	n/a	n/a	3	6	Cue	AvoidedLoss	True
66.966	3.95	Lose2	0.8571	0.0	Yes	2.735	0.001	n/a	GoodResponse	0	n/a	n/a	3	6	Fixation	AvoidedLoss	True
70.911	0.34	Lose2	0.8571	0.004	Yes	2.735	-0.004	4.0	GoodResponse	0	0.252	70.163	3	6	Target	AvoidedLoss	True
71.163	0.3	Lose2	0.8571	0.004	Yes	2.735	-0.004	4.0	GoodResponse	0	0.252	n/a	3	6	ButtonPress	AvoidedLoss	True
71.262	0.36	Lose2	0.8571	n/a	Yes	2.735	n/a	n/a	GoodResponse	0	n/a	n/a	3	6	Blank	AvoidedLoss	True
71.613	1.45	Lose2	0.8571	n/a	Yes	2.735	n/a	5.0	GoodResponse	0	0.021	70.634	3	6	Feedback	AvoidedLoss	True
73.068	2.735	Lose2	0.8571	n/a	Yes	2.735	n/a	n/a	GoodResponse	0	0.0	n/a	3	6	ISIslide	AvoidedLoss	True
75.826	0.25	Lose2	0.875	0.0	Yes	4.024	0.026	n/a	GoodResponse	0	n/a	n/a	3	7	Cue	AvoidedLoss	False
76.077	4.05	Lose2	0.875	0.0	Yes	4.024	0.001	4.0	GoodResponse	0	3.89	78.967	3	7	Fixation	AvoidedLoss	False
79.967	0.3	Lose2	0.875	0.0	Yes	4.024	0.001	4.0	GoodResponse	0	3.89	n/a	3	7	ButtonPress	AvoidedLoss	False
80.122	0.33	Lose2	0.875	0.004	Yes	4.024	-0.004	4.0	GoodResponse	0	0.211	79.333	3	7	Target	AvoidedLoss	False
80.333	0.3	Lose2	0.875	0.004	Yes	4.024	-0.004	4.0	GoodResponse	0	0.211	n/a	3	7	ButtonPress	AvoidedLoss	False
80.457	0.37	Lose2	0.875	n/a	Yes	4.024	n/a	n/a	GoodResponse	0	n/a	n/a	3	7	Blank	AvoidedLoss	False
80.824	1.45	Lose2	0.875	n/a	Yes	4.024	n/a	5.0	GoodResponse	0	0.029	79.853	3	7	Feedback	AvoidedLoss	False
82.279	4.024	Lose2	0.875	n/a	Yes	4.024	n/a	n/a	GoodResponse	0	0.0	n/a	3	7	ISIslide	AvoidedLoss	False
86.324	0.25	Lose2	0.7778	0.0	No	3.026	0.024	n/a	LatePress	-1	n/a	n/a	2	8	Cue	Loss	True
86.575	3.95	Lose2	0.7778	0.0	No	3.026	0.001	n/a	LatePress	-1	n/a	n/a	2	8	Fixation	Loss	True
90.52	0.32	Lose2	0.7778	0.004	No	3.026	-0.004	4.0	LatePress	-1	0.321	89.841	2	8	Target	Loss	True
90.841	0.3	Lose2	0.7778	0.004	No	3.026	-0.004	4.0	LatePress	-1	0.321	n/a	2	8	ButtonPress	Loss	True
90.855	0.38	Lose2	0.7778	n/a	No	3.026	n/a	n/a	LatePress	-1	n/a	n/a	2	8	Blank	Loss	True
91.222	1.45	Lose2	0.7778	n/a	No	3.026	n/a	5.0	LatePress	-1	0.021	90.243	2	8	Feedback	Loss	True
92.677	3.026	Lose2	0.7778	n/a	No	3.026	n/a	n/a	LatePress	-1	0.0	n/a	2	8	ISIslide	Loss	True
95.719	0.25	Lose2	0.8	0.0	Yes	3.131	0.019	n/a	GoodResponse	0	n/a	n/a	2	9	Cue	AvoidedLoss	True
95.97	3.95	Lose2	0.8	0.0	Yes	3.131	0.001	n/a	GoodResponse	0	n/a	n/a	2	9	Fixation	AvoidedLoss	True
99.915	0.31	Lose2	0.8	0.004	Yes	3.131	-0.004	4.0	GoodResponse	0	0.192	99.107	2	9	Target	AvoidedLoss	True
100.107	0.3	Lose2	0.8	0.004	Yes	3.131	-0.004	4.0	GoodResponse	0	0.192	n/a	2	9	ButtonPress	AvoidedLoss	True
100.233	0.39	Lose2	0.8	n/a	Yes	3.131	n/a	n/a	GoodResponse	0	n/a	n/a	2	9	Blank	AvoidedLoss	True
100.617	1.45	Lose2	0.8	n/a	Yes	3.131	n/a	5.0	GoodResponse	0	0.041	99.658	2	9	Feedback	AvoidedLoss	True
102.072	3.131	Lose2	0.8	n/a	Yes	3.131	n/a	n/a	GoodResponse	0	0.0	n/a	2	9	ISIslide	AvoidedLoss	True
105.214	0.25	Control	0.7273000000000001	0.0	No	3.286	0.014	n/a	NoResponse	0	n/a	n/a	2	10	Cue	Neutral	False
105.465	4.0	Control	0.7273000000000001	0.0	No	3.286	0.001	n/a	NoResponse	0	n/a	n/a	2	10	Fixation	Neutral	False
109.46	0.3	Control	0.7273000000000001	0.004	No	3.286	-0.004	n/a	NoResponse	0	n/a	n/a	2	10	Target	Neutral	False
109.761	0.4	Control	0.7273000000000001	n/a	No	3.286	n/a	n/a	NoResponse	0	n/a	n/a	2	10	Blank	Neutral	False
110.162	1.45	Control	0.7273000000000001	n/a	No	3.286	n/a	5.0	NoResponse	0	0.008	109.17	2	10	Feedback	Neutral	False
111.617	3.286	Control	0.7273000000000001	n/a	No	3.286	n/a	n/a	NoResponse	0	0.0	n/a	2	10	ISIslide	Neutral	False
114.927	0.25	Lose2	0.6667000000000001	0.0	No	2.723	0.027	n/a	NoResponse	-1	n/a	n/a	1	11	Cue	Loss	True
115.177	4.05	Lose2	0.6667000000000001	0.001	No	2.723	0.0	4.0	NoResponse	-1	4.039	118.216	1	11	Fixation	Loss	True
119.216	0.3	Lose2	0.6667000000000001	0.001	No	2.723	0.0	4.0	NoResponse	-1	4.039	n/a	1	11	ButtonPress	Loss	True
119.223	0.29	Lose2	0.6667000000000001	0.004	No	2.723	-0.004	n/a	NoResponse	-1	n/a	n/a	1	11	Target	Loss	True
119.524	0.41	Lose2	0.6667000000000001	n/a	No	2.723	n/a	n/a	NoResponse	-1	n/a	n/a	1	11	Blank	Loss	True
119.925	1.45	Lose2	0.6667000000000001	n/a	No	2.723	n/a	5.0	NoResponse	-1	0.001	118.926	1	11	Feedback	Loss	True
121.379	2.723	Lose2	0.6667000000000001	n/a	No	2.723	n/a	n/a	NoResponse	-1	0.0	n/a	1	11	ISIslide	Loss	True
124.121	0.25	Control	0.6154	0.0	No	2.979	0.021	n/a	NoResponse	0	n/a	n/a	1	12	Cue	Neutral	False
124.372	3.9	Control	0.6154	0.0	No	2.979	0.001	n/a	NoResponse	0	n/a	n/a	1	12	Fixation	Neutral	False
128.267	0.28	Control	0.6154	0.004	No	2.979	-0.004	n/a	NoResponse	0	n/a	n/a	1	12	Target	Neutral	False
128.551	0.42	Control	0.6154	n/a	No	2.979	n/a	n/a	NoResponse	0	n/a	n/a	1	12	Blank	Neutral	False
128.969	1.45	Control	0.6154	n/a	No	2.979	n/a	5.0	NoResponse	0	0.03	127.999	1	12	Feedback	Neutral	False
130.423	2.979	Control	0.6154	n/a	No	2.979	n/a	n/a	NoResponse	0	0.0	n/a	1	12	ISIslide	Neutral	False
133.416	0.25	Control	0.6429	0.0	Yes	2.784	0.016	n/a	GoodResponse	0	n/a	n/a	1	13	Cue	Neutral	True
133.666	4.0	Control	0.6429	0.0	Yes	2.784	0.0	n/a	GoodResponse	0	n/a	n/a	1	13	Fixation	Neutral	True
137.662	0.29	Control	0.6429	0.004	Yes	2.784	-0.004	4.0	GoodResponse	0	0.25	136.912	1	13	Target	Neutral	True
137.912	0.3	Control	0.6429	0.004	Yes	2.784	-0.004	4.0	GoodResponse	0	0.25	n/a	1	13	ButtonPress	Neutral	True
137.963	0.41	Control	0.6429	n/a	Yes	2.784	n/a	n/a	GoodResponse	0	n/a	n/a	1	13	Blank	Neutral	True
138.364	1.45	Control	0.6429	n/a	Yes	2.784	n/a	5.0	GoodResponse	0	0.001	137.365	1	13	Feedback	Neutral	True
139.818	2.784	Control	0.6429	n/a	Yes	2.784	n/a	n/a	GoodResponse	0	0.0	n/a	1	13	ISIslide	Neutral	True
142.627	0.25	Win2	0.6667000000000001	0.0	Yes	2.673	0.027	n/a	GoodResponse	1	n/a	n/a	2	14	Cue	Win	True
142.877	4.1	Win2	0.6667000000000001	0.0	Yes	2.673	0.0	n/a	GoodResponse	1	n/a	n/a	2	14	Fixation	Win	True
146.973	0.3	Win2	0.6667000000000001	0.004	Yes	2.673	-0.004	4.0	GoodResponse	1	0.199	146.172	2	14	Target	Win	True
147.172	0.3	Win2	0.6667000000000001	0.004	Yes	2.673	-0.004	4.0	GoodResponse	1	0.199	n/a	2	14	ButtonPress	Win	True
147.274	0.4	Win2	0.6667000000000001	n/a	Yes	2.673	n/a	n/a	GoodResponse	1	n/a	n/a	2	14	Blank	Win	True
147.675	1.45	Win2	0.6667000000000001	n/a	Yes	2.673	n/a	5.0	GoodResponse	1	0.008	146.683	2	14	Feedback	Win	True
149.129	2.673	Win2	0.6667000000000001	n/a	Yes	2.673	n/a	n/a	GoodResponse	1	0.0	n/a	2	14	ISIslide	Win	True
151.821	0.25	Control	0.625	0.0	No	2.979	0.021	n/a	NoResponse	0	n/a	n/a	2	15	Cue	Neutral	False
152.071	4.0	Control	0.625	0.001	No	2.979	0.0	n/a	NoResponse	0	n/a	n/a	2	15	Fixation	Neutral	False
156.067	0.29	Control	0.625	0.004	No	2.979	-0.004	n/a	NoResponse	0	n/a	n/a	2	15	Target	Neutral	False
156.368	0.41	Control	0.625	n/a	No	2.979	n/a	n/a	NoResponse	0	n/a	n/a	2	15	Blank	Neutral	False
156.769	1.45	Control	0.625	n/a	No	2.979	n/a	5.0	NoResponse	0	0.035	155.804	2	15	Feedback	Neutral	False
158.223	2.979	Control	0.625	n/a	No	2.979	n/a	n/a	NoResponse	0	0.0	n/a	2	15	ISIslide	Neutral	False
161.216	0.25	Win2	0.6470999999999999	0.0	Yes	2.884	0.016	n/a	GoodResponse	1	n/a	n/a	3	16	Cue	Win	False
161.466	4.0	Win2	0.6470999999999999	0.0	Yes	2.884	0.0	4.0	GoodResponse	1	0.187	160.653	3	16	Fixation	Win	False
161.653	0.3	Win2	0.6470999999999999	0.0	Yes	2.884	0.0	4.0	GoodResponse	1	0.187	n/a	3	16	ButtonPress	Win	False
165.462	0.3	Win2	0.6470999999999999	0.004	Yes	2.884	-0.004	4.0	GoodResponse	1	0.234	164.696	3	16	Target	Win	False
165.696	0.3	Win2	0.6470999999999999	0.004	Yes	2.884	-0.004	4.0	GoodResponse	1	0.234	n/a	3	16	ButtonPress	Win	False
165.763	0.4	Win2	0.6470999999999999	n/a	Yes	2.884	n/a	n/a	GoodResponse	1	n/a	n/a	3	16	Blank	Win	False
166.164	1.45	Win2	0.6470999999999999	n/a	Yes	2.884	n/a	5.0	GoodResponse	1	0.007	165.171	3	16	Feedback	Win	False
167.618	2.884	Win2	0.6470999999999999	n/a	Yes	2.884	n/a	n/a	GoodResponse	1	0.0	n/a	3	16	ISIslide	Win	False
170.527	0.25	Lose2	0.6667000000000001	0.0	Yes	2.723	0.027	n/a	GoodResponse	0	n/a	n/a	3	17	Cue	AvoidedLoss	True
170.778	3.95	Lose2	0.6667000000000001	0.0	Yes	2.723	0.001	n/a	GoodResponse	0	n/a	n/a	3	17	Fixation	AvoidedLoss	True
174.723	0.31	Lose2	0.6667000000000001	0.004	Yes	2.723	-0.004	4.0	GoodResponse	0	0.199	173.922	3	17	Target	AvoidedLoss	True
174.922	0.3	Lose2	0.6667000000000001	0.004	Yes	2.723	-0.004	4.0	GoodResponse	0	0.199	n/a	3	17	ButtonPress	AvoidedLoss	True
175.04	0.39	Lose2	0.6667000000000001	n/a	Yes	2.723	n/a	n/a	GoodResponse	0	n/a	n/a	3	17	Blank	AvoidedLoss	True
175.425	1.45	Lose2	0.6667000000000001	n/a	Yes	2.723	n/a	5.0	GoodResponse	0	0.013	174.438	3	17	Feedback	AvoidedLoss	True
176.879	2.723	Lose2	0.6667000000000001	n/a	Yes	2.723	n/a	n/a	GoodResponse	0	0.0	n/a	3	17	ISIslide	AvoidedLoss	True
179.621	0.25	Lose2	0.6842	0.0	Yes	2.729	0.021	n/a	GoodResponse	0	n/a	n/a	3	18	Cue	AvoidedLoss	True
179.872	4.05	Lose2	0.6842	0.0	Yes	2.729	0.001	n/a	GoodResponse	0	n/a	n/a	3	18	Fixation	AvoidedLoss	True
183.917	0.3	Lose2	0.6842	0.004	Yes	2.729	-0.004	4.0	GoodResponse	0	0.243	183.16	3	18	Target	AvoidedLoss	True
184.16	0.3	Lose2	0.6842	0.004	Yes	2.729	-0.004	4.0	GoodResponse	0	0.243	n/a	3	18	ButtonPress	AvoidedLoss	True
184.218	0.4	Lose2	0.6842	n/a	Yes	2.729	n/a	n/a	GoodResponse	0	n/a	n/a	3	18	Blank	AvoidedLoss	True
184.619	1.45	Lose2	0.6842	n/a	Yes	2.729	n/a	5.0	GoodResponse	0	0.039	183.658	3	18	Feedback	AvoidedLoss	True
186.073	2.729	Lose2	0.6842	n/a	Yes	2.729	n/a	n/a	GoodResponse	0	0.0	n/a	3	18	ISIslide	AvoidedLoss	True
188.815	0.25	Control	0.7	0.0	Yes	2.935	0.015	n/a	GoodResponse	0	n/a	n/a	3	19	Cue	Neutral	True
189.066	3.95	Control	0.7	0.0	Yes	2.935	0.001	n/a	GoodResponse	0	n/a	n/a	3	19	Fixation	Neutral	True
193.011	0.29	Control	0.7	0.004	Yes	2.935	-0.004	4.0	GoodResponse	0	0.274	192.285	3	19	Target	Neutral	True
193.285	0.3	Control	0.7	0.004	Yes	2.935	-0.004	4.0	GoodResponse	0	0.274	n/a	3	19	ButtonPress	Neutral	True
193.312	0.41	Control	0.7	n/a	Yes	2.935	n/a	n/a	GoodResponse	0	n/a	n/a	3	19	Blank	Neutral	True
193.713	1.45	Control	0.7	n/a	Yes	2.935	n/a	5.0	GoodResponse	0	0.018	192.731	3	19	Feedback	Neutral	True
195.167	2.935	Control	0.7	n/a	Yes	2.935	n/a	n/a	GoodResponse	0	0.0	n/a	3	19	ISIslide	Neutral	True
198.126	0.25	Control	0.7143	0.0	Yes	2.624	0.026	n/a	GoodResponse	0	n/a	n/a	3	20	Cue	Neutral	True
198.377	4.05	Control	0.7143	0.0	Yes	2.624	0.001	n/a	GoodResponse	0	n/a	n/a	3	20	Fixation	Neutral	True
202.423	0.28	Control	0.7143	0.003	Yes	2.624	-0.003	4.0	GoodResponse	0	0.215	201.638	3	20	Target	Neutral	True
202.638	0.3	Control	0.7143	0.003	Yes	2.624	-0.003	4.0	GoodResponse	0	0.215	n/a	3	20	ButtonPress	Neutral	True
202.707	0.42	Control	0.7143	n/a	Yes	2.624	n/a	n/a	GoodResponse	0	n/a	n/a	3	20	Blank	Neutral	True
203.125	1.45	Control	0.7143	n/a	Yes	2.624	n/a	5.0	GoodResponse	0	0.021	202.146	3	20	Feedback	Neutral	True
204.579	2.624	Control	0.7143	n/a	Yes	2.624	n/a	n/a	GoodResponse	0	0.0	n/a	3	20	ISIslide	Neutral	True
207.22	0.25	Control	0.7273000000000001	0.0	Yes	2.78	0.02	n/a	GoodResponse	0	n/a	n/a	3	21	Cue	Neutral	True
207.471	4.1	Control	0.7273000000000001	0.0	Yes	2.78	0.001	n/a	GoodResponse	0	n/a	n/a	3	21	Fixation	Neutral	True
211.567	0.27	Control	0.7273000000000001	0.003	Yes	2.78	-0.003	4.0	GoodResponse	0	0.225	210.792	3	21	Target	Neutral	True
211.792	0.3	Control	0.7273000000000001	0.003	Yes	2.78	-0.003	4.0	GoodResponse	0	0.225	n/a	3	21	ButtonPress	Neutral	True
211.851	0.43	Control	0.7273000000000001	n/a	Yes	2.78	n/a	n/a	GoodResponse	0	n/a	n/a	3	21	Blank	Neutral	True
212.269	1.45	Control	0.7273000000000001	n/a	Yes	2.78	n/a	5.0	GoodResponse	0	0.047	211.316	3	21	Feedback	Neutral	True
213.723	2.78	Control	0.7273000000000001	n/a	Yes	2.78	n/a	n/a	GoodResponse	0	0.0	n/a	3	21	ISIslide	Neutral	True
216.515	0.25	Control	0.6957	0.0	No	2.785	0.015	n/a	NoResponse	0	n/a	n/a	3	22	Cue	Neutral	False
216.766	4.0	Control	0.6957	0.0	No	2.785	0.001	n/a	NoResponse	0	n/a	n/a	3	22	Fixation	Neutral	False
220.761	0.26	Control	0.6957	0.004	No	2.785	-0.004	n/a	NoResponse	0	n/a	n/a	3	22	Target	Neutral	False
221.028	0.44	Control	0.6957	n/a	No	2.785	n/a	n/a	NoResponse	0	n/a	n/a	3	22	Blank	Neutral	False
221.463	1.45	Control	0.6957	n/a	No	2.785	n/a	5.0	NoResponse	0	0.024	220.487	3	22	Feedback	Neutral	False
222.917	2.785	Control	0.6957	n/a	No	2.785	n/a	n/a	NoResponse	0	0.0	n/a	3	22	ISIslide	Neutral	False
225.726	0.25	Control	0.7082999999999999	0.0	Yes	2.774	0.026	n/a	GoodResponse	0	n/a	n/a	3	23	Cue	Neutral	True
225.977	3.9	Control	0.7082999999999999	0.0	Yes	2.774	0.001	n/a	GoodResponse	0	n/a	n/a	3	23	Fixation	Neutral	True
229.872	0.25	Control	0.7082999999999999	0.004	Yes	2.774	-0.004	4.0	GoodResponse	0	0.197	229.069	3	23	Target	Neutral	True
230.069	0.3	Control	0.7082999999999999	0.004	Yes	2.774	-0.004	4.0	GoodResponse	0	0.197	n/a	3	23	ButtonPress	Neutral	True
230.122	0.45	Control	0.7082999999999999	n/a	Yes	2.774	n/a	n/a	GoodResponse	0	n/a	n/a	3	23	Blank	Neutral	True
230.574	1.45	Control	0.7082999999999999	n/a	Yes	2.774	n/a	5.0	GoodResponse	0	0.034	229.608	3	23	Feedback	Neutral	True
232.028	2.774	Control	0.7082999999999999	n/a	Yes	2.774	n/a	n/a	GoodResponse	0	0.0	n/a	3	23	ISIslide	Neutral	True
234.82	0.25	Win2	0.72	0.0	Yes	3.13	0.02	n/a	GoodResponse	1	n/a	n/a	4	24	Cue	Win	True
235.07	3.95	Win2	0.72	0.001	Yes	3.13	0.0	n/a	GoodResponse	1	n/a	n/a	4	24	Fixation	Win	True
239.016	0.24	Win2	0.72	0.004	Yes	3.13	-0.004	4.0	GoodResponse	1	0.227	238.243	4	24	Target	Win	True
239.243	0.3	Win2	0.72	0.004	Yes	3.13	-0.004	4.0	GoodResponse	1	0.227	n/a	4	24	ButtonPress	Win	True
239.266	0.46	Win2	0.72	n/a	Yes	3.13	n/a	n/a	GoodResponse	1	n/a	n/a	4	24	Blank	Win	True
239.718	1.45	Win2	0.72	n/a	Yes	3.13	n/a	5.0	GoodResponse	1	0.012	238.73	4	24	Feedback	Win	True
241.172	3.13	Win2	0.72	n/a	Yes	3.13	n/a	n/a	GoodResponse	1	0.0	n/a	4	24	ISIslide	Win	True
244.315	0.25	Win2	0.7308	0.0	Yes	3.085	0.015	n/a	GoodResponse	1	n/a	n/a	5	25	Cue	Win	True
244.566	4.0	Win2	0.7308	0.0	Yes	3.085	0.001	n/a	GoodResponse	1	n/a	n/a	5	25	Fixation	Win	True
248.561	0.23	Win2	0.7308	0.004	Yes	3.085	-0.004	4.0	GoodResponse	1	0.21	247.771	5	25	Target	Win	True
248.771	0.3	Win2	0.7308	0.004	Yes	3.085	-0.004	4.0	GoodResponse	1	0.21	n/a	5	25	ButtonPress	Win	True
248.795	0.47	Win2	0.7308	n/a	Yes	3.085	n/a	n/a	GoodResponse	1	n/a	n/a	5	25	Blank	Win	True
249.263	1.45	Win2	0.7308	n/a	Yes	3.085	n/a	5.0	GoodResponse	1	0.028	248.291	5	25	Feedback	Win	True
250.717	3.085	Win2	0.7308	n/a	Yes	3.085	n/a	n/a	GoodResponse	1	0.0	n/a	5	25	ISIslide	Win	True
253.827	0.25	Win2	0.7406999999999999	0.0	Yes	2.923	0.027	n/a	GoodResponse	1	n/a	n/a	6	26	Cue	Win	True
254.077	3.95	Win2	0.7406999999999999	0.001	Yes	2.923	0.0	n/a	GoodResponse	1	n/a	n/a	6	26	Fixation	Win	True
258.023	0.22	Win2	0.7406999999999999	0.004	Yes	2.923	-0.004	4.0	GoodResponse	1	0.212	257.235	6	26	Target	Win	True
258.235	0.3	Win2	0.7406999999999999	0.004	Yes	2.923	-0.004	4.0	GoodResponse	1	0.212	n/a	6	26	ButtonPress	Win	True
258.257	0.48	Win2	0.7406999999999999	n/a	Yes	2.923	n/a	n/a	GoodResponse	1	n/a	n/a	6	26	Blank	Win	True
258.725	1.45	Win2	0.7406999999999999	n/a	Yes	2.923	n/a	5.0	GoodResponse	1	0.03	257.755	6	26	Feedback	Win	True
260.179	2.923	Win2	0.7406999999999999	n/a	Yes	2.923	n/a	n/a	GoodResponse	1	0.0	n/a	6	26	ISIslide	Win	True
263.121	0.25	Lose2	0.7143	0.0	No	2.829	0.021	n/a	NoResponse	-1	n/a	n/a	5	27	Cue	Loss	True
263.372	4.05	Lose2	0.7143	0.0	No	2.829	0.001	n/a	NoResponse	-1	n/a	n/a	5	27	Fixation	Loss	True
267.418	0.21	Lose2	0.7143	0.003	No	2.829	-0.003	4.0	NoResponse	-1	0.225	266.643	5	27	Target	Loss	True
267.635	0.49	Lose2	0.7143	n/a	No	2.829	n/a	n/a	NoResponse	-1	n/a	n/a	5	27	Blank	Loss	True
267.643	0.3	Lose2	0.7143	0.003	No	2.829	-0.003	4.0	NoResponse	-1	0.225	n/a	5	27	ButtonPress	Loss	True
268.12	1.45	Lose2	0.7143	n/a	No	2.829	n/a	5.0	NoResponse	-1	0.001	267.121	5	27	Feedback	Loss	True
269.574	2.829	Lose2	0.7143	n/a	No	2.829	n/a	n/a	NoResponse	-1	0.0	n/a	5	27	ISIslide	Loss	True
272.416	0.25	Control	0.7241	0.0	Yes	2.834	0.016	n/a	GoodResponse	0	n/a	n/a	5	28	Cue	Neutral	True
272.667	4.05	Control	0.7241	0.0	Yes	2.834	0.001	n/a	GoodResponse	0	n/a	n/a	5	28	Fixation	Neutral	True
276.712	0.2	Control	0.7241	0.004	Yes	2.834	-0.004	4.0	GoodResponse	0	0.156	275.868	5	28	Target	Neutral	True
276.868	0.3	Control	0.7241	0.004	Yes	2.834	-0.004	4.0	GoodResponse	0	0.156	n/a	5	28	ButtonPress	Neutral	True
276.913	0.5	Control	0.7241	n/a	Yes	2.834	n/a	n/a	GoodResponse	0	n/a	n/a	5	28	Blank	Neutral	True
277.414	1.45	Control	0.7241	n/a	Yes	2.834	n/a	5.0	GoodResponse	0	0.024	276.438	5	28	Feedback	Neutral	True
278.869	2.834	Control	0.7241	n/a	Yes	2.834	n/a	n/a	GoodResponse	0	0.0	n/a	5	28	ISIslide	Neutral	True
281.727	0.25	Lose2	0.7	0.0	No	2.823	0.027	n/a	PrematurePress	-1	n/a	n/a	4	29	Cue	Loss	False
281.978	3.95	Lose2	0.7	0.0	No	2.823	0.001	4.0	PrematurePress	-1	3.741	284.719	4	29	Fixation	Loss	False
285.719	0.3	Lose2	0.7	0.0	No	2.823	0.001	4.0	PrematurePress	-1	3.741	n/a	4	29	ButtonPress	Loss	False
285.923	0.19	Lose2	0.7	0.004	No	2.823	-0.004	4.0	PrematurePress	-1	0.048	284.971	4	29	Target	Loss	False
285.971	0.3	Lose2	0.7	0.004	No	2.823	-0.004	4.0	PrematurePress	-1	0.048	n/a	4	29	ButtonPress	Loss	False
286.124	0.51	Lose2	0.7	n/a	No	2.823	n/a	n/a	PrematurePress	-1	n/a	n/a	4	29	Blank	Loss	False
286.625	1.45	Lose2	0.7	n/a	No	2.823	n/a	5.0	PrematurePress	-1	0.033	285.658	4	29	Feedback	Loss	False
288.079	2.823	Lose2	0.7	n/a	No	2.823	n/a	n/a	PrematurePress	-1	0.0	n/a	4	29	ISIslide	Loss	False
290.921	0.25	Win2	0.6774	0.0	No	2.779	0.021	n/a	NoResponse	0	n/a	n/a	4	30	Cue	MissedWin	True
291.172	3.9	Win2	0.6774	0.0	No	2.779	0.001	n/a	NoResponse	0	n/a	n/a	4	30	Fixation	MissedWin	True
295.067	0.18	Win2	0.6774	0.004	No	2.779	-0.004	4.0	NoResponse	0	0.219	294.286	4	30	Target	MissedWin	True
295.251	0.52	Win2	0.6774	n/a	No	2.779	n/a	n/a	NoResponse	0	n/a	n/a	4	30	Blank	MissedWin	True
295.286	0.3	Win2	0.6774	0.004	No	2.779	-0.004	4.0	NoResponse	0	0.219	n/a	4	30	ButtonPress	MissedWin	True
295.769	1.45	Win2	0.6774	n/a	No	2.779	n/a	5.0	NoResponse	0	0.011	294.78	4	30	Feedback	MissedWin	True
297.224	2.779	Win2	0.6774	n/a	No	2.779	n/a	n/a	NoResponse	0	0.0	n/a	4	30	ISIslide	MissedWin	True
300.015	0.25	Lose2	0.6562	0.0	No	2.835	0.015	n/a	NoResponse	-1	n/a	n/a	3	31	Cue	Loss	True
300.266	4.05	Lose2	0.6562	0.0	No	2.835	0.001	n/a	NoResponse	-1	n/a	n/a	3	31	Fixation	Loss	True
304.312	0.17	Lose2	0.6562	0.003	No	2.835	-0.003	4.0	NoResponse	-1	0.192	303.504	3	31	Target	Loss	True
304.495	0.53	Lose2	0.6562	n/a	No	2.835	n/a	n/a	NoResponse	-1	n/a	n/a	3	31	Blank	Loss	True
304.504	0.3	Lose2	0.6562	0.003	No	2.835	-0.003	4.0	NoResponse	-1	0.192	n/a	3	31	ButtonPress	Loss	True
305.014	1.45	Lose2	0.6562	n/a	No	2.835	n/a	5.0	NoResponse	-1	0.033	304.047	3	31	Feedback	Loss	True
306.468	2.835	Lose2	0.6562	n/a	No	2.835	n/a	n/a	NoResponse	-1	0.0	n/a	3	31	ISIslide	Loss	True
309.327	0.25	Lose2	0.6364	0.0	No	2.623	0.027	n/a	NoResponse	-1	n/a	n/a	2	32	Cue	Loss	True
309.577	4.15	Lose2	0.6364	0.0	No	2.623	0.0	n/a	NoResponse	-1	n/a	n/a	2	32	Fixation	Loss	True
313.723	0.17	Lose2	0.6364	0.004	No	2.623	-0.004	4.0	NoResponse	-1	0.192	312.915	2	32	Target	Loss	True
313.907	0.53	Lose2	0.6364	n/a	No	2.623	n/a	n/a	NoResponse	-1	n/a	n/a	2	32	Blank	Loss	True
313.915	0.3	Lose2	0.6364	0.004	No	2.623	-0.004	4.0	NoResponse	-1	0.192	n/a	2	32	ButtonPress	Loss	True
314.425	1.45	Lose2	0.6364	n/a	No	2.623	n/a	5.0	NoResponse	-1	0.037	313.462	2	32	Feedback	Loss	True
315.88	2.623	Lose2	0.6364	n/a	No	2.623	n/a	n/a	NoResponse	-1	0.0	n/a	2	32	ISIslide	Loss	True
318.521	0.25	Win2	0.6470999999999999	0.0	Yes	2.679	0.021	n/a	GoodResponse	1	n/a	n/a	3	33	Cue	Win	True
318.772	4.0	Win2	0.6470999999999999	0.0	Yes	2.679	0.001	n/a	GoodResponse	1	n/a	n/a	3	33	Fixation	Win	True
322.767	0.18	Win2	0.6470999999999999	0.004	Yes	2.679	-0.004	4.0	GoodResponse	1	0.168	321.935	3	33	Target	Win	True
322.935	0.3	Win2	0.6470999999999999	0.004	Yes	2.679	-0.004	4.0	GoodResponse	1	0.168	n/a	3	33	ButtonPress	Win	True
322.951	0.52	Win2	0.6470999999999999	n/a	Yes	2.679	n/a	n/a	GoodResponse	1	n/a	n/a	3	33	Blank	Win	True
323.469	1.45	Win2	0.6470999999999999	n/a	Yes	2.679	n/a	5.0	GoodResponse	1	0.017	322.486	3	33	Feedback	Win	True
324.923	2.679	Win2	0.6470999999999999	n/a	Yes	2.679	n/a	n/a	GoodResponse	1	0.0	n/a	3	33	ISIslide	Win	True
327.615	0.25	Lose2	0.6570999999999999	0.0	Yes	2.635	0.015	n/a	GoodResponse	0	n/a	n/a	3	34	Cue	AvoidedLoss	True
327.866	4.05	Lose2	0.6570999999999999	0.0	Yes	2.635	0.001	n/a	GoodResponse	0	n/a	n/a	3	34	Fixation	AvoidedLoss	True
331.911	0.19	Lose2	0.6570999999999999	0.004	Yes	2.635	-0.004	4.0	GoodResponse	0	0.182	331.093	3	34	Target	AvoidedLoss	True
332.093	0.3	Lose2	0.6570999999999999	0.004	Yes	2.635	-0.004	4.0	GoodResponse	0	0.182	n/a	3	34	ButtonPress	AvoidedLoss	True
332.112	0.51	Lose2	0.6570999999999999	n/a	Yes	2.635	n/a	n/a	GoodResponse	0	n/a	n/a	3	34	Blank	AvoidedLoss	True
332.613	1.45	Lose2	0.6570999999999999	n/a	Yes	2.635	n/a	5.0	GoodResponse	0	0.044	331.657	3	34	Feedback	AvoidedLoss	True
334.067	2.635	Lose2	0.6570999999999999	n/a	Yes	2.635	n/a	n/a	GoodResponse	0	0.0	n/a	3	34	ISIslide	AvoidedLoss	True
336.725	0.25	Lose2	0.6389	0.001	No	2.675	0.025	n/a	LatePress	-1	n/a	n/a	2	35	Cue	Loss	True
336.976	4.0	Lose2	0.6389	0.0	No	2.675	0.001	n/a	LatePress	-1	n/a	n/a	2	35	Fixation	Loss	True
340.971	0.19	Lose2	0.6389	0.004	No	2.675	-0.004	4.0	LatePress	-1	0.195	340.166	2	35	Target	Loss	True
341.166	0.3	Lose2	0.6389	0.004	No	2.675	-0.004	4.0	LatePress	-1	0.195	n/a	2	35	ButtonPress	Loss	True
341.172	0.51	Lose2	0.6389	n/a	No	2.675	n/a	n/a	LatePress	-1	n/a	n/a	2	35	Blank	Loss	True
341.674	1.45	Lose2	0.6389	n/a	No	2.675	n/a	5.0	LatePress	-1	0.008	340.682	2	35	Feedback	Loss	True
343.128	2.675	Lose2	0.6389	n/a	No	2.675	n/a	4.0	LatePress	-1	1.34	n/a	2	35	ISIslide	Loss	True
345.803	0.25	Control	0.6486	0.0	Yes	2.697	0.003	n/a	GoodResponse	0	n/a	n/a	2	36	Cue	Neutral	True
346.053	4.0	Control	0.6486	0.0	Yes	2.697	0.0	n/a	GoodResponse	0	n/a	n/a	2	36	Fixation	Neutral	True
350.049	0.2	Control	0.6486	0.004	Yes	2.697	-0.004	4.0	GoodResponse	0	0.174	349.223	2	36	Target	Neutral	True
350.223	0.3	Control	0.6486	0.004	Yes	2.697	-0.004	4.0	GoodResponse	0	0.174	n/a	2	36	ButtonPress	Neutral	True
350.249	0.5	Control	0.6486	n/a	Yes	2.697	n/a	n/a	GoodResponse	0	n/a	n/a	2	36	Blank	Neutral	True
350.751	1.45	Control	0.6486	n/a	Yes	2.697	n/a	5.0	GoodResponse	0	0.007	349.758	2	36	Feedback	Neutral	True
352.205	2.697	Control	0.6486	n/a	Yes	2.697	n/a	n/a	GoodResponse	0	0.0	n/a	2	36	ISIslide	Neutral	True
354.93	0.25	Win2	0.6315999999999999	0.0	No	2.87	0.03	n/a	PrematurePress	0	n/a	n/a	2	37	Cue	MissedWin	False
355.181	4.0	Win2	0.6315999999999999	0.0	No	2.87	0.001	4.0	PrematurePress	0	3.79	357.971	2	37	Fixation	MissedWin	False
358.971	0.3	Win2	0.6315999999999999	0.0	No	2.87	0.001	4.0	PrematurePress	0	3.79	n/a	2	37	ButtonPress	MissedWin	False
359.176	0.21	Win2	0.6315999999999999	0.004	No	2.87	-0.004	4.0	PrematurePress	0	0.036	358.212	2	37	Target	MissedWin	False
359.212	0.3	Win2	0.6315999999999999	0.004	No	2.87	-0.004	4.0	PrematurePress	0	0.036	n/a	2	37	ButtonPress	MissedWin	False
359.393	0.49	Win2	0.6315999999999999	n/a	No	2.87	n/a	n/a	PrematurePress	0	n/a	n/a	2	37	Blank	MissedWin	False
359.878	1.45	Win2	0.6315999999999999	n/a	No	2.87	n/a	5.0	PrematurePress	0	0.048	358.926	2	37	Feedback	MissedWin	False
361.333	2.87	Win2	0.6315999999999999	n/a	No	2.87	n/a	n/a	PrematurePress	0	0.0	n/a	2	37	ISIslide	MissedWin	False
364.225	0.25	Lose2	0.6409999999999999	0.0	Yes	2.825	0.025	n/a	GoodResponse	0	n/a	n/a	2	38	Cue	AvoidedLoss	True
364.475	3.95	Lose2	0.6409999999999999	0.0	Yes	2.825	0.0	n/a	GoodResponse	0	n/a	n/a	2	38	Fixation	AvoidedLoss	True
368.437	0.22	Lose2	0.6409999999999999	0.0	Yes	2.825	0.012	4.0	GoodResponse	0	0.21	367.647	2	38	Target	AvoidedLoss	True
368.647	0.3	Lose2	0.6409999999999999	0.0	Yes	2.825	0.012	4.0	GoodResponse	0	0.21	n/a	2	38	ButtonPress	AvoidedLoss	True
368.655	0.48	Lose2	0.6409999999999999	n/a	Yes	2.825	n/a	n/a	GoodResponse	0	n/a	n/a	2	38	Blank	AvoidedLoss	True
369.123	1.45	Lose2	0.6409999999999999	n/a	Yes	2.825	n/a	5.0	GoodResponse	0	0.022	368.145	2	38	Feedback	AvoidedLoss	True
370.577	2.825	Lose2	0.6409999999999999	n/a	Yes	2.825	n/a	n/a	GoodResponse	0	0.0	n/a	2	38	ISIslide	AvoidedLoss	True
373.419	0.25	Win2	0.65	0.0	Yes	2.981	0.019	n/a	GoodResponse	1	n/a	n/a	3	39	Cue	Win	True
373.67	4.1	Win2	0.65	0.0	Yes	2.981	0.001	n/a	GoodResponse	1	n/a	n/a	3	39	Fixation	Win	True
377.765	0.23	Win2	0.65	0.004	Yes	2.981	-0.004	4.0	GoodResponse	1	0.218	376.983	3	39	Target	Win	True
377.983	0.3	Win2	0.65	0.004	Yes	2.981	-0.004	4.0	GoodResponse	1	0.218	n/a	3	39	ButtonPress	Win	True
377.999	0.47	Win2	0.65	n/a	Yes	2.981	n/a	n/a	GoodResponse	1	n/a	n/a	3	39	Blank	Win	True
378.467	1.45	Win2	0.65	n/a	Yes	2.981	n/a	5.0	GoodResponse	1	0.043	377.51	3	39	Feedback	Win	True
379.922	2.981	Win2	0.65	n/a	Yes	2.981	n/a	n/a	GoodResponse	1	0.0	n/a	3	39	ISIslide	Win	True
382.931	0.25	Win2	0.6585	0.0	Yes	2.719	0.031	n/a	GoodResponse	1	n/a	n/a	4	40	Cue	Win	True
383.181	3.95	Win2	0.6585	0.001	Yes	2.719	0.0	n/a	GoodResponse	1	n/a	n/a	4	40	Fixation	Win	True
387.127	0.24	Win2	0.6585	0.004	Yes	2.719	-0.004	4.0	GoodResponse	1	0.206	386.333	4	40	Target	Win	True
387.333	0.3	Win2	0.6585	0.004	Yes	2.719	-0.004	4.0	GoodResponse	1	0.206	n/a	4	40	ButtonPress	Win	True
387.377	0.46	Win2	0.6585	n/a	Yes	2.719	n/a	n/a	GoodResponse	1	n/a	n/a	4	40	Blank	Win	True
387.829	1.45	Win2	0.6585	n/a	Yes	2.719	n/a	5.0	GoodResponse	1	0.047	386.876	4	40	Feedback	Win	True
389.283	2.719	Win2	0.6585	n/a	Yes	2.719	n/a	n/a	GoodResponse	1	0.0	n/a	4	40	ISIslide	Win	True
392.025	0.25	Win2	0.6667000000000001	0.0	Yes	2.775	0.025	n/a	GoodResponse	1	n/a	n/a	5	41	Cue	Win	True
392.275	3.9	Win2	0.6667000000000001	0.001	Yes	2.775	0.0	n/a	GoodResponse	1	n/a	n/a	5	41	Fixation	Win	True
396.187	0.24	Win2	0.6667000000000001	0.0	Yes	2.775	0.012	4.0	GoodResponse	1	0.198	395.385	5	41	Target	Win	True
396.385	0.3	Win2	0.6667000000000001	0.0	Yes	2.775	0.012	4.0	GoodResponse	1	0.198	n/a	5	41	ButtonPress	Win	True
396.421	0.46	Win2	0.6667000000000001	n/a	Yes	2.775	n/a	n/a	GoodResponse	1	n/a	n/a	5	41	Blank	Win	True
396.873	1.45	Win2	0.6667000000000001	n/a	Yes	2.775	n/a	5.0	GoodResponse	1	0.028	395.901	5	41	Feedback	Win	True
398.327	2.775	Win2	0.6667000000000001	n/a	Yes	2.775	n/a	n/a	GoodResponse	1	0.0	n/a	5	41	ISIslide	Win	True
401.119	0.25	Control	0.6512	0.0	No	2.931	0.019	n/a	NoResponse	0	n/a	n/a	5	42	Cue	Neutral	True
401.369	3.85	Control	0.6512	0.0	No	2.931	0.0	n/a	NoResponse	0	n/a	n/a	5	42	Fixation	Neutral	True
405.231	0.23	Control	0.6512	0.0	No	2.931	0.012	4.0	NoResponse	0	0.251	404.482	5	42	Target	Neutral	True
405.448	0.47	Control	0.6512	n/a	No	2.931	n/a	n/a	NoResponse	0	n/a	n/a	5	42	Blank	Neutral	True
405.482	0.3	Control	0.6512	0.0	No	2.931	0.012	4.0	NoResponse	0	0.251	n/a	5	42	ButtonPress	Neutral	True
405.916	1.45	Control	0.6512	n/a	No	2.931	n/a	5.0	NoResponse	0	0.009	404.925	5	42	Feedback	Neutral	True
407.371	2.931	Control	0.6512	n/a	No	2.931	n/a	n/a	NoResponse	0	0.0	n/a	5	42	ISIslide	Neutral	True
410.33	0.25	Win2	0.6364	0.0	No	3.17	0.03	n/a	LatePress	0	n/a	n/a	5	43	Cue	MissedWin	True
410.58	4.0	Win2	0.6364	0.0	No	3.17	0.0	n/a	LatePress	0	n/a	n/a	5	43	Fixation	MissedWin	True
414.576	0.24	Win2	0.6364	0.004	No	3.17	-0.004	4.0	LatePress	0	0.247	413.823	5	43	Target	MissedWin	True
414.823	0.3	Win2	0.6364	0.004	No	3.17	-0.004	4.0	LatePress	0	0.247	n/a	5	43	ButtonPress	MissedWin	True
414.826	0.46	Win2	0.6364	n/a	No	3.17	n/a	n/a	LatePress	0	n/a	n/a	5	43	Blank	MissedWin	True
415.278	1.45	Win2	0.6364	n/a	No	3.17	n/a	5.0	LatePress	0	0.013	414.291	5	43	Feedback	MissedWin	True
416.732	3.17	Win2	0.6364	n/a	No	3.17	n/a	n/a	LatePress	0	0.0	n/a	5	43	ISIslide	MissedWin	True
419.925	0.25	Win2	0.6444	0.0	Yes	2.975	0.025	n/a	GoodResponse	1	n/a	n/a	6	44	Cue	Win	True
420.176	4.0	Win2	0.6444	0.0	Yes	2.975	0.001	n/a	GoodResponse	1	n/a	n/a	6	44	Fixation	Win	True
424.171	0.25	Win2	0.6444	0.004	Yes	2.975	-0.004	4.0	GoodResponse	1	0.186	423.357	6	44	Target	Win	True
424.357	0.3	Win2	0.6444	0.004	Yes	2.975	-0.004	4.0	GoodResponse	1	0.186	n/a	6	44	ButtonPress	Win	True
424.422	0.45	Win2	0.6444	n/a	Yes	2.975	n/a	n/a	GoodResponse	1	n/a	n/a	6	44	Blank	Win	True
424.873	1.45	Win2	0.6444	n/a	Yes	2.975	n/a	5.0	GoodResponse	1	0.028	423.901	6	44	Feedback	Win	True
426.328	2.975	Win2	0.6444	n/a	Yes	2.975	n/a	n/a	GoodResponse	1	0.0	n/a	6	44	ISIslide	Win	True
429.32	0.25	Control	0.6304	0.0	No	2.88	0.02	n/a	NoResponse	0	n/a	n/a	6	45	Cue	Neutral	False
429.571	4.1	Control	0.6304	0.0	No	2.88	0.001	n/a	NoResponse	0	n/a	n/a	6	45	Fixation	Neutral	False
433.666	0.26	Control	0.6304	0.004	No	2.88	-0.004	n/a	NoResponse	0	n/a	n/a	6	45	Target	Neutral	False
433.934	0.44	Control	0.6304	n/a	No	2.88	n/a	n/a	NoResponse	0	n/a	n/a	6	45	Blank	Neutral	False
434.368	1.45	Control	0.6304	n/a	No	2.88	n/a	5.0	NoResponse	0	0.045	433.413	6	45	Feedback	Neutral	False
435.823	2.88	Control	0.6304	n/a	No	2.88	n/a	n/a	NoResponse	0	0.0	n/a	6	45	ISIslide	Neutral	False
438.715	0.25	Lose2	0.6383	0.0	Yes	3.385	0.015	n/a	GoodResponse	0	n/a	n/a	6	46	Cue	AvoidedLoss	True
438.965	4.0	Lose2	0.6383	0.001	Yes	3.385	0.0	n/a	GoodResponse	0	n/a	n/a	6	46	Fixation	AvoidedLoss	True
442.961	0.27	Lose2	0.6383	0.004	Yes	3.385	-0.004	4.0	GoodResponse	0	0.116	442.077	6	46	Target	AvoidedLoss	True
443.077	0.3	Lose2	0.6383	0.004	Yes	3.385	-0.004	4.0	GoodResponse	0	0.116	n/a	6	46	ButtonPress	AvoidedLoss	True
443.245	0.43	Lose2	0.6383	n/a	Yes	3.385	n/a	n/a	GoodResponse	0	n/a	n/a	6	46	Blank	AvoidedLoss	True
443.663	1.45	Lose2	0.6383	n/a	Yes	3.385	n/a	5.0	GoodResponse	0	0.019	442.682	6	46	Feedback	AvoidedLoss	True
445.117	3.385	Lose2	0.6383	n/a	Yes	3.385	n/a	n/a	GoodResponse	0	0.0	n/a	6	46	ISIslide	AvoidedLoss	True
448.527	0.25	Lose2	0.6457999999999999	0.001	Yes	2.673	0.027	n/a	GoodResponse	0	n/a	n/a	6	47	Cue	AvoidedLoss	True
448.778	4.0	Lose2	0.6457999999999999	0.0	Yes	2.673	0.001	n/a	GoodResponse	0	n/a	n/a	6	47	Fixation	AvoidedLoss	True
452.774	0.28	Lose2	0.6457999999999999	0.003	Yes	2.673	-0.003	4.0	GoodResponse	0	0.201	451.975	6	47	Target	AvoidedLoss	True
452.975	0.3	Lose2	0.6457999999999999	0.003	Yes	2.673	-0.003	4.0	GoodResponse	0	0.201	n/a	6	47	ButtonPress	AvoidedLoss	True
453.058	0.42	Lose2	0.6457999999999999	n/a	Yes	2.673	n/a	n/a	GoodResponse	0	n/a	n/a	6	47	Blank	AvoidedLoss	True
453.476	1.45	Lose2	0.6457999999999999	n/a	Yes	2.673	n/a	5.0	GoodResponse	0	0.01	452.486	6	47	Feedback	AvoidedLoss	True
454.93	2.673	Lose2	0.6457999999999999	n/a	Yes	2.673	n/a	n/a	GoodResponse	0	0.0	n/a	6	47	ISIslide	AvoidedLoss	True
457.621	0.25	Lose2	0.6531	0.0	Yes	3.029	0.021	n/a	GoodResponse	0	n/a	n/a	6	48	Cue	AvoidedLoss	True
457.872	3.95	Lose2	0.6531	0.0	Yes	3.029	0.001	n/a	GoodResponse	0	n/a	n/a	6	48	Fixation	AvoidedLoss	True
461.817	0.29	Lose2	0.6531	0.004	Yes	3.029	-0.004	4.0	GoodResponse	0	0.208	461.025	6	48	Target	AvoidedLoss	True
462.025	0.3	Lose2	0.6531	0.004	Yes	3.029	-0.004	4.0	GoodResponse	0	0.208	n/a	6	48	ButtonPress	AvoidedLoss	True
462.118	0.41	Lose2	0.6531	n/a	Yes	3.029	n/a	n/a	GoodResponse	0	n/a	n/a	6	48	Blank	AvoidedLoss	True
462.519	1.45	Lose2	0.6531	n/a	Yes	3.029	n/a	5.0	GoodResponse	0	0.04	461.559	6	48	Feedback	AvoidedLoss	True
463.974	3.029	Lose2	0.6531	n/a	Yes	3.029	n/a	n/a	GoodResponse	0	0.0	n/a	6	48	ISIslide	AvoidedLoss	True
467.016	0.25	Control	0.64	0.0	No	2.884	0.016	n/a	NoResponse	0	n/a	n/a	6	49	Cue	Neutral	False
467.267	4.0	Control	0.64	0.0	No	2.884	0.001	n/a	NoResponse	0	n/a	n/a	6	49	Fixation	Neutral	False
471.262	0.3	Control	0.64	0.004	No	2.884	-0.004	n/a	NoResponse	0	n/a	n/a	6	49	Target	Neutral	False
471.563	0.4	Control	0.64	n/a	No	2.884	n/a	n/a	NoResponse	0	n/a	n/a	6	49	Blank	Neutral	False
471.964	1.45	Control	0.64	n/a	No	2.884	n/a	5.0	NoResponse	0	0.01	470.974	6	49	Feedback	Neutral	False
473.419	2.884	Control	0.64	n/a	No	2.884	n/a	n/a	NoResponse	0	0.0	n/a	6	49	ISIslide	Neutral	False
476.328	0.25	Control	0.6275	0.0	No	2.772	0.028	n/a	NoResponse	0	n/a	n/a	6	50	Cue	Neutral	False
476.578	4.0	Control	0.6275	0.0	No	2.772	0.0	n/a	NoResponse	0	n/a	n/a	6	50	Fixation	Neutral	False
480.574	0.31	Control	0.6275	0.004	No	2.772	-0.004	n/a	NoResponse	0	n/a	n/a	6	50	Target	Neutral	False
480.891	0.39	Control	0.6275	n/a	No	2.772	n/a	n/a	NoResponse	0	n/a	n/a	6	50	Blank	Neutral	False
481.276	1.45	Control	0.6275	n/a	No	2.772	n/a	5.0	NoResponse	0	0.015	480.291	6	50	Feedback	Neutral	False
482.73	2.772	Control	0.6275	n/a	No	2.772	n/a	n/a	NoResponse	0	0.0	n/a	6	50	ISIslide	Neutral	False
485.522	0.25	Control	0.6154	0.0	No	2.728	0.022	n/a	NoResponse	0	n/a	n/a	6	51	Cue	Neutral	False
485.773	3.95	Control	0.6154	0.0	No	2.728	0.001	n/a	NoResponse	0	n/a	n/a	6	51	Fixation	Neutral	False
489.718	0.32	Control	0.6154	0.004	No	2.728	-0.004	n/a	NoResponse	0	n/a	n/a	6	51	Target	Neutral	False
490.052	0.38	Control	0.6154	n/a	No	2.728	n/a	n/a	NoResponse	0	n/a	n/a	6	51	Blank	Neutral	False
490.42	1.45	Control	0.6154	n/a	No	2.728	n/a	5.0	NoResponse	0	0.042	489.462	6	51	Feedback	Neutral	False
491.874	2.728	Control	0.6154	n/a	No	2.728	n/a	n/a	NoResponse	0	0.0	n/a	6	51	ISIslide	Neutral	False
494.616	0.25	Control	0.6038	0.0	No	2.634	0.016	n/a	NoResponse	0	n/a	n/a	6	52	Cue	Neutral	False
494.866	4.05	Control	0.6038	0.001	No	2.634	0.0	n/a	NoResponse	0	n/a	n/a	6	52	Fixation	Neutral	False
498.912	0.33	Control	0.6038	0.004	No	2.634	-0.004	n/a	NoResponse	0	n/a	n/a	6	52	Target	Neutral	False
499.246	0.37	Control	0.6038	n/a	No	2.634	n/a	n/a	NoResponse	0	n/a	n/a	6	52	Blank	Neutral	False
499.614	1.45	Control	0.6038	n/a	No	2.634	n/a	5.0	NoResponse	0	0.018	498.632	6	52	Feedback	Neutral	False
501.068	2.634	Control	0.6038	n/a	No	2.634	n/a	n/a	NoResponse	0	0.0	n/a	6	52	ISIslide	Neutral	False
503.726	0.25	Win2	0.6111	0.0	Yes	2.924	0.026	n/a	GoodResponse	1	n/a	n/a	7	53	Cue	Win	True
503.977	4.05	Win2	0.6111	0.0	Yes	2.924	0.001	n/a	GoodResponse	1	n/a	n/a	7	53	Fixation	Win	True
508.023	0.34	Win2	0.6111	0.003	Yes	2.924	-0.003	4.0	GoodResponse	1	0.218	507.241	7	53	Target	Win	True
508.241	0.3	Win2	0.6111	0.003	Yes	2.924	-0.003	4.0	GoodResponse	1	0.218	n/a	7	53	ButtonPress	Win	True
508.374	0.36	Win2	0.6111	n/a	Yes	2.924	n/a	n/a	GoodResponse	1	n/a	n/a	7	53	Blank	Win	True
508.725	1.45	Win2	0.6111	n/a	Yes	2.924	n/a	5.0	GoodResponse	1	0.029	507.754	7	53	Feedback	Win	True
510.179	2.924	Win2	0.6111	n/a	Yes	2.924	n/a	n/a	GoodResponse	1	0.0	n/a	7	53	ISIslide	Win	True
513.121	0.25	Win2	0.6182	0.0	Yes	2.729	0.021	n/a	GoodResponse	1	n/a	n/a	8	54	Cue	Win	True
513.372	3.95	Win2	0.6182	0.0	Yes	2.729	0.001	n/a	GoodResponse	1	n/a	n/a	8	54	Fixation	Win	True
517.317	0.35	Win2	0.6182	0.004	Yes	2.729	-0.004	4.0	GoodResponse	1	0.232	516.549	8	54	Target	Win	True
517.549	0.3	Win2	0.6182	0.004	Yes	2.729	-0.004	4.0	GoodResponse	1	0.232	n/a	8	54	ButtonPress	Win	True
517.668	0.35	Win2	0.6182	n/a	Yes	2.729	n/a	n/a	GoodResponse	1	n/a	n/a	8	54	Blank	Win	True
518.019	1.45	Win2	0.6182	n/a	Yes	2.729	n/a	5.0	GoodResponse	1	0.006	517.025	8	54	Feedback	Win	True
519.474	2.729	Win2	0.6182	n/a	Yes	2.729	n/a	n/a	GoodResponse	1	0.0	n/a	8	54	ISIslide	Win	True
522.215	0.25	Control	0.6071	0.0	No	3.035	0.015	n/a	NoResponse	0	n/a	n/a	8	55	Cue	Neutral	False
522.466	3.95	Control	0.6071	0.0	No	3.035	0.001	n/a	NoResponse	0	n/a	n/a	8	55	Fixation	Neutral	False
526.411	0.36	Control	0.6071	0.004	No	3.035	-0.004	n/a	NoResponse	0	n/a	n/a	8	55	Target	Neutral	False
526.779	0.34	Control	0.6071	n/a	No	3.035	n/a	n/a	NoResponse	0	n/a	n/a	8	55	Blank	Neutral	False
527.113	1.45	Control	0.6071	n/a	No	3.035	n/a	5.0	NoResponse	0	0.031	526.144	8	55	Feedback	Neutral	False
528.568	3.035	Control	0.6071	n/a	No	3.035	n/a	n/a	NoResponse	0	0.0	n/a	8	55	ISIslide	Neutral	False
531.627	0.25	Control	0.5965	0.0	No	2.823	0.027	n/a	NoResponse	0	n/a	n/a	8	56	Cue	Neutral	False
531.878	3.95	Control	0.5965	0.0	No	2.823	0.001	n/a	NoResponse	0	n/a	n/a	8	56	Fixation	Neutral	False
535.823	0.37	Control	0.5965	0.004	No	2.823	-0.004	n/a	NoResponse	0	n/a	n/a	8	56	Target	Neutral	False
536.207	0.33	Control	0.5965	n/a	No	2.823	n/a	n/a	NoResponse	0	n/a	n/a	8	56	Blank	Neutral	False
536.525	1.45	Control	0.5965	n/a	No	2.823	n/a	5.0	NoResponse	0	0.034	535.559	8	56	Feedback	Neutral	False
537.979	2.823	Control	0.5965	n/a	No	2.823	n/a	n/a	NoResponse	0	0.0	n/a	8	56	ISIslide	Neutral	False
540.821	0.25	Control	0.5861999999999999	0.0	No	3.479	0.021	n/a	NoResponse	0	n/a	n/a	8	57	Cue	Neutral	False
541.072	4.0	Control	0.5861999999999999	0.0	No	3.479	0.001	n/a	NoResponse	0	n/a	n/a	8	57	Fixation	Neutral	False
545.067	0.38	Control	0.5861999999999999	0.004	No	3.479	-0.004	n/a	NoResponse	0	n/a	n/a	8	57	Target	Neutral	False
545.452	0.32	Control	0.5861999999999999	n/a	No	3.479	n/a	n/a	NoResponse	0	n/a	n/a	8	57	Blank	Neutral	False
545.769	1.45	Control	0.5861999999999999	n/a	No	3.479	n/a	5.0	NoResponse	0	0.009	544.778	8	57	Feedback	Neutral	False
547.224	3.479	Control	0.5861999999999999	n/a	No	3.479	n/a	n/a	NoResponse	0	0.0	n/a	8	57	ISIslide	Neutral	False
550.717	0.25	Win2	0.5932	0.0	Yes	2.733	0.017	n/a	GoodResponse	1	n/a	n/a	9	58	Cue	Win	True
550.968	4.05	Win2	0.5932	0.0	Yes	2.733	0.001	n/a	GoodResponse	1	n/a	n/a	9	58	Fixation	Win	True
555.014	0.39	Win2	0.5932	0.003	Yes	2.733	-0.003	4.0	GoodResponse	1	0.192	554.206	9	58	Target	Win	True
555.206	0.3	Win2	0.5932	0.003	Yes	2.733	-0.003	4.0	GoodResponse	1	0.192	n/a	9	58	ButtonPress	Win	True
555.415	0.31	Win2	0.5932	n/a	Yes	2.733	n/a	n/a	GoodResponse	1	n/a	n/a	9	58	Blank	Win	True
555.716	1.45	Win2	0.5932	n/a	Yes	2.733	n/a	5.0	GoodResponse	1	0.014	554.73	9	58	Feedback	Win	True
557.17	2.733	Win2	0.5932	n/a	Yes	2.733	n/a	n/a	GoodResponse	1	0.0	n/a	9	58	ISIslide	Win	True
559.928	0.25	Lose2	0.6	0.0	Yes	2.672	0.028	n/a	GoodResponse	0	n/a	n/a	9	59	Cue	AvoidedLoss	True
560.179	4.0	Lose2	0.6	0.0	Yes	2.672	0.001	n/a	GoodResponse	0	n/a	n/a	9	59	Fixation	AvoidedLoss	True
564.174	0.4	Lose2	0.6	0.004	Yes	2.672	-0.004	4.0	GoodResponse	0	0.205	563.379	9	59	Target	AvoidedLoss	True
564.379	0.3	Lose2	0.6	0.004	Yes	2.672	-0.004	4.0	GoodResponse	0	0.205	n/a	9	59	ButtonPress	AvoidedLoss	True
564.576	0.3	Lose2	0.6	n/a	Yes	2.672	n/a	n/a	GoodResponse	0	n/a	n/a	9	59	Blank	AvoidedLoss	True
564.876	1.45	Lose2	0.6	n/a	Yes	2.672	n/a	5.0	GoodResponse	0	0.024	563.9	9	59	Feedback	AvoidedLoss	True
566.331	2.672	Lose2	0.6	n/a	Yes	2.672	n/a	n/a	GoodResponse	0	0.0	n/a	9	59	ISIslide	AvoidedLoss	True
569.022	0.25	Control	0.5902000000000001	0.0	No	2.678	0.022	n/a	NoResponse	0	n/a	n/a	9	60	Cue	Neutral	False
569.273	4.0	Control	0.5902000000000001	0.0	No	2.678	0.001	n/a	NoResponse	0	n/a	n/a	9	60	Fixation	Neutral	False
573.268	0.41	Control	0.5902000000000001	0.004	No	2.678	-0.004	n/a	NoResponse	0	n/a	n/a	9	60	Target	Neutral	False
573.686	0.29	Control	0.5902000000000001	n/a	No	2.678	n/a	n/a	NoResponse	0	n/a	n/a	9	60	Blank	Neutral	False
573.97	1.45	Control	0.5902000000000001	n/a	No	2.678	n/a	5.0	NoResponse	0	0.008	572.978	9	60	Feedback	Neutral	False
575.425	2.678	Control	0.5902000000000001	n/a	No	2.678	n/a	n/a	NoResponse	0	0.0	n/a	9	60	ISIslide	Neutral	False
578.116	0.25	Lose2	0.5968	0.0	Yes	2.984	0.016	n/a	GoodResponse	0	n/a	n/a	9	61	Cue	AvoidedLoss	True
578.367	4.0	Lose2	0.5968	0.0	Yes	2.984	0.001	n/a	GoodResponse	0	n/a	n/a	9	61	Fixation	AvoidedLoss	True
582.362	0.42	Lose2	0.5968	0.004	Yes	2.984	-0.004	4.0	GoodResponse	0	0.219	581.581	9	61	Target	AvoidedLoss	True
582.581	0.3	Lose2	0.5968	0.004	Yes	2.984	-0.004	4.0	GoodResponse	0	0.219	n/a	9	61	ButtonPress	AvoidedLoss	True
582.797	0.28	Lose2	0.5968	n/a	Yes	2.984	n/a	n/a	GoodResponse	0	n/a	n/a	9	61	Blank	AvoidedLoss	True
583.064	1.45	Lose2	0.5968	n/a	Yes	2.984	n/a	5.0	GoodResponse	0	0.032	582.096	9	61	Feedback	AvoidedLoss	True
584.519	2.984	Lose2	0.5968	n/a	Yes	2.984	n/a	n/a	GoodResponse	0	0.0	n/a	9	61	ISIslide	AvoidedLoss	True
587.528	0.25	Lose2	0.6032	0.0	Yes	2.872	0.028	n/a	GoodResponse	0	n/a	n/a	9	62	Cue	AvoidedLoss	True
587.779	3.9	Lose2	0.6032	0.0	Yes	2.872	0.001	n/a	GoodResponse	0	n/a	n/a	9	62	Fixation	AvoidedLoss	True
591.674	0.43	Lose2	0.6032	0.004	Yes	2.872	-0.004	4.0	GoodResponse	0	0.232	590.906	9	62	Target	AvoidedLoss	True
591.906	0.3	Lose2	0.6032	0.004	Yes	2.872	-0.004	4.0	GoodResponse	0	0.232	n/a	9	62	ButtonPress	AvoidedLoss	True
592.108	0.27	Lose2	0.6032	n/a	Yes	2.872	n/a	n/a	GoodResponse	0	n/a	n/a	9	62	Blank	AvoidedLoss	True
592.376	1.45	Lose2	0.6032	n/a	Yes	2.872	n/a	5.0	GoodResponse	0	0.037	591.413	9	62	Feedback	AvoidedLoss	True
593.83	2.872	Lose2	0.6032	n/a	Yes	2.872	n/a	n/a	GoodResponse	0	0.0	n/a	9	62	ISIslide	AvoidedLoss	True
596.722	0.25	Lose2	0.6093999999999999	0.0	Yes	2.628	0.022	n/a	GoodResponse	0	n/a	n/a	9	63	Cue	AvoidedLoss	True
596.973	4.05	Lose2	0.6093999999999999	0.0	Yes	2.628	0.001	n/a	GoodResponse	0	n/a	n/a	9	63	Fixation	AvoidedLoss	True
601.018	0.44	Lose2	0.6093999999999999	0.004	Yes	2.628	-0.004	4.0	GoodResponse	0	0.176	600.194	9	63	Target	AvoidedLoss	True
601.194	0.3	Lose2	0.6093999999999999	0.004	Yes	2.628	-0.004	4.0	GoodResponse	0	0.176	n/a	9	63	ButtonPress	AvoidedLoss	True
601.47	0.26	Lose2	0.6093999999999999	n/a	Yes	2.628	n/a	n/a	GoodResponse	0	n/a	n/a	9	63	Blank	AvoidedLoss	True
601.72	1.45	Lose2	0.6093999999999999	n/a	Yes	2.628	n/a	5.0	GoodResponse	0	0.009	600.729	9	63	Feedback	AvoidedLoss	True
603.175	2.628	Lose2	0.6093999999999999	n/a	Yes	2.628	n/a	n/a	GoodResponse	0	0.0	n/a	9	63	ISIslide	AvoidedLoss	True
605.816	0.25	Win2	0.6154	0.0	Yes	3.134	0.016	n/a	GoodResponse	1	n/a	n/a	10	64	Cue	Win	True
606.067	4.15	Win2	0.6154	0.0	Yes	3.134	0.001	n/a	GoodResponse	1	n/a	n/a	10	64	Fixation	Win	True
610.213	0.45	Win2	0.6154	0.003	Yes	3.134	-0.003	4.0	GoodResponse	1	0.224	609.437	10	64	Target	Win	True
610.437	0.3	Win2	0.6154	0.003	Yes	3.134	-0.003	4.0	GoodResponse	1	0.224	n/a	10	64	ButtonPress	Win	True
610.664	0.25	Win2	0.6154	n/a	Yes	3.134	n/a	n/a	GoodResponse	1	n/a	n/a	10	64	Blank	Win	True
610.915	1.45	Win2	0.6154	n/a	Yes	3.134	n/a	5.0	GoodResponse	1	0.034	609.949	10	64	Feedback	Win	True
612.369	3.134	Win2	0.6154	n/a	Yes	3.134	n/a	n/a	GoodResponse	1	0.0	n/a	10	64	ISIslide	Win	True
615.528	0.25	Control	0.6061	0.001	No	2.772	0.028	n/a	NoResponse	0	n/a	n/a	10	65	Cue	Neutral	False
615.779	4.0	Control	0.6061	0.0	No	2.772	0.001	n/a	NoResponse	0	n/a	n/a	10	65	Fixation	Neutral	False
619.775	0.46	Control	0.6061	0.003	No	2.772	-0.003	n/a	NoResponse	0	n/a	n/a	10	65	Target	Neutral	False
620.243	0.24	Control	0.6061	n/a	No	2.772	n/a	n/a	NoResponse	0	n/a	n/a	10	65	Blank	Neutral	False
620.477	1.45	Control	0.6061	n/a	No	2.772	n/a	5.0	NoResponse	0	0.033	619.51	10	65	Feedback	Neutral	False
621.931	2.772	Control	0.6061	n/a	No	2.772	n/a	n/a	NoResponse	0	0.0	n/a	10	65	ISIslide	Neutral	False
624.723	0.25	Win2	0.6119	0.0	Yes	2.777	0.023	n/a	GoodResponse	1	n/a	n/a	11	66	Cue	Win	True
624.973	3.9	Win2	0.6119	0.001	Yes	2.777	0.0	n/a	GoodResponse	1	n/a	n/a	11	66	Fixation	Win	True
628.885	0.47	Win2	0.6119	0.0	Yes	2.777	0.012	4.0	GoodResponse	1	0.209	628.094	11	66	Target	Win	True
629.094	0.3	Win2	0.6119	0.0	Yes	2.777	0.012	4.0	GoodResponse	1	0.209	n/a	11	66	ButtonPress	Win	True
629.353	0.23	Win2	0.6119	n/a	Yes	2.777	n/a	n/a	GoodResponse	1	n/a	n/a	11	66	Blank	Win	True
629.571	1.45	Win2	0.6119	n/a	Yes	2.777	n/a	5.0	GoodResponse	1	0.012	628.583	11	66	Feedback	Win	True
631.025	2.777	Win2	0.6119	n/a	Yes	2.777	n/a	n/a	GoodResponse	1	0.0	n/a	11	66	ISIslide	Win	True
633.817	0.25	Control	0.6029	0.0	No	2.733	0.017	n/a	NoResponse	0	n/a	n/a	11	67	Cue	Neutral	False
634.067	3.95	Control	0.6029	0.0	No	2.733	0.0	n/a	NoResponse	0	n/a	n/a	11	67	Fixation	Neutral	False
638.013	0.48	Control	0.6029	0.004	No	2.733	-0.004	n/a	NoResponse	0	n/a	n/a	11	67	Target	Neutral	False
638.497	0.22	Control	0.6029	n/a	No	2.733	n/a	n/a	NoResponse	0	n/a	n/a	11	67	Blank	Neutral	False
638.715	1.45	Control	0.6029	n/a	No	2.733	n/a	5.0	NoResponse	0	0.039	637.754	11	67	Feedback	Neutral	False
640.169	2.733	Control	0.6029	n/a	No	2.733	n/a	n/a	NoResponse	0	0.0	n/a	11	67	ISIslide	Neutral	False
642.927	0.25	Win2	0.6087	0.0	Yes	3.073	0.027	n/a	GoodResponse	1	n/a	n/a	12	68	Cue	Win	True
643.178	4.0	Win2	0.6087	0.0	Yes	3.073	0.001	n/a	GoodResponse	1	n/a	n/a	12	68	Fixation	Win	True
647.173	0.49	Win2	0.6087	0.004	Yes	3.073	-0.004	4.0	GoodResponse	1	0.224	646.397	12	68	Target	Win	True
647.397	0.3	Win2	0.6087	0.004	Yes	3.073	-0.004	4.0	GoodResponse	1	0.224	n/a	12	68	ButtonPress	Win	True
647.675	0.21	Win2	0.6087	n/a	Yes	3.073	n/a	n/a	GoodResponse	1	n/a	n/a	12	68	Blank	Win	True
647.875	1.45	Win2	0.6087	n/a	Yes	3.073	n/a	5.0	GoodResponse	1	0.001	646.876	12	68	Feedback	Win	True
649.33	3.073	Win2	0.6087	n/a	Yes	3.073	n/a	n/a	GoodResponse	1	0.0	n/a	12	68	ISIslide	Win	True
652.422	0.25	Win2	0.6	0.001	No	3.228	0.022	n/a	NoResponse	0	n/a	n/a	12	69	Cue	MissedWin	True
652.673	3.95	Win2	0.6	0.0	No	3.228	0.001	n/a	NoResponse	0	n/a	n/a	12	69	Fixation	MissedWin	True
656.618	0.5	Win2	0.6	0.004	No	3.228	-0.004	4.0	NoResponse	0	0.576	656.194	12	69	Target	MissedWin	True
657.12	0.2	Win2	0.6	n/a	No	3.228	n/a	n/a	NoResponse	0	n/a	n/a	12	69	Blank	MissedWin	True
657.194	0.3	Win2	0.6	0.004	No	3.228	-0.004	4.0	NoResponse	0	0.576	n/a	12	69	ButtonPress	MissedWin	True
657.32	1.45	Win2	0.6	n/a	No	3.228	n/a	5.0	NoResponse	0	0.019	656.339	12	69	Feedback	MissedWin	True
658.775	3.228	Win2	0.6	n/a	No	3.228	n/a	n/a	NoResponse	0	0.0	n/a	12	69	ISIslide	MissedWin	True
662.018	0.25	Lose2	0.6056	0.0	Yes	3.032	0.018	n/a	GoodResponse	0	n/a	n/a	12	70	Cue	AvoidedLoss	True
662.269	4.05	Lose2	0.6056	0.0	Yes	3.032	0.001	n/a	GoodResponse	0	n/a	n/a	12	70	Fixation	AvoidedLoss	True
666.314	0.5	Lose2	0.6056	0.004	Yes	3.032	-0.004	4.0	GoodResponse	0	0.22	665.534	12	70	Target	AvoidedLoss	True
666.534	0.3	Lose2	0.6056	0.004	Yes	3.032	-0.004	4.0	GoodResponse	0	0.22	n/a	12	70	ButtonPress	AvoidedLoss	True
666.816	0.2	Lose2	0.6056	n/a	Yes	3.032	n/a	n/a	GoodResponse	0	n/a	n/a	12	70	Blank	AvoidedLoss	True
667.016	1.45	Lose2	0.6056	n/a	Yes	3.032	n/a	5.0	GoodResponse	0	0.031	666.047	12	70	Feedback	AvoidedLoss	True
668.471	3.032	Lose2	0.6056	n/a	Yes	3.032	n/a	n/a	GoodResponse	0	0.0	n/a	12	70	ISIslide	AvoidedLoss	True
671.53	0.25	Win2	0.6111	0.0	Yes	2.72	0.03	n/a	GoodResponse	1	n/a	n/a	13	71	Cue	Win	True
671.781	4.05	Win2	0.6111	0.0	Yes	2.72	0.001	n/a	GoodResponse	1	n/a	n/a	13	71	Fixation	Win	True
675.826	0.5	Win2	0.6111	0.004	Yes	2.72	-0.004	4.0	GoodResponse	1	0.242	675.068	13	71	Target	Win	True
676.068	0.3	Win2	0.6111	0.004	Yes	2.72	-0.004	4.0	GoodResponse	1	0.242	n/a	13	71	ButtonPress	Win	True
676.327	0.2	Win2	0.6111	n/a	Yes	2.72	n/a	n/a	GoodResponse	1	n/a	n/a	13	71	Blank	Win	True
676.528	1.45	Win2	0.6111	n/a	Yes	2.72	n/a	5.0	GoodResponse	1	0.03	675.558	13	71	Feedback	Win	True
677.982	2.72	Win2	0.6111	n/a	Yes	2.72	n/a	n/a	GoodResponse	1	0.0	n/a	13	71	ISIslide	Win	True
680.724	0.25	Win2	0.6164000000000001	0.0	Yes	2.776	0.024	n/a	GoodResponse	1	n/a	n/a	14	72	Cue	Win	True
680.975	4.1	Win2	0.6164000000000001	0.0	Yes	2.776	0.001	n/a	GoodResponse	1	n/a	n/a	14	72	Fixation	Win	True
685.07	0.5	Win2	0.6164000000000001	0.004	Yes	2.776	-0.004	4.0	GoodResponse	1	0.249	684.319	14	72	Target	Win	True
685.319	0.3	Win2	0.6164000000000001	0.004	Yes	2.776	-0.004	4.0	GoodResponse	1	0.249	n/a	14	72	ButtonPress	Win	True
685.572	0.2	Win2	0.6164000000000001	n/a	Yes	2.776	n/a	n/a	GoodResponse	1	n/a	n/a	14	72	Blank	Win	True
685.773	1.45	Win2	0.6164000000000001	n/a	Yes	2.776	n/a	5.0	GoodResponse	1	0.005	684.778	14	72	Feedback	Win	True
687.227	2.776	Win2	0.6164000000000001	n/a	Yes	2.776	n/a	n/a	GoodResponse	1	0.0	n/a	14	72	ISIslide	Win	True
690.019	0.25	Win2	0.6215999999999999	0.0	Yes	2.681	0.019	n/a	GoodResponse	1	n/a	n/a	15	73	Cue	Win	True
690.269	4.0	Win2	0.6215999999999999	0.0	Yes	2.681	0.0	n/a	GoodResponse	1	n/a	n/a	15	73	Fixation	Win	True
694.265	0.5	Win2	0.6215999999999999	0.004	Yes	2.681	-0.004	4.0	GoodResponse	1	0.205	693.47	15	73	Target	Win	True
694.47	0.3	Win2	0.6215999999999999	0.004	Yes	2.681	-0.004	4.0	GoodResponse	1	0.205	n/a	15	73	ButtonPress	Win	True
694.766	0.2	Win2	0.6215999999999999	n/a	Yes	2.681	n/a	n/a	GoodResponse	1	n/a	n/a	15	73	Blank	Win	True
694.967	1.45	Win2	0.6215999999999999	n/a	Yes	2.681	n/a	5.0	GoodResponse	1	0.03	693.997	15	73	Feedback	Win	True
696.421	2.681	Win2	0.6215999999999999	n/a	Yes	2.681	n/a	n/a	GoodResponse	1	0.0	n/a	15	73	ISIslide	Win	True
699.129	0.25	Lose2	0.6267	0.0	Yes	2.621	0.029	n/a	GoodResponse	0	n/a	n/a	15	74	Cue	AvoidedLoss	True
699.38	4.05	Lose2	0.6267	0.0	Yes	2.621	0.001	n/a	GoodResponse	0	n/a	n/a	15	74	Fixation	AvoidedLoss	True
703.425	0.5	Lose2	0.6267	0.004	Yes	2.621	-0.004	4.0	GoodResponse	0	0.272	702.697	15	74	Target	AvoidedLoss	True
703.697	0.3	Lose2	0.6267	0.004	Yes	2.621	-0.004	4.0	GoodResponse	0	0.272	n/a	15	74	ButtonPress	AvoidedLoss	True
703.927	0.2	Lose2	0.6267	n/a	Yes	2.621	n/a	n/a	GoodResponse	0	n/a	n/a	15	74	Blank	AvoidedLoss	True
704.128	1.45	Lose2	0.6267	n/a	Yes	2.621	n/a	5.0	GoodResponse	0	0.04	703.168	15	74	Feedback	AvoidedLoss	True
705.582	2.621	Lose2	0.6267	n/a	Yes	2.621	n/a	n/a	GoodResponse	0	0.0	n/a	15	74	ISIslide	AvoidedLoss	True
708.223	0.25	Lose2	0.6315999999999999	0.0	Yes	2.927	0.023	n/a	GoodResponse	0	n/a	n/a	15	75	Cue	AvoidedLoss	True
708.474	3.95	Lose2	0.6315999999999999	0.0	Yes	2.927	0.001	n/a	GoodResponse	0	n/a	n/a	15	75	Fixation	AvoidedLoss	True
712.419	0.5	Lose2	0.6315999999999999	0.004	Yes	2.927	-0.004	4.0	GoodResponse	0	0.235	711.654	15	75	Target	AvoidedLoss	True
712.654	0.3	Lose2	0.6315999999999999	0.004	Yes	2.927	-0.004	4.0	GoodResponse	0	0.235	n/a	15	75	ButtonPress	AvoidedLoss	True
712.921	0.2	Lose2	0.6315999999999999	n/a	Yes	2.927	n/a	n/a	GoodResponse	0	n/a	n/a	15	75	Blank	AvoidedLoss	True
713.121	1.45	Lose2	0.6315999999999999	n/a	Yes	2.927	n/a	5.0	GoodResponse	0	0.023	712.144	15	75	Feedback	AvoidedLoss	True
714.576	2.927	Lose2	0.6315999999999999	n/a	Yes	2.927	n/a	n/a	GoodResponse	0	0.0	n/a	15	75	ISIslide	AvoidedLoss	True
717.518	0.25	Control	0.6234000000000001	0.0	No	3.232	0.018	n/a	NoResponse	0	n/a	n/a	15	76	Cue	Neutral	False
717.768	4.05	Control	0.6234000000000001	0.001	No	3.232	0.0	n/a	NoResponse	0	n/a	n/a	15	76	Fixation	Neutral	False
721.814	0.5	Control	0.6234000000000001	0.004	No	3.232	-0.004	n/a	NoResponse	0	n/a	n/a	15	76	Target	Neutral	False
722.315	0.2	Control	0.6234000000000001	n/a	No	3.232	n/a	n/a	NoResponse	0	n/a	n/a	15	76	Blank	Neutral	False
722.516	1.45	Control	0.6234000000000001	n/a	No	3.232	n/a	5.0	NoResponse	0	0.043	721.559	15	76	Feedback	Neutral	False
723.97	3.232	Control	0.6234000000000001	n/a	No	3.232	n/a	n/a	NoResponse	0	0.0	n/a	15	76	ISIslide	Neutral	False
727.23	0.25	Lose2	0.6282	0.0	Yes	2.57	0.03	n/a	GoodResponse	0	n/a	n/a	15	77	Cue	AvoidedLoss	True
727.481	3.95	Lose2	0.6282	0.0	Yes	2.57	0.001	n/a	GoodResponse	0	n/a	n/a	15	77	Fixation	AvoidedLoss	True
731.426	0.5	Lose2	0.6282	0.004	Yes	2.57	-0.004	4.0	GoodResponse	0	0.286	730.712	15	77	Target	AvoidedLoss	True
731.712	0.3	Lose2	0.6282	0.004	Yes	2.57	-0.004	4.0	GoodResponse	0	0.286	n/a	15	77	ButtonPress	AvoidedLoss	True
731.928	0.2	Lose2	0.6282	n/a	Yes	2.57	n/a	n/a	GoodResponse	0	n/a	n/a	15	77	Blank	AvoidedLoss	True
732.128	1.45	Lose2	0.6282	n/a	Yes	2.57	n/a	5.0	GoodResponse	0	0.04	731.168	15	77	Feedback	AvoidedLoss	True
733.583	2.57	Lose2	0.6282	n/a	Yes	2.57	n/a	n/a	GoodResponse	0	0.0	n/a	15	77	ISIslide	AvoidedLoss	True
