onset	duration	cue_type	current_mean_accuracy	duration_error	is_hit	isi_adjusted	onset_delay	response	response_type	reward	rt	rt_time	total_reward	trial_number	trial_phase	trial_type	one_press
11.112	0.25	Control	0.0	0.0	No	2.938	0.012	n/a	NoResponse	0	n/a	n/a	0	0	Cue	Neutral	False
11.362	3.85	Control	0.0	0.001	No	2.938	0.0	n/a	NoResponse	0	n/a	n/a	0	0	Fixation	Neutral	False
15.224	0.4	Control	0.0	0.0	No	2.938	0.012	n/a	NoResponse	0	n/a	n/a	0	0	Target	Neutral	False
15.608	0.3	Control	0.0	n/a	No	2.938	n/a	n/a	NoResponse	0	n/a	n/a	0	0	Blank	Neutral	False
15.909	1.45	Control	0.0	n/a	No	2.938	n/a	5.0	NoResponse	0	0.018	14.927	0	0	Feedback	Neutral	False
17.364	2.938	Control	0.0	n/a	No	2.938	n/a	n/a	NoResponse	0	0.0	n/a	0	0	ISIslide	Neutral	False
20.389	0.25	Lose2	0.0	0.001	No	2.711	0.089	n/a	NoResponse	-1	n/a	n/a	-1	1	Cue	Loss	False
20.64	4.0	Lose2	0.0	0.0	No	2.711	0.001	n/a	NoResponse	-1	n/a	n/a	-1	1	Fixation	Loss	False
24.636	0.41	Lose2	0.0	0.003	No	2.711	-0.003	n/a	NoResponse	-1	n/a	n/a	-1	1	Target	Loss	False
25.053	0.29	Lose2	0.0	n/a	No	2.711	n/a	n/a	NoResponse	-1	n/a	n/a	-1	1	Blank	Loss	False
25.338	1.45	Lose2	0.0	n/a	No	2.711	n/a	5.0	NoResponse	-1	0.004	24.342	-1	1	Feedback	Loss	False
26.792	2.711	Lose2	0.0	n/a	No	2.711	n/a	n/a	NoResponse	-1	0.0	n/a	-1	1	ISIslide	Loss	False
29.517	0.25	Control	0.0	0.0	No	2.583	0.017	n/a	NoResponse	0	n/a	n/a	-1	2	Cue	Neutral	False
29.768	4.1	Control	0.0	0.0	No	2.583	0.001	n/a	NoResponse	0	n/a	n/a	-1	2	Fixation	Neutral	False
33.863	0.42	Control	0.0	0.004	No	2.583	-0.004	n/a	NoResponse	0	n/a	n/a	-1	2	Target	Neutral	False
34.298	0.28	Control	0.0	n/a	No	2.583	n/a	n/a	NoResponse	0	n/a	n/a	-1	2	Blank	Neutral	False
34.565	1.45	Control	0.0	n/a	No	2.583	n/a	5.0	NoResponse	0	0.044	33.609	-1	2	Feedback	Neutral	False
36.02	2.583	Control	0.0	n/a	No	2.583	n/a	n/a	NoResponse	0	0.0	n/a	-1	2	ISIslide	Neutral	False
38.694	0.25	Win2	0.0	0.0	No	2.756	0.094	n/a	NoResponse	0	n/a	n/a	-1	3	Cue	MissedWin	False
38.945	3.95	Win2	0.0	0.0	No	2.756	0.001	n/a	NoResponse	0	n/a	n/a	-1	3	Fixation	MissedWin	False
42.89	0.43	Win2	0.0	0.004	No	2.756	-0.004	n/a	NoResponse	0	n/a	n/a	-1	3	Target	MissedWin	False
43.325	0.27	Win2	0.0	n/a	No	2.756	n/a	n/a	NoResponse	0	n/a	n/a	-1	3	Blank	MissedWin	False
43.592	1.45	Win2	0.0	n/a	No	2.756	n/a	5.0	NoResponse	0	0.041	42.633	-1	3	Feedback	MissedWin	False
45.047	2.756	Win2	0.0	n/a	No	2.756	n/a	n/a	NoResponse	0	0.0	n/a	-1	3	ISIslide	MissedWin	False
47.822	0.25	Win2	0.0	0.0	No	3.278	0.022	n/a	NoResponse	0	n/a	n/a	-1	4	Cue	MissedWin	False
48.072	4.0	Win2	0.0	0.0	No	3.278	0.0	n/a	NoResponse	0	n/a	n/a	-1	4	Fixation	MissedWin	False
52.068	0.44	Win2	0.0	0.004	No	3.278	-0.004	n/a	NoResponse	0	n/a	n/a	-1	4	Target	MissedWin	False
52.519	0.26	Win2	0.0	n/a	No	3.278	n/a	n/a	NoResponse	0	n/a	n/a	-1	4	Blank	MissedWin	False
52.77	1.45	Win2	0.0	n/a	No	3.278	n/a	5.0	NoResponse	0	0.034	51.804	-1	4	Feedback	MissedWin	False
54.224	3.278	Win2	0.0	n/a	No	3.278	n/a	n/a	NoResponse	0	0.0	n/a	-1	4	ISIslide	MissedWin	False
57.517	0.25	Win2	0.0	0.0	No	2.783	0.017	n/a	NoResponse	0	n/a	n/a	-1	5	Cue	MissedWin	False
57.768	4.0	Win2	0.0	0.0	No	2.783	0.001	n/a	NoResponse	0	n/a	n/a	-1	5	Fixation	MissedWin	False
61.763	0.45	Win2	0.0	0.004	No	2.783	-0.004	n/a	NoResponse	0	n/a	n/a	-1	5	Target	MissedWin	False
62.215	0.25	Win2	0.0	n/a	No	2.783	n/a	n/a	NoResponse	0	n/a	n/a	-1	5	Blank	MissedWin	False
62.465	1.45	Win2	0.0	n/a	No	2.783	n/a	5.0	NoResponse	0	0.047	61.512	-1	5	Feedback	MissedWin	False
63.92	2.783	Win2	0.0	n/a	No	2.783	n/a	n/a	NoResponse	0	0.0	n/a	-1	5	ISIslide	MissedWin	False
66.728	0.25	Lose2	0.0	0.0	No	2.722	0.028	n/a	NoResponse	-1	n/a	n/a	-2	6	Cue	Loss	False
66.979	3.95	Lose2	0.0	0.0	No	2.722	0.001	n/a	NoResponse	-1	n/a	n/a	-2	6	Fixation	Loss	False
70.924	0.46	Lose2	0.0	0.004	No	2.722	-0.004	n/a	NoResponse	-1	n/a	n/a	-2	6	Target	Loss	False
71.392	0.24	Lose2	0.0	n/a	No	2.722	n/a	n/a	NoResponse	-1	n/a	n/a	-2	6	Blank	Loss	False
71.626	1.45	Lose2	0.0	n/a	No	2.722	n/a	5.0	NoResponse	-1	0.008	70.634	-2	6	Feedback	Loss	False
73.081	2.722	Lose2	0.0	n/a	No	2.722	n/a	n/a	NoResponse	-1	0.0	n/a	-2	6	ISIslide	Loss	False
75.822	0.25	Lose2	0.0	0.0	No	4.028	0.022	n/a	NoResponse	-1	n/a	n/a	-3	7	Cue	Loss	False
76.073	4.05	Lose2	0.0	0.0	No	4.028	0.001	n/a	NoResponse	-1	n/a	n/a	-3	7	Fixation	Loss	False
80.118	0.47	Lose2	0.0	0.004	No	4.028	-0.004	n/a	NoResponse	-1	n/a	n/a	-3	7	Target	Loss	False
80.603	0.23	Lose2	0.0	n/a	No	4.028	n/a	n/a	NoResponse	-1	n/a	n/a	-3	7	Blank	Loss	False
80.82	1.45	Lose2	0.0	n/a	No	4.028	n/a	5.0	NoResponse	-1	0.032	79.852	-3	7	Feedback	Loss	False
82.275	4.028	Lose2	0.0	n/a	No	4.028	n/a	n/a	NoResponse	-1	0.0	n/a	-3	7	ISIslide	Loss	False
86.32	0.25	Lose2	0.0	0.0	No	3.03	0.02	n/a	NoResponse	-1	n/a	n/a	-4	8	Cue	Loss	False
86.571	3.95	Lose2	0.0	0.0	No	3.03	0.001	n/a	NoResponse	-1	n/a	n/a	-4	8	Fixation	Loss	False
90.516	0.48	Lose2	0.0	0.004	No	3.03	-0.004	n/a	NoResponse	-1	n/a	n/a	-4	8	Target	Loss	False
91.001	0.22	Lose2	0.0	n/a	No	3.03	n/a	n/a	NoResponse	-1	n/a	n/a	-4	8	Blank	Loss	False
91.218	1.45	Lose2	0.0	n/a	No	3.03	n/a	5.0	NoResponse	-1	0.025	90.243	-4	8	Feedback	Loss	False
92.673	3.03	Lose2	0.0	n/a	No	3.03	n/a	n/a	NoResponse	-1	0.0	n/a	-4	8	ISIslide	Loss	False
95.715	0.25	Lose2	0.0	0.0	No	3.135	0.015	n/a	NoResponse	-1	n/a	n/a	-5	9	Cue	Loss	False
95.966	3.95	Lose2	0.0	0.0	No	3.135	0.001	n/a	NoResponse	-1	n/a	n/a	-5	9	Fixation	Loss	False
99.911	0.49	Lose2	0.0	0.004	No	3.135	-0.004	n/a	NoResponse	-1	n/a	n/a	-5	9	Target	Loss	False
100.412	0.21	Lose2	0.0	n/a	No	3.135	n/a	n/a	NoResponse	-1	n/a	n/a	-5	9	Blank	Loss	False
100.613	1.45	Lose2	0.0	n/a	No	3.135	n/a	5.0	NoResponse	-1	0.044	99.657	-5	9	Feedback	Loss	False
102.067	3.135	Lose2	0.0	n/a	No	3.135	n/a	n/a	NoResponse	-1	0.0	n/a	-5	9	ISIslide	Loss	False
105.227	0.25	Control	0.0	0.0	No	3.273	0.027	n/a	NoResponse	0	n/a	n/a	-5	10	Cue	Neutral	False
105.477	4.0	Control	0.0	0.001	No	3.273	0.0	n/a	NoResponse	0	n/a	n/a	-5	10	Fixation	Neutral	False
109.473	0.5	Control	0.0	0.004	No	3.273	-0.004	n/a	NoResponse	0	n/a	n/a	-5	10	Target	Neutral	False
109.974	0.2	Control	0.0	n/a	No	3.273	n/a	n/a	NoResponse	0	n/a	n/a	-5	10	Blank	Neutral	False
110.175	1.45	Control	0.0	n/a	No	3.273	n/a	5.0	NoResponse	0	0.043	109.218	-5	10	Feedback	Neutral	False
111.629	3.273	Control	0.0	n/a	No	3.273	n/a	n/a	NoResponse	0	0.0	n/a	-5	10	ISIslide	Neutral	False
114.922	0.25	Lose2	0.0	0.001	No	2.728	0.022	n/a	NoResponse	-1	n/a	n/a	-6	11	Cue	Loss	False
115.173	4.05	Lose2	0.0	0.0	No	2.728	0.001	n/a	NoResponse	-1	n/a	n/a	-6	11	Fixation	Loss	False
119.219	0.5	Lose2	0.0	0.003	No	2.728	-0.003	n/a	NoResponse	-1	n/a	n/a	-6	11	Target	Loss	False
119.72	0.2	Lose2	0.0	n/a	No	2.728	n/a	n/a	NoResponse	-1	n/a	n/a	-6	11	Blank	Loss	False
119.921	1.45	Lose2	0.0	n/a	No	2.728	n/a	5.0	NoResponse	-1	0.005	118.926	-6	11	Feedback	Loss	False
121.375	2.728	Lose2	0.0	n/a	No	2.728	n/a	n/a	NoResponse	-1	0.0	n/a	-6	11	ISIslide	Loss	False
124.117	0.25	Control	0.0	0.0	No	2.983	0.017	n/a	NoResponse	0	n/a	n/a	-6	12	Cue	Neutral	False
124.367	3.9	Control	0.0	0.0	No	2.983	0.0	n/a	NoResponse	0	n/a	n/a	-6	12	Fixation	Neutral	False
128.279	0.5	Control	0.0	0.0	No	2.983	0.012	n/a	NoResponse	0	n/a	n/a	-6	12	Target	Neutral	False
128.764	0.2	Control	0.0	n/a	No	2.983	n/a	n/a	NoResponse	0	n/a	n/a	-6	12	Blank	Neutral	False
128.964	1.45	Control	0.0	n/a	No	2.983	n/a	5.0	NoResponse	0	0.034	127.998	-6	12	Feedback	Neutral	False
130.419	2.983	Control	0.0	n/a	No	2.983	n/a	n/a	NoResponse	0	0.0	n/a	-6	12	ISIslide	Neutral	False
133.428	0.25	Control	0.0	0.0	No	2.772	0.028	n/a	NoResponse	0	n/a	n/a	-6	13	Cue	Neutral	False
133.679	4.0	Control	0.0	0.0	No	2.772	0.001	n/a	NoResponse	0	n/a	n/a	-6	13	Fixation	Neutral	False
137.674	0.5	Control	0.0	0.004	No	2.772	-0.004	n/a	NoResponse	0	n/a	n/a	-6	13	Target	Neutral	False
138.175	0.2	Control	0.0	n/a	No	2.772	n/a	n/a	NoResponse	0	n/a	n/a	-6	13	Blank	Neutral	False
138.376	1.45	Control	0.0	n/a	No	2.772	n/a	5.0	NoResponse	0	0.037	137.413	-6	13	Feedback	Neutral	False
139.83	2.772	Control	0.0	n/a	No	2.772	n/a	n/a	NoResponse	0	0.0	n/a	-6	13	ISIslide	Neutral	False
142.622	0.25	Win2	0.0	0.0	No	2.678	0.022	n/a	NoResponse	0	n/a	n/a	-6	14	Cue	MissedWin	False
142.873	4.1	Win2	0.0	0.0	No	2.678	0.001	n/a	NoResponse	0	n/a	n/a	-6	14	Fixation	MissedWin	False
146.968	0.5	Win2	0.0	0.004	No	2.678	-0.004	n/a	NoResponse	0	n/a	n/a	-6	14	Target	MissedWin	False
147.47	0.2	Win2	0.0	n/a	No	2.678	n/a	n/a	NoResponse	0	n/a	n/a	-6	14	Blank	MissedWin	False
147.67	1.45	Win2	0.0	n/a	No	2.678	n/a	5.0	NoResponse	0	0.011	146.681	-6	14	Feedback	MissedWin	False
149.125	2.678	Win2	0.0	n/a	No	2.678	n/a	n/a	NoResponse	0	0.0	n/a	-6	14	ISIslide	MissedWin	False
151.816	0.25	Control	0.0	0.0	No	2.984	0.016	n/a	NoResponse	0	n/a	n/a	-6	15	Cue	Neutral	False
152.067	4.0	Control	0.0	0.0	No	2.984	0.001	n/a	NoResponse	0	n/a	n/a	-6	15	Fixation	Neutral	False
156.062	0.5	Control	0.0	0.004	No	2.984	-0.004	n/a	NoResponse	0	n/a	n/a	-6	15	Target	Neutral	False
156.564	0.2	Control	0.0	n/a	No	2.984	n/a	n/a	NoResponse	0	n/a	n/a	-6	15	Blank	Neutral	False
156.764	1.45	Control	0.0	n/a	No	2.984	n/a	5.0	NoResponse	0	0.039	155.803	-6	15	Feedback	Neutral	False
158.219	2.984	Control	0.0	n/a	No	2.984	n/a	n/a	NoResponse	0	0.0	n/a	-6	15	ISIslide	Neutral	False
161.228	0.25	Win2	0.0	0.0	No	2.872	0.028	n/a	NoResponse	0	n/a	n/a	-6	16	Cue	MissedWin	False
161.478	4.0	Win2	0.0	0.001	No	2.872	0.0	n/a	NoResponse	0	n/a	n/a	-6	16	Fixation	MissedWin	False
165.474	0.5	Win2	0.0	0.004	No	2.872	-0.004	n/a	NoResponse	0	n/a	n/a	-6	16	Target	MissedWin	False
165.975	0.2	Win2	0.0	n/a	No	2.872	n/a	n/a	NoResponse	0	n/a	n/a	-6	16	Blank	MissedWin	False
166.176	1.45	Win2	0.0	n/a	No	2.872	n/a	5.0	NoResponse	0	0.042	165.218	-6	16	Feedback	MissedWin	False
167.63	2.872	Win2	0.0	n/a	No	2.872	n/a	n/a	NoResponse	0	0.0	n/a	-6	16	ISIslide	MissedWin	False
170.522	0.25	Lose2	0.0	0.0	No	2.728	0.022	n/a	NoResponse	-1	n/a	n/a	-7	17	Cue	Loss	False
170.773	3.95	Lose2	0.0	0.0	No	2.728	0.001	n/a	NoResponse	-1	n/a	n/a	-7	17	Fixation	Loss	False
174.718	0.5	Lose2	0.0	0.004	No	2.728	-0.004	n/a	NoResponse	-1	n/a	n/a	-7	17	Target	Loss	False
175.22	0.2	Lose2	0.0	n/a	No	2.728	n/a	n/a	NoResponse	-1	n/a	n/a	-7	17	Blank	Loss	False
175.42	1.45	Lose2	0.0	n/a	No	2.728	n/a	5.0	NoResponse	-1	0.018	174.438	-7	17	Feedback	Loss	False
176.875	2.728	Lose2	0.0	n/a	No	2.728	n/a	n/a	NoResponse	-1	0.0	n/a	-7	17	ISIslide	Loss	False
179.616	0.25	Lose2	0.0	0.0	No	2.734	0.016	n/a	NoResponse	-1	n/a	n/a	-8	18	Cue	Loss	False
179.867	4.05	Lose2	0.0	0.0	No	2.734	0.001	n/a	NoResponse	-1	n/a	n/a	-8	18	Fixation	Loss	False
183.912	0.5	Lose2	0.0	0.004	No	2.734	-0.004	n/a	NoResponse	-1	n/a	n/a	-8	18	Target	Loss	False
184.414	0.2	Lose2	0.0	n/a	No	2.734	n/a	n/a	NoResponse	-1	n/a	n/a	-8	18	Blank	Loss	False
184.614	1.45	Lose2	0.0	n/a	No	2.734	n/a	5.0	NoResponse	-1	0.042	183.656	-8	18	Feedback	Loss	False
186.069	2.734	Lose2	0.0	n/a	No	2.734	n/a	n/a	NoResponse	-1	0.0	n/a	-8	18	ISIslide	Loss	False
188.827	0.25	Control	0.0	0.0	No	2.923	0.027	n/a	NoResponse	0	n/a	n/a	-8	19	Cue	Neutral	False
189.078	3.95	Control	0.0	0.0	No	2.923	0.001	n/a	NoResponse	0	n/a	n/a	-8	19	Fixation	Neutral	False
193.023	0.5	Control	0.0	0.004	No	2.923	-0.004	n/a	NoResponse	0	n/a	n/a	-8	19	Target	Neutral	False
193.524	0.2	Control	0.0	n/a	No	2.923	n/a	n/a	NoResponse	0	n/a	n/a	-8	19	Blank	Neutral	False
193.725	1.45	Control	0.0	n/a	No	2.923	n/a	5.0	NoResponse	0	0.005	192.73	-8	19	Feedback	Neutral	False
195.179	2.923	Control	0.0	n/a	No	2.923	n/a	n/a	NoResponse	0	0.0	n/a	-8	19	ISIslide	Neutral	False
198.121	0.25	Control	0.0	0.001	No	2.629	0.021	n/a	NoResponse	0	n/a	n/a	-8	20	Cue	Neutral	False
198.372	4.05	Control	0.0	0.0	No	2.629	0.001	n/a	NoResponse	0	n/a	n/a	-8	20	Fixation	Neutral	False
202.418	0.5	Control	0.0	0.003	No	2.629	-0.003	n/a	NoResponse	0	n/a	n/a	-8	20	Target	Neutral	False
202.919	0.2	Control	0.0	n/a	No	2.629	n/a	n/a	NoResponse	0	n/a	n/a	-8	20	Blank	Neutral	False
203.12	1.45	Control	0.0	n/a	No	2.629	n/a	5.0	NoResponse	0	0.024	202.144	-8	20	Feedback	Neutral	False
204.574	2.629	Control	0.0	n/a	No	2.629	n/a	n/a	NoResponse	0	0.0	n/a	-8	20	ISIslide	Neutral	False
207.215	0.25	Control	0.0	0.0	No	2.785	0.015	n/a	NoResponse	0	n/a	n/a	-8	21	Cue	Neutral	False
207.466	4.1	Control	0.0	0.0	No	2.785	0.001	n/a	NoResponse	0	n/a	n/a	-8	21	Fixation	Neutral	False
211.562	0.5	Control	0.0	0.003	No	2.785	-0.003	n/a	NoResponse	0	n/a	n/a	-8	21	Target	Neutral	False
212.063	0.2	Control	0.0	n/a	No	2.785	n/a	n/a	NoResponse	0	n/a	n/a	-8	21	Blank	Neutral	False
212.264	1.45	Control	0.0	n/a	No	2.785	n/a	5.0	NoResponse	0	0.005	211.269	-8	21	Feedback	Neutral	False
213.718	2.785	Control	0.0	n/a	No	2.785	n/a	n/a	NoResponse	0	0.0	n/a	-8	21	ISIslide	Neutral	False
216.527	0.25	Control	0.0	0.0	No	2.773	0.027	n/a	NoResponse	0	n/a	n/a	-8	22	Cue	Neutral	False
216.777	4.0	Control	0.0	0.0	No	2.773	0.0	n/a	NoResponse	0	n/a	n/a	-8	22	Fixation	Neutral	False
220.773	0.5	Control	0.0	0.004	No	2.773	-0.004	n/a	NoResponse	0	n/a	n/a	-8	22	Target	Neutral	False
221.274	0.2	Control	0.0	n/a	No	2.773	n/a	n/a	NoResponse	0	n/a	n/a	-8	22	Blank	Neutral	False
221.475	1.45	Control	0.0	n/a	No	2.773	n/a	5.0	NoResponse	0	0.011	220.486	-8	22	Feedback	Neutral	False
222.929	2.773	Control	0.0	n/a	No	2.773	n/a	n/a	NoResponse	0	0.0	n/a	-8	22	ISIslide	Neutral	False
225.721	0.25	Control	0.0	0.0	No	2.779	0.021	n/a	NoResponse	0	n/a	n/a	-8	23	Cue	Neutral	False
225.972	3.9	Control	0.0	0.0	No	2.779	0.001	n/a	NoResponse	0	n/a	n/a	-8	23	Fixation	Neutral	False
229.866	0.5	Control	0.0	0.005	No	2.779	-0.005	n/a	NoResponse	0	n/a	n/a	-8	23	Target	Neutral	False
230.368	0.2	Control	0.0	n/a	No	2.779	n/a	n/a	NoResponse	0	n/a	n/a	-8	23	Blank	Neutral	False
230.569	1.45	Control	0.0	n/a	No	2.779	n/a	5.0	NoResponse	0	0.038	229.607	-8	23	Feedback	Neutral	False
232.023	2.779	Control	0.0	n/a	No	2.779	n/a	n/a	NoResponse	0	0.0	n/a	-8	23	ISIslide	Neutral	False
234.815	0.25	Win2	0.0	0.0	No	3.135	0.015	n/a	NoResponse	0	n/a	n/a	-8	24	Cue	MissedWin	False
235.065	3.95	Win2	0.0	0.0	No	3.135	0.0	n/a	NoResponse	0	n/a	n/a	-8	24	Fixation	MissedWin	False
239.011	0.5	Win2	0.0	0.004	No	3.135	-0.004	n/a	NoResponse	0	n/a	n/a	-8	24	Target	MissedWin	False
239.512	0.2	Win2	0.0	n/a	No	3.135	n/a	n/a	NoResponse	0	n/a	n/a	-8	24	Blank	MissedWin	False
239.713	1.45	Win2	0.0	n/a	No	3.135	n/a	5.0	NoResponse	0	0.016	238.729	-8	24	Feedback	MissedWin	False
241.167	3.135	Win2	0.0	n/a	No	3.135	n/a	n/a	NoResponse	0	0.0	n/a	-8	24	ISIslide	MissedWin	False
244.326	0.25	Win2	0.0	0.001	No	3.074	0.026	n/a	NoResponse	0	n/a	n/a	-8	25	Cue	MissedWin	False
244.577	4.0	Win2	0.0	0.0	No	3.074	0.001	n/a	NoResponse	0	n/a	n/a	-8	25	Fixation	MissedWin	False
248.572	0.5	Win2	0.0	0.004	No	3.074	-0.004	n/a	NoResponse	0	n/a	n/a	-8	25	Target	MissedWin	False
249.074	0.2	Win2	0.0	n/a	No	3.074	n/a	n/a	NoResponse	0	n/a	n/a	-8	25	Blank	MissedWin	False
249.275	1.45	Win2	0.0	n/a	No	3.074	n/a	5.0	NoResponse	0	0.015	248.29	-8	25	Feedback	MissedWin	False
250.729	3.074	Win2	0.0	n/a	No	3.074	n/a	n/a	NoResponse	0	0.0	n/a	-8	25	ISIslide	MissedWin	False
253.822	0.25	Win2	0.0	0.0	No	2.928	0.022	n/a	NoResponse	0	n/a	n/a	-8	26	Cue	MissedWin	False
254.072	3.95	Win2	0.0	0.0	No	2.928	0.0	n/a	NoResponse	0	n/a	n/a	-8	26	Fixation	MissedWin	False
258.034	0.5	Win2	0.0	0.0	No	2.928	0.012	n/a	NoResponse	0	n/a	n/a	-8	26	Target	MissedWin	False
258.519	0.2	Win2	0.0	n/a	No	2.928	n/a	n/a	NoResponse	0	n/a	n/a	-8	26	Blank	MissedWin	False
258.72	1.45	Win2	0.0	n/a	No	2.928	n/a	5.0	NoResponse	0	0.034	257.754	-8	26	Feedback	MissedWin	False
260.174	2.928	Win2	0.0	n/a	No	2.928	n/a	n/a	NoResponse	0	0.0	n/a	-8	26	ISIslide	MissedWin	False
263.116	0.25	Lose2	0.0	0.0	No	2.834	0.016	n/a	NoResponse	-1	n/a	n/a	-9	27	Cue	Loss	False
263.367	4.05	Lose2	0.0	0.0	No	2.834	0.001	n/a	NoResponse	-1	n/a	n/a	-9	27	Fixation	Loss	False
267.412	0.5	Lose2	0.0	0.004	No	2.834	-0.004	n/a	NoResponse	-1	n/a	n/a	-9	27	Target	Loss	False
267.914	0.2	Lose2	0.0	n/a	No	2.834	n/a	n/a	NoResponse	-1	n/a	n/a	-9	27	Blank	Loss	False
268.114	1.45	Lose2	0.0	n/a	No	2.834	n/a	5.0	NoResponse	-1	0.006	267.12	-9	27	Feedback	Loss	False
269.569	2.834	Lose2	0.0	n/a	No	2.834	n/a	n/a	NoResponse	-1	0.0	n/a	-9	27	ISIslide	Loss	False
272.427	0.25	Control	0.0	0.0	No	2.823	0.027	n/a	NoResponse	0	n/a	n/a	-9	28	Cue	Neutral	False
272.678	4.05	Control	0.0	0.0	No	2.823	0.001	n/a	NoResponse	0	n/a	n/a	-9	28	Fixation	Neutral	False
276.723	0.5	Control	0.0	0.004	No	2.823	-0.004	n/a	NoResponse	0	n/a	n/a	-9	28	Target	Neutral	False
277.225	0.2	Control	0.0	n/a	No	2.823	n/a	n/a	NoResponse	0	n/a	n/a	-9	28	Blank	Neutral	False
277.426	1.45	Control	0.0	n/a	No	2.823	n/a	5.0	NoResponse	0	0.011	276.437	-9	28	Feedback	Neutral	False
278.88	2.823	Control	0.0	n/a	No	2.823	n/a	n/a	NoResponse	0	0.0	n/a	-9	28	ISIslide	Neutral	False
281.722	0.25	Lose2	0.0	0.0	No	2.828	0.022	n/a	NoResponse	-1	n/a	n/a	-10	29	Cue	Loss	False
281.972	3.95	Lose2	0.0	0.001	No	2.828	0.0	n/a	NoResponse	-1	n/a	n/a	-10	29	Fixation	Loss	False
285.918	0.5	Lose2	0.0	0.004	No	2.828	-0.004	n/a	NoResponse	-1	n/a	n/a	-10	29	Target	Loss	False
286.419	0.2	Lose2	0.0	n/a	No	2.828	n/a	n/a	NoResponse	-1	n/a	n/a	-10	29	Blank	Loss	False
286.62	1.45	Lose2	0.0	n/a	No	2.828	n/a	5.0	NoResponse	-1	0.035	285.655	-10	29	Feedback	Loss	False
288.074	2.828	Lose2	0.0	n/a	No	2.828	n/a	n/a	NoResponse	-1	0.0	n/a	-10	29	ISIslide	Loss	False
290.916	0.25	Win2	0.0	0.0	No	2.784	0.016	n/a	NoResponse	0	n/a	n/a	-10	30	Cue	MissedWin	False
291.167	3.9	Win2	0.0	0.0	No	2.784	0.001	n/a	NoResponse	0	n/a	n/a	-10	30	Fixation	MissedWin	False
295.062	0.5	Win2	0.0	0.004	No	2.784	-0.004	n/a	NoResponse	0	n/a	n/a	-10	30	Target	MissedWin	False
295.563	0.2	Win2	0.0	n/a	No	2.784	n/a	n/a	NoResponse	0	n/a	n/a	-10	30	Blank	MissedWin	False
295.764	1.45	Win2	0.0	n/a	No	2.784	n/a	5.0	NoResponse	0	0.013	294.777	-10	30	Feedback	MissedWin	False
297.218	2.784	Win2	0.0	n/a	No	2.784	n/a	n/a	NoResponse	0	0.0	n/a	-10	30	ISIslide	MissedWin	False
300.027	0.25	Lose2	0.0	0.0	No	2.823	0.027	n/a	NoResponse	-1	n/a	n/a	-11	31	Cue	Loss	False
300.277	4.05	Lose2	0.0	0.0	No	2.823	0.0	n/a	NoResponse	-1	n/a	n/a	-11	31	Fixation	Loss	False
304.323	0.5	Lose2	0.0	0.004	No	2.823	-0.004	n/a	NoResponse	-1	n/a	n/a	-11	31	Target	Loss	False
304.824	0.2	Lose2	0.0	n/a	No	2.823	n/a	n/a	NoResponse	-1	n/a	n/a	-11	31	Blank	Loss	False
305.025	1.45	Lose2	0.0	n/a	No	2.823	n/a	5.0	NoResponse	-1	0.021	304.046	-11	31	Feedback	Loss	False
306.479	2.823	Lose2	0.0	n/a	No	2.823	n/a	n/a	NoResponse	-1	0.0	n/a	-11	31	ISIslide	Loss	False
309.321	0.25	Lose2	0.0	0.0	No	2.629	0.021	n/a	NoResponse	-1	n/a	n/a	-12	32	Cue	Loss	False
309.572	4.15	Lose2	0.0	0.0	No	2.629	0.001	n/a	NoResponse	-1	n/a	n/a	-12	32	Fixation	Loss	False
313.717	0.5	Lose2	0.0	0.004	No	2.629	-0.004	n/a	NoResponse	-1	n/a	n/a	-12	32	Target	Loss	False
314.219	0.2	Lose2	0.0	n/a	No	2.629	n/a	n/a	NoResponse	-1	n/a	n/a	-12	32	Blank	Loss	False
314.42	1.45	Lose2	0.0	n/a	No	2.629	n/a	5.0	NoResponse	-1	0.04	313.46	-12	32	Feedback	Loss	False
315.874	2.629	Lose2	0.0	n/a	No	2.629	n/a	n/a	NoResponse	-1	0.0	n/a	-12	32	ISIslide	Loss	False
318.515	0.25	Win2	0.0	0.0	No	2.685	0.015	n/a	NoResponse	0	n/a	n/a	-12	33	Cue	MissedWin	False
318.766	4.0	Win2	0.0	0.0	No	2.685	0.001	n/a	NoResponse	0	n/a	n/a	-12	33	Fixation	MissedWin	False
322.761	0.5	Win2	0.0	0.004	No	2.685	-0.004	n/a	NoResponse	0	n/a	n/a	-12	33	Target	MissedWin	False
323.263	0.2	Win2	0.0	n/a	No	2.685	n/a	n/a	NoResponse	0	n/a	n/a	-12	33	Blank	MissedWin	False
323.463	1.45	Win2	0.0	n/a	No	2.685	n/a	5.0	NoResponse	0	0.022	322.485	-12	33	Feedback	MissedWin	False
324.918	2.685	Win2	0.0	n/a	No	2.685	n/a	n/a	NoResponse	0	0.0	n/a	-12	33	ISIslide	MissedWin	False
327.626	0.25	Lose2	0.0	0.0	No	2.624	0.026	n/a	NoResponse	-1	n/a	n/a	-13	34	Cue	Loss	False
327.877	4.05	Lose2	0.0	0.0	No	2.624	0.001	n/a	NoResponse	-1	n/a	n/a	-13	34	Fixation	Loss	False
331.922	0.5	Lose2	0.0	0.004	No	2.624	-0.004	n/a	NoResponse	-1	n/a	n/a	-13	34	Target	Loss	False
332.423	0.2	Lose2	0.0	n/a	No	2.624	n/a	n/a	NoResponse	-1	n/a	n/a	-13	34	Blank	Loss	False
332.624	1.45	Lose2	0.0	n/a	No	2.624	n/a	5.0	NoResponse	-1	0.031	331.655	-13	34	Feedback	Loss	False
334.078	2.624	Lose2	0.0	n/a	No	2.624	n/a	n/a	NoResponse	-1	0.0	n/a	-13	34	ISIslide	Loss	False
336.72	0.25	Lose2	0.0	0.0	No	2.68	0.02	n/a	NoResponse	-1	n/a	n/a	-14	35	Cue	Loss	False
336.97	4.0	Lose2	0.0	0.001	No	2.68	0.0	n/a	NoResponse	-1	n/a	n/a	-14	35	Fixation	Loss	False
340.966	0.5	Lose2	0.0	0.004	No	2.68	-0.004	n/a	NoResponse	-1	n/a	n/a	-14	35	Target	Loss	False
341.467	0.2	Lose2	0.0	n/a	No	2.68	n/a	n/a	NoResponse	-1	n/a	n/a	-14	35	Blank	Loss	False
341.668	1.45	Lose2	0.0	n/a	No	2.68	n/a	5.0	NoResponse	-1	0.011	340.679	-14	35	Feedback	Loss	False
343.122	2.68	Lose2	0.0	n/a	No	2.68	n/a	n/a	NoResponse	-1	0.0	n/a	-14	35	ISIslide	Loss	False
345.814	0.25	Control	0.0	0.0	No	2.686	0.014	n/a	NoResponse	0	n/a	n/a	-14	36	Cue	Neutral	False
346.064	4.0	Control	0.0	0.0	No	2.686	0.0	n/a	NoResponse	0	n/a	n/a	-14	36	Fixation	Neutral	False
350.06	0.5	Control	0.0	0.004	No	2.686	-0.004	n/a	NoResponse	0	n/a	n/a	-14	36	Target	Neutral	False
350.561	0.2	Control	0.0	n/a	No	2.686	n/a	n/a	NoResponse	0	n/a	n/a	-14	36	Blank	Neutral	False
350.762	1.45	Control	0.0	n/a	No	2.686	n/a	5.0	NoResponse	0	0.039	349.801	-14	36	Feedback	Neutral	False
352.216	2.686	Control	0.0	n/a	No	2.686	n/a	n/a	NoResponse	0	0.0	n/a	-14	36	ISIslide	Neutral	False
354.924	0.25	Win2	0.0	0.0	No	2.876	0.024	n/a	NoResponse	0	n/a	n/a	-14	37	Cue	MissedWin	False
355.175	4.0	Win2	0.0	0.0	No	2.876	0.001	n/a	NoResponse	0	n/a	n/a	-14	37	Fixation	MissedWin	False
359.17	0.5	Win2	0.0	0.004	No	2.876	-0.004	n/a	NoResponse	0	n/a	n/a	-14	37	Target	MissedWin	False
359.672	0.2	Win2	0.0	n/a	No	2.876	n/a	n/a	NoResponse	0	n/a	n/a	-14	37	Blank	MissedWin	False
359.872	1.45	Win2	0.0	n/a	No	2.876	n/a	5.0	NoResponse	0	0.005	358.877	-14	37	Feedback	MissedWin	False
361.327	2.876	Win2	0.0	n/a	No	2.876	n/a	n/a	NoResponse	0	0.0	n/a	-14	37	ISIslide	MissedWin	False
364.219	0.25	Lose2	0.0	0.0	No	2.831	0.019	n/a	NoResponse	-1	n/a	n/a	-15	38	Cue	Loss	False
364.469	3.95	Lose2	0.0	0.0	No	2.831	0.0	n/a	NoResponse	-1	n/a	n/a	-15	38	Fixation	Loss	False
368.415	0.5	Lose2	0.0	0.004	No	2.831	-0.004	n/a	NoResponse	-1	n/a	n/a	-15	38	Target	Loss	False
368.916	0.2	Lose2	0.0	n/a	No	2.831	n/a	n/a	NoResponse	-1	n/a	n/a	-15	38	Blank	Loss	False
369.117	1.45	Lose2	0.0	n/a	No	2.831	n/a	5.0	NoResponse	-1	0.026	368.143	-15	38	Feedback	Loss	False
370.571	2.831	Lose2	0.0	n/a	No	2.831	n/a	n/a	NoResponse	-1	0.0	n/a	-15	38	ISIslide	Loss	False
373.43	0.25	Win2	0.0	0.0	No	2.97	0.03	n/a	NoResponse	0	n/a	n/a	-15	39	Cue	MissedWin	False
373.68	4.1	Win2	0.0	0.0	No	2.97	0.0	n/a	NoResponse	0	n/a	n/a	-15	39	Fixation	MissedWin	False
377.776	0.5	Win2	0.0	0.004	No	2.97	-0.004	n/a	NoResponse	0	n/a	n/a	-15	39	Target	MissedWin	False
378.277	0.2	Win2	0.0	n/a	No	2.97	n/a	n/a	NoResponse	0	n/a	n/a	-15	39	Blank	MissedWin	False
378.478	1.45	Win2	0.0	n/a	No	2.97	n/a	5.0	NoResponse	0	0.031	377.509	-15	39	Feedback	MissedWin	False
379.932	2.97	Win2	0.0	n/a	No	2.97	n/a	n/a	NoResponse	0	0.0	n/a	-15	39	ISIslide	MissedWin	False
382.925	0.25	Win2	0.0	0.0	No	2.725	0.025	n/a	NoResponse	0	n/a	n/a	-15	40	Cue	MissedWin	False
383.175	3.95	Win2	0.0	0.0	No	2.725	0.0	n/a	NoResponse	0	n/a	n/a	-15	40	Fixation	MissedWin	False
387.121	0.5	Win2	0.0	0.004	No	2.725	-0.004	n/a	NoResponse	0	n/a	n/a	-15	40	Target	MissedWin	False
387.622	0.2	Win2	0.0	n/a	No	2.725	n/a	n/a	NoResponse	0	n/a	n/a	-15	40	Blank	MissedWin	False
387.823	1.45	Win2	0.0	n/a	No	2.725	n/a	5.0	NoResponse	0	0.005	386.828	-15	40	Feedback	MissedWin	False
389.277	2.725	Win2	0.0	n/a	No	2.725	n/a	n/a	NoResponse	0	0.0	n/a	-15	40	ISIslide	MissedWin	False
392.019	0.25	Win2	0.0	0.0	No	2.781	0.019	n/a	NoResponse	0	n/a	n/a	-15	41	Cue	MissedWin	False
392.269	3.9	Win2	0.0	0.0	No	2.781	0.0	n/a	NoResponse	0	n/a	n/a	-15	41	Fixation	MissedWin	False
396.181	0.5	Win2	0.0	0.0	No	2.781	0.012	n/a	NoResponse	0	n/a	n/a	-15	41	Target	MissedWin	False
396.666	0.2	Win2	0.0	n/a	No	2.781	n/a	n/a	NoResponse	0	n/a	n/a	-15	41	Blank	MissedWin	False
396.866	1.45	Win2	0.0	n/a	No	2.781	n/a	5.0	NoResponse	0	0.032	395.898	-15	41	Feedback	MissedWin	False
398.321	2.781	Win2	0.0	n/a	No	2.781	n/a	n/a	NoResponse	0	0.0	n/a	-15	41	ISIslide	MissedWin	False
401.129	0.25	Control	0.0	0.0	No	2.921	0.029	n/a	NoResponse	0	n/a	n/a	-15	42	Cue	Neutral	False
401.38	3.85	Control	0.0	0.0	No	2.921	0.001	n/a	NoResponse	0	n/a	n/a	-15	42	Fixation	Neutral	False
405.225	0.5	Control	0.0	0.004	No	2.921	-0.004	n/a	NoResponse	0	n/a	n/a	-15	42	Target	Neutral	False
405.726	0.2	Control	0.0	n/a	No	2.921	n/a	n/a	NoResponse	0	n/a	n/a	-15	42	Blank	Neutral	False
405.927	1.45	Control	0.0	n/a	No	2.921	n/a	5.0	NoResponse	0	0.045	404.972	-15	42	Feedback	Neutral	False
407.381	2.921	Control	0.0	n/a	No	2.921	n/a	n/a	NoResponse	0	0.0	n/a	-15	42	ISIslide	Neutral	False
410.323	0.25	Win2	0.0	0.0	No	3.177	0.023	n/a	NoResponse	0	n/a	n/a	-15	43	Cue	MissedWin	False
410.574	4.0	Win2	0.0	0.0	No	3.177	0.001	n/a	NoResponse	0	n/a	n/a	-15	43	Fixation	MissedWin	False
414.569	0.5	Win2	0.0	0.004	No	3.177	-0.004	n/a	NoResponse	0	n/a	n/a	-15	43	Target	MissedWin	False
415.071	0.2	Win2	0.0	n/a	No	3.177	n/a	n/a	NoResponse	0	n/a	n/a	-15	43	Blank	MissedWin	False
415.271	1.45	Win2	0.0	n/a	No	3.177	n/a	5.0	NoResponse	0	0.018	414.289	-15	43	Feedback	MissedWin	False
416.726	3.177	Win2	0.0	n/a	No	3.177	n/a	n/a	NoResponse	0	0.0	n/a	-15	43	ISIslide	MissedWin	False
419.919	0.25	Win2	0.0	0.0	No	2.981	0.019	n/a	NoResponse	0	n/a	n/a	-15	44	Cue	MissedWin	False
420.169	4.0	Win2	0.0	0.001	No	2.981	0.0	n/a	NoResponse	0	n/a	n/a	-15	44	Fixation	MissedWin	False
424.165	0.5	Win2	0.0	0.004	No	2.981	-0.004	n/a	NoResponse	0	n/a	n/a	-15	44	Target	MissedWin	False
424.666	0.2	Win2	0.0	n/a	No	2.981	n/a	n/a	NoResponse	0	n/a	n/a	-15	44	Blank	MissedWin	False
424.867	1.45	Win2	0.0	n/a	No	2.981	n/a	5.0	NoResponse	0	0.032	423.899	-15	44	Feedback	MissedWin	False
426.321	2.981	Win2	0.0	n/a	No	2.981	n/a	n/a	NoResponse	0	0.0	n/a	-15	44	ISIslide	MissedWin	False
429.314	0.25	Control	0.0	0.0	No	2.886	0.014	n/a	NoResponse	0	n/a	n/a	-15	45	Cue	Neutral	False
429.564	4.1	Control	0.0	0.0	No	2.886	0.0	n/a	NoResponse	0	n/a	n/a	-15	45	Fixation	Neutral	False
433.66	0.5	Control	0.0	0.004	No	2.886	-0.004	n/a	NoResponse	0	n/a	n/a	-15	45	Target	Neutral	False
434.161	0.2	Control	0.0	n/a	No	2.886	n/a	n/a	NoResponse	0	n/a	n/a	-15	45	Blank	Neutral	False
434.362	1.45	Control	0.0	n/a	No	2.886	n/a	5.0	NoResponse	0	0.048	433.41	-15	45	Feedback	Neutral	False
435.816	2.886	Control	0.0	n/a	No	2.886	n/a	n/a	NoResponse	0	0.0	n/a	-15	45	ISIslide	Neutral	False
438.725	0.25	Lose2	0.0	0.0	No	3.375	0.025	n/a	NoResponse	-1	n/a	n/a	-16	46	Cue	Loss	False
438.976	4.0	Lose2	0.0	0.0	No	3.375	0.001	n/a	NoResponse	-1	n/a	n/a	-16	46	Fixation	Loss	False
442.971	0.5	Lose2	0.0	0.004	No	3.375	-0.004	n/a	NoResponse	-1	n/a	n/a	-16	46	Target	Loss	False
443.473	0.2	Lose2	0.0	n/a	No	3.375	n/a	n/a	NoResponse	-1	n/a	n/a	-16	46	Blank	Loss	False
443.673	1.45	Lose2	0.0	n/a	No	3.375	n/a	5.0	NoResponse	-1	0.005	442.678	-16	46	Feedback	Loss	False
445.128	3.375	Lose2	0.0	n/a	No	3.375	n/a	n/a	NoResponse	-1	0.0	n/a	-16	46	ISIslide	Loss	False
448.521	0.25	Lose2	0.0	0.0	No	2.679	0.021	n/a	NoResponse	-1	n/a	n/a	-17	47	Cue	Loss	False
448.772	4.0	Lose2	0.0	0.0	No	2.679	0.001	n/a	NoResponse	-1	n/a	n/a	-17	47	Fixation	Loss	False
452.767	0.5	Lose2	0.0	0.004	No	2.679	-0.004	n/a	NoResponse	-1	n/a	n/a	-17	47	Target	Loss	False
453.269	0.2	Lose2	0.0	n/a	No	2.679	n/a	n/a	NoResponse	-1	n/a	n/a	-17	47	Blank	Loss	False
453.469	1.45	Lose2	0.0	n/a	No	2.679	n/a	5.0	NoResponse	-1	0.014	452.483	-17	47	Feedback	Loss	False
454.923	2.679	Lose2	0.0	n/a	No	2.679	n/a	n/a	NoResponse	-1	0.0	n/a	-17	47	ISIslide	Loss	False
457.615	0.25	Lose2	0.0	0.0	No	3.035	0.015	n/a	NoResponse	-1	n/a	n/a	-18	48	Cue	Loss	False
457.866	3.95	Lose2	0.0	0.0	No	3.035	0.001	n/a	NoResponse	-1	n/a	n/a	-18	48	Fixation	Loss	False
461.811	0.5	Lose2	0.0	0.004	No	3.035	-0.004	n/a	NoResponse	-1	n/a	n/a	-18	48	Target	Loss	False
462.312	0.2	Lose2	0.0	n/a	No	3.035	n/a	n/a	NoResponse	-1	n/a	n/a	-18	48	Blank	Loss	False
462.513	1.45	Lose2	0.0	n/a	No	3.035	n/a	5.0	NoResponse	-1	0.044	461.557	-18	48	Feedback	Loss	False
463.967	3.035	Lose2	0.0	n/a	No	3.035	n/a	n/a	NoResponse	-1	0.0	n/a	-18	48	ISIslide	Loss	False
467.026	0.25	Control	0.0	0.0	No	2.874	0.026	n/a	NoResponse	0	n/a	n/a	-18	49	Cue	Neutral	False
467.277	4.0	Control	0.0	0.0	No	2.874	0.001	n/a	NoResponse	0	n/a	n/a	-18	49	Fixation	Neutral	False
471.272	0.5	Control	0.0	0.004	No	2.874	-0.004	n/a	NoResponse	0	n/a	n/a	-18	49	Target	Neutral	False
471.774	0.2	Control	0.0	n/a	No	2.874	n/a	n/a	NoResponse	0	n/a	n/a	-18	49	Blank	Neutral	False
471.975	1.45	Control	0.0	n/a	No	2.874	n/a	5.0	NoResponse	0	0.045	471.02	-18	49	Feedback	Neutral	False
473.429	2.874	Control	0.0	n/a	No	2.874	n/a	n/a	NoResponse	0	0.0	n/a	-18	49	ISIslide	Neutral	False
476.321	0.25	Control	0.0	0.0	No	2.779	0.021	n/a	NoResponse	0	n/a	n/a	-18	50	Cue	Neutral	False
476.572	4.0	Control	0.0	0.0	No	2.779	0.001	n/a	NoResponse	0	n/a	n/a	-18	50	Fixation	Neutral	False
480.567	0.5	Control	0.0	0.004	No	2.779	-0.004	n/a	NoResponse	0	n/a	n/a	-18	50	Target	Neutral	False
481.068	0.2	Control	0.0	n/a	No	2.779	n/a	n/a	NoResponse	0	n/a	n/a	-18	50	Blank	Neutral	False
481.269	1.45	Control	0.0	n/a	No	2.779	n/a	5.0	NoResponse	0	0.018	480.287	-18	50	Feedback	Neutral	False
482.723	2.779	Control	0.0	n/a	No	2.779	n/a	n/a	NoResponse	0	0.0	n/a	-18	50	ISIslide	Neutral	False
485.515	0.25	Control	0.0	0.0	No	2.735	0.015	n/a	NoResponse	0	n/a	n/a	-18	51	Cue	Neutral	False
485.766	3.95	Control	0.0	0.0	No	2.735	0.001	n/a	NoResponse	0	n/a	n/a	-18	51	Fixation	Neutral	False
489.711	0.5	Control	0.0	0.004	No	2.735	-0.004	n/a	NoResponse	0	n/a	n/a	-18	51	Target	Neutral	False
490.212	0.2	Control	0.0	n/a	No	2.735	n/a	n/a	NoResponse	0	n/a	n/a	-18	51	Blank	Neutral	False
490.413	1.45	Control	0.0	n/a	No	2.735	n/a	5.0	NoResponse	0	0.045	489.458	-18	51	Feedback	Neutral	False
491.867	2.735	Control	0.0	n/a	No	2.735	n/a	n/a	NoResponse	0	0.0	n/a	-18	51	ISIslide	Neutral	False
494.626	0.25	Control	0.0	0.0	No	2.624	0.026	n/a	NoResponse	0	n/a	n/a	-18	52	Cue	Neutral	False
494.876	4.05	Control	0.0	0.001	No	2.624	0.0	n/a	NoResponse	0	n/a	n/a	-18	52	Fixation	Neutral	False
498.922	0.5	Control	0.0	0.004	No	2.624	-0.004	n/a	NoResponse	0	n/a	n/a	-18	52	Target	Neutral	False
499.423	0.2	Control	0.0	n/a	No	2.624	n/a	n/a	NoResponse	0	n/a	n/a	-18	52	Blank	Neutral	False
499.624	1.45	Control	0.0	n/a	No	2.624	n/a	5.0	NoResponse	0	0.005	498.629	-18	52	Feedback	Neutral	False
501.078	2.624	Control	0.0	n/a	No	2.624	n/a	n/a	NoResponse	0	0.0	n/a	-18	52	ISIslide	Neutral	False
503.72	0.25	Win2	0.0	0.0	No	2.93	0.02	n/a	NoResponse	0	n/a	n/a	-18	53	Cue	MissedWin	False
503.97	4.05	Win2	0.0	0.0	No	2.93	0.0	n/a	NoResponse	0	n/a	n/a	-18	53	Fixation	MissedWin	False
508.016	0.5	Win2	0.0	0.004	No	2.93	-0.004	n/a	NoResponse	0	n/a	n/a	-18	53	Target	MissedWin	False
508.517	0.2	Win2	0.0	n/a	No	2.93	n/a	n/a	NoResponse	0	n/a	n/a	-18	53	Blank	MissedWin	False
508.718	1.45	Win2	0.0	n/a	No	2.93	n/a	5.0	NoResponse	0	0.033	507.751	-18	53	Feedback	MissedWin	False
510.172	2.93	Win2	0.0	n/a	No	2.93	n/a	n/a	NoResponse	0	0.0	n/a	-18	53	ISIslide	MissedWin	False
513.114	0.25	Win2	0.0	0.0	No	2.736	0.014	n/a	NoResponse	0	n/a	n/a	-18	54	Cue	MissedWin	False
513.365	3.95	Win2	0.0	0.0	No	2.736	0.001	n/a	NoResponse	0	n/a	n/a	-18	54	Fixation	MissedWin	False
517.31	0.5	Win2	0.0	0.004	No	2.736	-0.004	n/a	NoResponse	0	n/a	n/a	-18	54	Target	MissedWin	False
517.812	0.2	Win2	0.0	n/a	No	2.736	n/a	n/a	NoResponse	0	n/a	n/a	-18	54	Blank	MissedWin	False
518.012	1.45	Win2	0.0	n/a	No	2.736	n/a	5.0	NoResponse	0	0.008	517.02	-18	54	Feedback	MissedWin	False
519.467	2.736	Win2	0.0	n/a	No	2.736	n/a	n/a	NoResponse	0	0.0	n/a	-18	54	ISIslide	MissedWin	False
522.225	0.25	Control	0.0	0.0	No	3.025	0.025	n/a	NoResponse	0	n/a	n/a	-18	55	Cue	Neutral	False
522.476	3.95	Control	0.0	0.0	No	3.025	0.001	n/a	NoResponse	0	n/a	n/a	-18	55	Fixation	Neutral	False
526.421	0.5	Control	0.0	0.004	No	3.025	-0.004	n/a	NoResponse	0	n/a	n/a	-18	55	Target	Neutral	False
526.922	0.2	Control	0.0	n/a	No	3.025	n/a	n/a	NoResponse	0	n/a	n/a	-18	55	Blank	Neutral	False
527.123	1.45	Control	0.0	n/a	No	3.025	n/a	5.0	NoResponse	0	0.019	526.142	-18	55	Feedback	Neutral	False
528.577	3.025	Control	0.0	n/a	No	3.025	n/a	n/a	NoResponse	0	0.0	n/a	-18	55	ISIslide	Neutral	False
531.62	0.25	Control	0.0	0.0	No	2.83	0.02	n/a	NoResponse	0	n/a	n/a	-18	56	Cue	Neutral	False
531.87	3.95	Control	0.0	0.001	No	2.83	0.0	n/a	NoResponse	0	n/a	n/a	-18	56	Fixation	Neutral	False
535.816	0.5	Control	0.0	0.004	No	2.83	-0.004	n/a	NoResponse	0	n/a	n/a	-18	56	Target	Neutral	False
536.317	0.2	Control	0.0	n/a	No	2.83	n/a	n/a	NoResponse	0	n/a	n/a	-18	56	Blank	Neutral	False
536.518	1.45	Control	0.0	n/a	No	2.83	n/a	5.0	NoResponse	0	0.037	535.555	-18	56	Feedback	Neutral	False
537.972	2.83	Control	0.0	n/a	No	2.83	n/a	n/a	NoResponse	0	0.0	n/a	-18	56	ISIslide	Neutral	False
540.814	0.25	Control	0.0	0.0	No	3.486	0.014	n/a	NoResponse	0	n/a	n/a	-18	57	Cue	Neutral	False
541.065	4.0	Control	0.0	0.0	No	3.486	0.001	n/a	NoResponse	0	n/a	n/a	-18	57	Fixation	Neutral	False
545.06	0.5	Control	0.0	0.004	No	3.486	-0.004	n/a	NoResponse	0	n/a	n/a	-18	57	Target	Neutral	False
545.561	0.2	Control	0.0	n/a	No	3.486	n/a	n/a	NoResponse	0	n/a	n/a	-18	57	Blank	Neutral	False
545.762	1.45	Control	0.0	n/a	No	3.486	n/a	5.0	NoResponse	0	0.013	544.775	-18	57	Feedback	Neutral	False
547.216	3.486	Control	0.0	n/a	No	3.486	n/a	n/a	NoResponse	0	0.0	n/a	-18	57	ISIslide	Neutral	False
550.727	0.25	Win2	0.0	0.0	No	2.723	0.027	n/a	NoResponse	0	n/a	n/a	-18	58	Cue	MissedWin	False
550.978	4.05	Win2	0.0	0.0	No	2.723	0.001	n/a	NoResponse	0	n/a	n/a	-18	58	Fixation	MissedWin	False
555.023	0.5	Win2	0.0	0.004	No	2.723	-0.004	n/a	NoResponse	0	n/a	n/a	-18	58	Target	MissedWin	False
555.525	0.2	Win2	0.0	n/a	No	2.723	n/a	n/a	NoResponse	0	n/a	n/a	-18	58	Blank	MissedWin	False
555.725	1.45	Win2	0.0	n/a	No	2.723	n/a	5.0	NoResponse	0	0.001	554.726	-18	58	Feedback	MissedWin	False
557.18	2.723	Win2	0.0	n/a	No	2.723	n/a	n/a	NoResponse	0	0.0	n/a	-18	58	ISIslide	MissedWin	False
559.921	0.25	Lose2	0.0	0.0	No	2.679	0.021	n/a	NoResponse	-1	n/a	n/a	-19	59	Cue	Loss	False
560.172	4.0	Lose2	0.0	0.0	No	2.679	0.001	n/a	NoResponse	-1	n/a	n/a	-19	59	Fixation	Loss	False
564.167	0.5	Lose2	0.0	0.004	No	2.679	-0.004	n/a	NoResponse	-1	n/a	n/a	-19	59	Target	Loss	False
564.669	0.2	Lose2	0.0	n/a	No	2.679	n/a	n/a	NoResponse	-1	n/a	n/a	-19	59	Blank	Loss	False
564.869	1.45	Lose2	0.0	n/a	No	2.679	n/a	5.0	NoResponse	-1	0.028	563.897	-19	59	Feedback	Loss	False
566.324	2.679	Lose2	0.0	n/a	No	2.679	n/a	n/a	NoResponse	-1	0.0	n/a	-19	59	ISIslide	Loss	False
569.015	0.25	Control	0.0	0.0	No	2.685	0.015	n/a	NoResponse	0	n/a	n/a	-19	60	Cue	Neutral	False
569.266	4.0	Control	0.0	0.0	No	2.685	0.001	n/a	NoResponse	0	n/a	n/a	-19	60	Fixation	Neutral	False
573.261	0.5	Control	0.0	0.004	No	2.685	-0.004	n/a	NoResponse	0	n/a	n/a	-19	60	Target	Neutral	False
573.763	0.2	Control	0.0	n/a	No	2.685	n/a	n/a	NoResponse	0	n/a	n/a	-19	60	Blank	Neutral	False
573.963	1.45	Control	0.0	n/a	No	2.685	n/a	5.0	NoResponse	0	0.007	572.97	-19	60	Feedback	Neutral	False
575.418	2.685	Control	0.0	n/a	No	2.685	n/a	n/a	NoResponse	0	0.0	n/a	-19	60	ISIslide	Neutral	False
578.126	0.25	Lose2	0.0	0.0	No	2.974	0.026	n/a	NoResponse	-1	n/a	n/a	-20	61	Cue	Loss	False
578.376	4.0	Lose2	0.0	0.0	No	2.974	0.0	n/a	NoResponse	-1	n/a	n/a	-20	61	Fixation	Loss	False
582.372	0.5	Lose2	0.0	0.004	No	2.974	-0.004	n/a	NoResponse	-1	n/a	n/a	-20	61	Target	Loss	False
582.873	0.2	Lose2	0.0	n/a	No	2.974	n/a	n/a	NoResponse	-1	n/a	n/a	-20	61	Blank	Loss	False
583.074	1.45	Lose2	0.0	n/a	No	2.974	n/a	5.0	NoResponse	-1	0.017	582.091	-20	61	Feedback	Loss	False
584.528	2.974	Lose2	0.0	n/a	No	2.974	n/a	n/a	NoResponse	-1	0.0	n/a	-20	61	ISIslide	Loss	False
587.52	0.25	Lose2	0.0	0.0	No	2.88	0.02	n/a	NoResponse	-1	n/a	n/a	-21	62	Cue	Loss	False
587.771	3.9	Lose2	0.0	0.0	No	2.88	0.001	n/a	NoResponse	-1	n/a	n/a	-21	62	Fixation	Loss	False
591.666	0.5	Lose2	0.0	0.004	No	2.88	-0.004	n/a	NoResponse	-1	n/a	n/a	-21	62	Target	Loss	False
592.168	0.2	Lose2	0.0	n/a	No	2.88	n/a	n/a	NoResponse	-1	n/a	n/a	-21	62	Blank	Loss	False
592.368	1.45	Lose2	0.0	n/a	No	2.88	n/a	5.0	NoResponse	-1	0.041	591.409	-21	62	Feedback	Loss	False
593.823	2.88	Lose2	0.0	n/a	No	2.88	n/a	n/a	NoResponse	-1	0.0	n/a	-21	62	ISIslide	Loss	False
596.715	0.25	Lose2	0.0	0.0	No	2.635	0.015	n/a	NoResponse	-1	n/a	n/a	-22	63	Cue	Loss	False
596.965	4.05	Lose2	0.0	0.0	No	2.635	0.0	n/a	NoResponse	-1	n/a	n/a	-22	63	Fixation	Loss	False
601.011	0.5	Lose2	0.0	0.004	No	2.635	-0.004	n/a	NoResponse	-1	n/a	n/a	-22	63	Target	Loss	False
601.512	0.2	Lose2	0.0	n/a	No	2.635	n/a	n/a	NoResponse	-1	n/a	n/a	-22	63	Blank	Loss	False
601.713	1.45	Lose2	0.0	n/a	No	2.635	n/a	5.0	NoResponse	-1	0.013	600.726	-22	63	Feedback	Loss	False
603.167	2.635	Lose2	0.0	n/a	No	2.635	n/a	n/a	NoResponse	-1	0.0	n/a	-22	63	ISIslide	Loss	False
605.825	0.25	Win2	0.0	0.0	No	3.125	0.025	n/a	NoResponse	0	n/a	n/a	-22	64	Cue	MissedWin	False
606.076	4.15	Win2	0.0	0.0	No	3.125	0.001	n/a	NoResponse	0	n/a	n/a	-22	64	Fixation	MissedWin	False
610.222	0.5	Win2	0.0	0.003	No	3.125	-0.003	n/a	NoResponse	0	n/a	n/a	-22	64	Target	MissedWin	False
610.723	0.2	Win2	0.0	n/a	No	3.125	n/a	n/a	NoResponse	0	n/a	n/a	-22	64	Blank	MissedWin	False
610.924	1.45	Win2	0.0	n/a	No	3.125	n/a	5.0	NoResponse	0	0.021	609.945	-22	64	Feedback	MissedWin	False
612.378	3.125	Win2	0.0	n/a	No	3.125	n/a	n/a	NoResponse	0	0.0	n/a	-22	64	ISIslide	MissedWin	False
615.521	0.25	Control	0.0	0.0	No	2.779	0.021	n/a	NoResponse	0	n/a	n/a	-22	65	Cue	Neutral	False
615.772	4.0	Control	0.0	0.0	No	2.779	0.001	n/a	NoResponse	0	n/a	n/a	-22	65	Fixation	Neutral	False
619.767	0.5	Control	0.0	0.004	No	2.779	-0.004	n/a	NoResponse	0	n/a	n/a	-22	65	Target	Neutral	False
620.268	0.2	Control	0.0	n/a	No	2.779	n/a	n/a	NoResponse	0	n/a	n/a	-22	65	Blank	Neutral	False
620.469	1.45	Control	0.0	n/a	No	2.779	n/a	5.0	NoResponse	0	0.037	619.506	-22	65	Feedback	Neutral	False
621.923	2.779	Control	0.0	n/a	No	2.779	n/a	n/a	NoResponse	0	0.0	n/a	-22	65	ISIslide	Neutral	False
624.715	0.25	Win2	0.0	0.0	No	2.785	0.015	n/a	NoResponse	0	n/a	n/a	-22	66	Cue	MissedWin	False
624.966	3.9	Win2	0.0	0.0	No	2.785	0.001	n/a	NoResponse	0	n/a	n/a	-22	66	Fixation	MissedWin	False
628.861	0.5	Win2	0.0	0.004	No	2.785	-0.004	n/a	NoResponse	0	n/a	n/a	-22	66	Target	MissedWin	False
629.362	0.2	Win2	0.0	n/a	No	2.785	n/a	n/a	NoResponse	0	n/a	n/a	-22	66	Blank	MissedWin	False
629.563	1.45	Win2	0.0	n/a	No	2.785	n/a	5.0	NoResponse	0	0.017	628.58	-22	66	Feedback	MissedWin	False
631.017	2.785	Win2	0.0	n/a	No	2.785	n/a	n/a	NoResponse	0	0.0	n/a	-22	66	ISIslide	MissedWin	False
633.826	0.25	Control	0.0	0.0	No	2.724	0.026	n/a	NoResponse	0	n/a	n/a	-22	67	Cue	Neutral	False
634.076	3.95	Control	0.0	0.0	No	2.724	0.0	n/a	NoResponse	0	n/a	n/a	-22	67	Fixation	Neutral	False
638.022	0.5	Control	0.0	0.004	No	2.724	-0.004	n/a	NoResponse	0	n/a	n/a	-22	67	Target	Neutral	False
638.523	0.2	Control	0.0	n/a	No	2.724	n/a	n/a	NoResponse	0	n/a	n/a	-22	67	Blank	Neutral	False
638.724	1.45	Control	0.0	n/a	No	2.724	n/a	5.0	NoResponse	0	0.026	637.75	-22	67	Feedback	Neutral	False
640.178	2.724	Control	0.0	n/a	No	2.724	n/a	n/a	NoResponse	0	0.0	n/a	-22	67	ISIslide	Neutral	False
642.92	0.25	Win2	0.0	0.0	No	3.08	0.02	n/a	NoResponse	0	n/a	n/a	-22	68	Cue	MissedWin	False
643.17	4.0	Win2	0.0	0.0	No	3.08	0.0	n/a	NoResponse	0	n/a	n/a	-22	68	Fixation	MissedWin	False
647.166	0.5	Win2	0.0	0.004	No	3.08	-0.004	n/a	NoResponse	0	n/a	n/a	-22	68	Target	MissedWin	False
647.667	0.2	Win2	0.0	n/a	No	3.08	n/a	n/a	NoResponse	0	n/a	n/a	-22	68	Blank	MissedWin	False
647.868	1.45	Win2	0.0	n/a	No	3.08	n/a	5.0	NoResponse	0	0.006	646.874	-22	68	Feedback	MissedWin	False
649.322	3.08	Win2	0.0	n/a	No	3.08	n/a	n/a	NoResponse	0	0.0	n/a	-22	68	ISIslide	MissedWin	False
652.415	0.25	Win2	0.0	0.0	No	3.235	0.015	n/a	NoResponse	0	n/a	n/a	-22	69	Cue	MissedWin	False
652.665	3.95	Win2	0.0	0.0	No	3.235	0.0	n/a	NoResponse	0	n/a	n/a	-22	69	Fixation	MissedWin	False
656.611	0.5	Win2	0.0	0.004	No	3.235	-0.004	n/a	NoResponse	0	n/a	n/a	-22	69	Target	MissedWin	False
657.112	0.2	Win2	0.0	n/a	No	3.235	n/a	n/a	NoResponse	0	n/a	n/a	-22	69	Blank	MissedWin	False
657.313	1.45	Win2	0.0	n/a	No	3.235	n/a	5.0	NoResponse	0	0.022	656.335	-22	69	Feedback	MissedWin	False
658.767	3.235	Win2	0.0	n/a	No	3.235	n/a	n/a	NoResponse	0	0.0	n/a	-22	69	ISIslide	MissedWin	False
662.027	0.25	Lose2	0.0	0.0	No	3.023	0.027	n/a	NoResponse	-1	n/a	n/a	-23	70	Cue	Loss	False
662.278	4.05	Lose2	0.0	0.0	No	3.023	0.001	n/a	NoResponse	-1	n/a	n/a	-23	70	Fixation	Loss	False
666.323	0.5	Lose2	0.0	0.004	No	3.023	-0.004	n/a	NoResponse	-1	n/a	n/a	-23	70	Target	Loss	False
666.824	0.2	Lose2	0.0	n/a	No	3.023	n/a	n/a	NoResponse	-1	n/a	n/a	-23	70	Blank	Loss	False
667.025	1.45	Lose2	0.0	n/a	No	3.023	n/a	5.0	NoResponse	-1	0.018	666.043	-23	70	Feedback	Loss	False
668.479	3.023	Lose2	0.0	n/a	No	3.023	n/a	n/a	NoResponse	-1	0.0	n/a	-23	70	ISIslide	Loss	False
671.522	0.25	Win2	0.0	0.0	No	2.728	0.022	n/a	NoResponse	0	n/a	n/a	-23	71	Cue	MissedWin	False
671.773	4.05	Win2	0.0	0.0	No	2.728	0.001	n/a	NoResponse	0	n/a	n/a	-23	71	Fixation	MissedWin	False
675.818	0.5	Win2	0.0	0.004	No	2.728	-0.004	n/a	NoResponse	0	n/a	n/a	-23	71	Target	MissedWin	False
676.32	0.2	Win2	0.0	n/a	No	2.728	n/a	n/a	NoResponse	0	n/a	n/a	-23	71	Blank	MissedWin	False
676.52	1.45	Win2	0.0	n/a	No	2.728	n/a	5.0	NoResponse	0	0.035	675.555	-23	71	Feedback	MissedWin	False
677.974	2.728	Win2	0.0	n/a	No	2.728	n/a	n/a	NoResponse	0	0.0	n/a	-23	71	ISIslide	MissedWin	False
680.716	0.25	Win2	0.0	0.0	No	2.784	0.016	n/a	NoResponse	0	n/a	n/a	-23	72	Cue	MissedWin	False
680.967	4.1	Win2	0.0	0.0	No	2.784	0.001	n/a	NoResponse	0	n/a	n/a	-23	72	Fixation	MissedWin	False
685.062	0.5	Win2	0.0	0.004	No	2.784	-0.004	n/a	NoResponse	0	n/a	n/a	-23	72	Target	MissedWin	False
685.564	0.2	Win2	0.0	n/a	No	2.784	n/a	n/a	NoResponse	0	n/a	n/a	-23	72	Blank	MissedWin	False
685.764	1.45	Win2	0.0	n/a	No	2.784	n/a	5.0	NoResponse	0	0.009	684.773	-23	72	Feedback	MissedWin	False
687.219	2.784	Win2	0.0	n/a	No	2.784	n/a	n/a	NoResponse	0	0.0	n/a	-23	72	ISIslide	MissedWin	False
690.027	0.25	Win2	0.0	0.0	No	2.673	0.027	n/a	NoResponse	0	n/a	n/a	-23	73	Cue	MissedWin	False
690.278	4.0	Win2	0.0	0.0	No	2.673	0.001	n/a	NoResponse	0	n/a	n/a	-23	73	Fixation	MissedWin	False
694.273	0.5	Win2	0.0	0.004	No	2.673	-0.004	n/a	NoResponse	0	n/a	n/a	-23	73	Target	MissedWin	False
694.775	0.2	Win2	0.0	n/a	No	2.673	n/a	n/a	NoResponse	0	n/a	n/a	-23	73	Blank	MissedWin	False
694.975	1.45	Win2	0.0	n/a	No	2.673	n/a	5.0	NoResponse	0	0.018	693.993	-23	73	Feedback	MissedWin	False
696.43	2.673	Win2	0.0	n/a	No	2.673	n/a	n/a	NoResponse	0	0.0	n/a	-23	73	ISIslide	MissedWin	False
699.121	0.25	Lose2	0.0	0.0	No	2.629	0.021	n/a	NoResponse	-1	n/a	n/a	-24	74	Cue	Loss	False
699.372	4.05	Lose2	0.0	0.0	No	2.629	0.001	n/a	NoResponse	-1	n/a	n/a	-24	74	Fixation	Loss	False
703.417	0.5	Lose2	0.0	0.004	No	2.629	-0.004	n/a	NoResponse	-1	n/a	n/a	-24	74	Target	Loss	False
703.919	0.2	Lose2	0.0	n/a	No	2.629	n/a	n/a	NoResponse	-1	n/a	n/a	-24	74	Blank	Loss	False
704.119	1.45	Lose2	0.0	n/a	No	2.629	n/a	5.0	NoResponse	-1	0.045	703.164	-24	74	Feedback	Loss	False
705.574	2.629	Lose2	0.0	n/a	No	2.629	n/a	n/a	NoResponse	-1	0.0	n/a	-24	74	ISIslide	Loss	False
708.215	0.25	Lose2	0.0	0.0	No	2.935	0.015	n/a	NoResponse	-1	n/a	n/a	-25	75	Cue	Loss	False
708.466	3.95	Lose2	0.0	0.0	No	2.935	0.001	n/a	NoResponse	-1	n/a	n/a	-25	75	Fixation	Loss	False
712.411	0.5	Lose2	0.0	0.004	No	2.935	-0.004	n/a	NoResponse	-1	n/a	n/a	-25	75	Target	Loss	False
712.912	0.2	Lose2	0.0	n/a	No	2.935	n/a	n/a	NoResponse	-1	n/a	n/a	-25	75	Blank	Loss	False
713.113	1.45	Lose2	0.0	n/a	No	2.935	n/a	5.0	NoResponse	-1	0.027	712.14	-25	75	Feedback	Loss	False
714.567	2.935	Lose2	0.0	n/a	No	2.935	n/a	n/a	NoResponse	-1	0.0	n/a	-25	75	ISIslide	Loss	False
717.526	0.25	Control	0.0	0.0	No	3.224	0.026	n/a	NoResponse	0	n/a	n/a	-25	76	Cue	Neutral	False
717.777	4.05	Control	0.0	0.0	No	3.224	0.001	n/a	NoResponse	0	n/a	n/a	-25	76	Fixation	Neutral	False
721.822	0.5	Control	0.0	0.004	No	3.224	-0.004	n/a	NoResponse	0	n/a	n/a	-25	76	Target	Neutral	False
722.324	0.2	Control	0.0	n/a	No	3.224	n/a	n/a	NoResponse	0	n/a	n/a	-25	76	Blank	Neutral	False
722.525	1.45	Control	0.0	n/a	No	3.224	n/a	5.0	NoResponse	0	0.029	721.554	-25	76	Feedback	Neutral	False
723.979	3.224	Control	0.0	n/a	No	3.224	n/a	n/a	NoResponse	0	0.0	n/a	-25	76	ISIslide	Neutral	False
727.222	0.25	Lose2	0.0	0.0	No	2.578	0.022	n/a	NoResponse	-1	n/a	n/a	-26	77	Cue	Loss	False
727.473	3.95	Lose2	0.0	0.0	No	2.578	0.001	n/a	NoResponse	-1	n/a	n/a	-26	77	Fixation	Loss	False
731.418	0.5	Lose2	0.0	0.004	No	2.578	-0.004	n/a	NoResponse	-1	n/a	n/a	-26	77	Target	Loss	False
731.919	0.2	Lose2	0.0	n/a	No	2.578	n/a	n/a	NoResponse	-1	n/a	n/a	-26	77	Blank	Loss	False
732.12	1.45	Lose2	0.0	n/a	No	2.578	n/a	5.0	NoResponse	-1	0.043	731.163	-26	77	Feedback	Loss	False
733.574	2.578	Lose2	0.0	n/a	No	2.578	n/a	n/a	NoResponse	-1	0.0	n/a	-26	77	ISIslide	Loss	False
