onset	duration	cue_type	current_mean_accuracy	duration_error	is_hit	isi_adjusted	onset_delay	response	response_type	reward	rt	rt_time	total_reward	trial_number	trial_phase	trial_type	one_press
11.102	0.25	Control	1.0	0.0	Yes	2.948	0.002	n/a	GoodResponse	0	n/a	n/a	0	0	Cue	Neutral	True
11.353	3.85	Control	1.0	0.0	Yes	2.948	0.001	n/a	GoodResponse	0	n/a	n/a	0	0	Fixation	Neutral	True
15.198	0.4	Control	1.0	0.004	Yes	2.948	-0.004	2.0	GoodResponse	0	0.3	14.498	0	0	Target	Neutral	True
15.498	0.3	Control	1.0	0.004	Yes	2.948	-0.004	2.0	GoodResponse	0	0.3	n/a	0	0	ButtonPress	Neutral	True
15.599	0.3	Control	1.0	n/a	Yes	2.948	n/a	n/a	GoodResponse	0	n/a	n/a	0	0	Blank	Neutral	True
15.9	1.45	Control	1.0	n/a	Yes	2.948	n/a	5.0	GoodResponse	0	0.027	14.927	0	0	Feedback	Neutral	True
17.354	2.948	Control	1.0	n/a	Yes	2.948	n/a	n/a	GoodResponse	0	0.0	n/a	0	0	ISIslide	Neutral	True
20.33	0.25	Lose2	1.0	0.0	Yes	2.77	0.03	n/a	GoodResponse	0	n/a	n/a	0	1	Cue	AvoidedLoss	True
20.581	4.0	Lose2	1.0	0.0	Yes	2.77	0.001	n/a	GoodResponse	0	n/a	n/a	0	1	Fixation	AvoidedLoss	True
24.576	0.39	Lose2	1.0	0.004	Yes	2.77	-0.004	2.0	GoodResponse	0	0.239	23.815	0	1	Target	AvoidedLoss	True
24.815	0.3	Lose2	1.0	0.004	Yes	2.77	-0.004	2.0	GoodResponse	0	0.239	n/a	0	1	ButtonPress	AvoidedLoss	True
24.977	0.31	Lose2	1.0	n/a	Yes	2.77	n/a	n/a	GoodResponse	0	n/a	n/a	0	1	Blank	AvoidedLoss	True
25.278	1.45	Lose2	1.0	n/a	Yes	2.77	n/a	5.0	GoodResponse	0	0.015	24.293	0	1	Feedback	AvoidedLoss	True
26.732	2.77	Lose2	1.0	n/a	Yes	2.77	n/a	n/a	GoodResponse	0	0.0	n/a	0	1	ISIslide	AvoidedLoss	True
29.524	0.25	Control	1.0	0.0	Yes	2.576	0.024	n/a	GoodResponse	0	n/a	n/a	0	2	Cue	Neutral	True
29.775	4.1	Control	1.0	0.0	Yes	2.576	0.001	n/a	GoodResponse	0	n/a	n/a	0	2	Fixation	Neutral	True
33.87	0.38	Control	1.0	0.004	Yes	2.576	-0.004	2.0	GoodResponse	0	0.256	33.126	0	2	Target	Neutral	True
34.126	0.3	Control	1.0	0.004	Yes	2.576	-0.004	2.0	GoodResponse	0	0.256	n/a	0	2	ButtonPress	Neutral	True
34.255	0.32	Control	1.0	n/a	Yes	2.576	n/a	n/a	GoodResponse	0	n/a	n/a	0	2	Blank	Neutral	True
34.572	1.45	Control	1.0	n/a	Yes	2.576	n/a	5.0	GoodResponse	0	0.037	33.609	0	2	Feedback	Neutral	True
36.027	2.576	Control	1.0	n/a	Yes	2.576	n/a	n/a	GoodResponse	0	0.0	n/a	0	2	ISIslide	Neutral	True
38.618	0.25	Win2	1.0	0.0	Yes	2.832	0.018	n/a	GoodResponse	1	n/a	n/a	1	3	Cue	Win	True
38.869	3.95	Win2	1.0	0.0	Yes	2.832	0.001	n/a	GoodResponse	1	n/a	n/a	1	3	Fixation	Win	True
42.814	0.37	Win2	1.0	0.004	Yes	2.832	-0.004	2.0	GoodResponse	1	0.224	42.038	1	3	Target	Win	True
43.038	0.3	Win2	1.0	0.004	Yes	2.832	-0.004	2.0	GoodResponse	1	0.224	n/a	1	3	ButtonPress	Win	True
43.198	0.33	Win2	1.0	n/a	Yes	2.832	n/a	n/a	GoodResponse	1	n/a	n/a	1	3	Blank	Win	True
43.516	1.45	Win2	1.0	n/a	Yes	2.832	n/a	5.0	GoodResponse	1	0.02	42.536	1	3	Feedback	Win	True
44.97	2.832	Win2	1.0	n/a	Yes	2.832	n/a	n/a	GoodResponse	1	0.0	n/a	1	3	ISIslide	Win	True
47.829	0.25	Win2	1.0	0.0	Yes	3.271	0.029	n/a	GoodResponse	1	n/a	n/a	2	4	Cue	Win	True
48.08	4.0	Win2	1.0	0.0	Yes	3.271	0.001	n/a	GoodResponse	1	n/a	n/a	2	4	Fixation	Win	True
52.075	0.36	Win2	1.0	0.004	Yes	3.271	-0.004	2.0	GoodResponse	1	0.235	51.31	2	4	Target	Win	True
52.31	0.3	Win2	1.0	0.004	Yes	3.271	-0.004	2.0	GoodResponse	1	0.235	n/a	2	4	ButtonPress	Win	True
52.443	0.34	Win2	1.0	n/a	Yes	3.271	n/a	n/a	GoodResponse	1	n/a	n/a	2	4	Blank	Win	True
52.777	1.45	Win2	1.0	n/a	Yes	3.271	n/a	5.0	GoodResponse	1	0.027	51.804	2	4	Feedback	Win	True
54.231	3.271	Win2	1.0	n/a	Yes	3.271	n/a	n/a	GoodResponse	1	0.0	n/a	2	4	ISIslide	Win	True
57.524	0.25	Win2	1.0	0.001	Yes	2.776	0.024	n/a	GoodResponse	1	n/a	n/a	3	5	Cue	Win	True
57.775	4.0	Win2	1.0	0.0	Yes	2.776	0.001	n/a	GoodResponse	1	n/a	n/a	3	5	Fixation	Win	True
61.77	0.35	Win2	1.0	0.004	Yes	2.776	-0.004	2.0	GoodResponse	1	0.25	61.02	3	5	Target	Win	True
62.02	0.3	Win2	1.0	0.004	Yes	2.776	-0.004	2.0	GoodResponse	1	0.25	n/a	3	5	ButtonPress	Win	True
62.122	0.35	Win2	1.0	n/a	Yes	2.776	n/a	n/a	GoodResponse	1	n/a	n/a	3	5	Blank	Win	True
62.473	1.45	Win2	1.0	n/a	Yes	2.776	n/a	5.0	GoodResponse	1	0.039	61.512	3	5	Feedback	Win	True
63.927	2.776	Win2	1.0	n/a	Yes	2.776	n/a	n/a	GoodResponse	1	0.0	n/a	3	5	ISIslide	Win	True
66.719	0.25	Lose2	1.0	0.0	Yes	2.731	0.019	n/a	GoodResponse	0	n/a	n/a	3	6	Cue	AvoidedLoss	True
66.969	3.95	Lose2	1.0	0.0	Yes	2.731	0.0	n/a	GoodResponse	0	n/a	n/a	3	6	Fixation	AvoidedLoss	True
70.915	0.34	Lose2	1.0	0.004	Yes	2.731	-0.004	2.0	GoodResponse	0	0.24	70.155	3	6	Target	AvoidedLoss	True
71.155	0.3	Lose2	1.0	0.004	Yes	2.731	-0.004	2.0	GoodResponse	0	0.24	n/a	3	6	ButtonPress	AvoidedLoss	True
71.266	0.36	Lose2	1.0	n/a	Yes	2.731	n/a	n/a	GoodResponse	0	n/a	n/a	3	6	Blank	AvoidedLoss	True
71.617	1.45	Lose2	1.0	n/a	Yes	2.731	n/a	5.0	GoodResponse	0	0.017	70.634	3	6	Feedback	AvoidedLoss	True
73.071	2.731	Lose2	1.0	n/a	Yes	2.731	n/a	n/a	GoodResponse	0	0.0	n/a	3	6	ISIslide	AvoidedLoss	True
75.829	0.25	Lose2	1.0	0.0	Yes	4.021	0.029	n/a	GoodResponse	0	n/a	n/a	3	7	Cue	AvoidedLoss	True
76.08	4.05	Lose2	1.0	0.0	Yes	4.021	0.001	n/a	GoodResponse	0	n/a	n/a	3	7	Fixation	AvoidedLoss	True
80.125	0.33	Lose2	1.0	0.004	Yes	4.021	-0.004	2.0	GoodResponse	0	0.291	79.416	3	7	Target	AvoidedLoss	True
80.416	0.3	Lose2	1.0	0.004	Yes	4.021	-0.004	2.0	GoodResponse	0	0.291	n/a	3	7	ButtonPress	AvoidedLoss	True
80.46	0.37	Lose2	1.0	n/a	Yes	4.021	n/a	n/a	GoodResponse	0	n/a	n/a	3	7	Blank	AvoidedLoss	True
80.828	1.45	Lose2	1.0	n/a	Yes	4.021	n/a	5.0	GoodResponse	0	0.024	79.852	3	7	Feedback	AvoidedLoss	True
82.282	4.021	Lose2	1.0	n/a	Yes	4.021	n/a	n/a	GoodResponse	0	0.0	n/a	3	7	ISIslide	AvoidedLoss	True
86.327	0.25	Lose2	1.0	0.0	Yes	3.023	0.027	n/a	GoodResponse	0	n/a	n/a	3	8	Cue	AvoidedLoss	True
86.578	3.95	Lose2	1.0	0.0	Yes	3.023	0.001	n/a	GoodResponse	0	n/a	n/a	3	8	Fixation	AvoidedLoss	True
90.523	0.32	Lose2	1.0	0.004	Yes	3.023	-0.004	2.0	GoodResponse	0	0.282	89.805	3	8	Target	AvoidedLoss	True
90.805	0.3	Lose2	1.0	0.004	Yes	3.023	-0.004	2.0	GoodResponse	0	0.282	n/a	3	8	ButtonPress	AvoidedLoss	True
90.858	0.38	Lose2	1.0	n/a	Yes	3.023	n/a	n/a	GoodResponse	0	n/a	n/a	3	8	Blank	AvoidedLoss	True
91.225	1.45	Lose2	1.0	n/a	Yes	3.023	n/a	5.0	GoodResponse	0	0.018	90.243	3	8	Feedback	AvoidedLoss	True
92.68	3.023	Lose2	1.0	n/a	Yes	3.023	n/a	n/a	GoodResponse	0	0.0	n/a	3	8	ISIslide	AvoidedLoss	True
95.722	0.25	Lose2	1.0	0.0	Yes	3.128	0.022	n/a	GoodResponse	0	n/a	n/a	3	9	Cue	AvoidedLoss	True
95.973	3.95	Lose2	1.0	0.0	Yes	3.128	0.001	n/a	GoodResponse	0	n/a	n/a	3	9	Fixation	AvoidedLoss	True
99.918	0.31	Lose2	1.0	0.004	Yes	3.128	-0.004	2.0	GoodResponse	0	0.257	99.175	3	9	Target	AvoidedLoss	True
100.175	0.3	Lose2	1.0	0.004	Yes	3.128	-0.004	2.0	GoodResponse	0	0.257	n/a	3	9	ButtonPress	AvoidedLoss	True
100.236	0.39	Lose2	1.0	n/a	Yes	3.128	n/a	n/a	GoodResponse	0	n/a	n/a	3	9	Blank	AvoidedLoss	True
100.62	1.45	Lose2	1.0	n/a	Yes	3.128	n/a	5.0	GoodResponse	0	0.038	99.658	3	9	Feedback	AvoidedLoss	True
102.074	3.128	Lose2	1.0	n/a	Yes	3.128	n/a	n/a	GoodResponse	0	0.0	n/a	3	9	ISIslide	AvoidedLoss	True
105.217	0.25	Control	1.0	0.0	Yes	3.283	0.017	n/a	GoodResponse	0	n/a	n/a	3	10	Cue	Neutral	True
105.468	4.0	Control	1.0	0.0	Yes	3.283	0.001	n/a	GoodResponse	0	n/a	n/a	3	10	Fixation	Neutral	True
109.463	0.3	Control	1.0	0.004	Yes	3.283	-0.004	2.0	GoodResponse	0	0.234	108.697	3	10	Target	Neutral	True
109.697	0.3	Control	1.0	0.004	Yes	3.283	-0.004	2.0	GoodResponse	0	0.234	n/a	3	10	ButtonPress	Neutral	True
109.764	0.4	Control	1.0	n/a	Yes	3.283	n/a	n/a	GoodResponse	0	n/a	n/a	3	10	Blank	Neutral	True
110.165	1.45	Control	1.0	n/a	Yes	3.283	n/a	5.0	GoodResponse	0	0.007	109.172	3	10	Feedback	Neutral	True
111.62	3.283	Control	1.0	n/a	Yes	3.283	n/a	n/a	GoodResponse	0	0.0	n/a	3	10	ISIslide	Neutral	True
114.93	0.25	Lose2	1.0	0.0	Yes	2.72	0.03	n/a	GoodResponse	0	n/a	n/a	3	11	Cue	AvoidedLoss	True
115.18	4.05	Lose2	1.0	0.0	Yes	2.72	0.0	n/a	GoodResponse	0	n/a	n/a	3	11	Fixation	AvoidedLoss	True
119.226	0.29	Lose2	1.0	0.004	Yes	2.72	-0.004	2.0	GoodResponse	0	0.221	118.447	3	11	Target	AvoidedLoss	True
119.447	0.3	Lose2	1.0	0.004	Yes	2.72	-0.004	2.0	GoodResponse	0	0.221	n/a	3	11	ButtonPress	AvoidedLoss	True
119.527	0.41	Lose2	1.0	n/a	Yes	2.72	n/a	n/a	GoodResponse	0	n/a	n/a	3	11	Blank	AvoidedLoss	True
119.928	1.45	Lose2	1.0	n/a	Yes	2.72	n/a	5.0	GoodResponse	0	0.047	118.975	3	11	Feedback	AvoidedLoss	True
121.382	2.72	Lose2	1.0	n/a	Yes	2.72	n/a	n/a	GoodResponse	0	0.0	n/a	3	11	ISIslide	AvoidedLoss	True
124.124	0.25	Control	1.0	0.0	Yes	2.976	0.024	n/a	GoodResponse	0	n/a	n/a	3	12	Cue	Neutral	True
124.375	3.9	Control	1.0	0.0	Yes	2.976	0.001	n/a	GoodResponse	0	n/a	n/a	3	12	Fixation	Neutral	True
128.27	0.28	Control	1.0	0.004	Yes	2.976	-0.004	2.0	GoodResponse	0	0.272	127.542	3	12	Target	Neutral	True
128.542	0.3	Control	1.0	0.004	Yes	2.976	-0.004	2.0	GoodResponse	0	0.272	n/a	3	12	ButtonPress	Neutral	True
128.554	0.42	Control	1.0	n/a	Yes	2.976	n/a	n/a	GoodResponse	0	n/a	n/a	3	12	Blank	Neutral	True
128.972	1.45	Control	1.0	n/a	Yes	2.976	n/a	5.0	GoodResponse	0	0.026	127.998	3	12	Feedback	Neutral	True
130.426	2.976	Control	1.0	n/a	Yes	2.976	n/a	n/a	GoodResponse	0	0.0	n/a	3	12	ISIslide	Neutral	True
133.418	0.25	Control	0.9286	0.0	No	2.782	0.018	n/a	NoResponse	0	n/a	n/a	3	13	Cue	Neutral	False
133.669	4.0	Control	0.9286	0.0	No	2.782	0.001	n/a	NoResponse	0	n/a	n/a	3	13	Fixation	Neutral	False
137.664	0.27	Control	0.9286	0.004	No	2.782	-0.004	n/a	NoResponse	0	n/a	n/a	3	13	Target	Neutral	False
137.949	0.43	Control	0.9286	n/a	No	2.782	n/a	n/a	NoResponse	0	n/a	n/a	3	13	Blank	Neutral	False
138.366	1.45	Control	0.9286	n/a	No	2.782	n/a	5.0	NoResponse	0	0.047	137.413	3	13	Feedback	Neutral	False
139.821	2.782	Control	0.9286	n/a	No	2.782	n/a	n/a	NoResponse	0	0.0	n/a	3	13	ISIslide	Neutral	False
142.629	0.25	Win2	0.9333	0.0	Yes	2.671	0.029	n/a	GoodResponse	1	n/a	n/a	4	14	Cue	Win	True
142.88	4.1	Win2	0.9333	0.0	Yes	2.671	0.001	n/a	GoodResponse	1	n/a	n/a	4	14	Fixation	Win	True
146.976	0.26	Win2	0.9333	0.003	Yes	2.671	-0.003	2.0	GoodResponse	1	0.223	146.199	4	14	Target	Win	True
147.199	0.3	Win2	0.9333	0.003	Yes	2.671	-0.003	2.0	GoodResponse	1	0.223	n/a	4	14	ButtonPress	Win	True
147.243	0.44	Win2	0.9333	n/a	Yes	2.671	n/a	n/a	GoodResponse	1	n/a	n/a	4	14	Blank	Win	True
147.678	1.45	Win2	0.9333	n/a	Yes	2.671	n/a	5.0	GoodResponse	1	0.006	146.684	4	14	Feedback	Win	True
149.132	2.671	Win2	0.9333	n/a	Yes	2.671	n/a	n/a	GoodResponse	1	0.0	n/a	4	14	ISIslide	Win	True
151.823	0.25	Control	0.875	0.0	No	2.977	0.023	n/a	NoResponse	0	n/a	n/a	4	15	Cue	Neutral	True
152.074	4.0	Control	0.875	0.0	No	2.977	0.001	n/a	NoResponse	0	n/a	n/a	4	15	Fixation	Neutral	True
156.069	0.25	Control	0.875	0.004	No	2.977	-0.004	2.0	NoResponse	0	0.331	155.4	4	15	Target	Neutral	True
156.32	0.45	Control	0.875	n/a	No	2.977	n/a	n/a	NoResponse	0	n/a	n/a	4	15	Blank	Neutral	True
156.4	0.3	Control	0.875	0.004	No	2.977	-0.004	2.0	NoResponse	0	0.331	n/a	4	15	ButtonPress	Neutral	True
156.772	1.45	Control	0.875	n/a	No	2.977	n/a	5.0	NoResponse	0	0.031	155.803	4	15	Feedback	Neutral	True
158.226	2.977	Control	0.875	n/a	No	2.977	n/a	n/a	NoResponse	0	0.0	n/a	4	15	ISIslide	Neutral	True
161.218	0.25	Win2	0.8824	0.0	Yes	2.882	0.018	n/a	GoodResponse	1	n/a	n/a	5	16	Cue	Win	True
161.469	4.0	Win2	0.8824	0.0	Yes	2.882	0.001	n/a	GoodResponse	1	n/a	n/a	5	16	Fixation	Win	True
165.464	0.24	Win2	0.8824	0.004	Yes	2.882	-0.004	2.0	GoodResponse	1	0.221	164.685	5	16	Target	Win	True
165.685	0.3	Win2	0.8824	0.004	Yes	2.882	-0.004	2.0	GoodResponse	1	0.221	n/a	5	16	ButtonPress	Win	True
165.715	0.46	Win2	0.8824	n/a	Yes	2.882	n/a	n/a	GoodResponse	1	n/a	n/a	5	16	Blank	Win	True
166.166	1.45	Win2	0.8824	n/a	Yes	2.882	n/a	5.0	GoodResponse	1	0.006	165.172	5	16	Feedback	Win	True
167.621	2.882	Win2	0.8824	n/a	Yes	2.882	n/a	n/a	GoodResponse	1	0.0	n/a	5	16	ISIslide	Win	True
170.529	0.25	Lose2	0.8889	0.0	Yes	2.721	0.029	n/a	GoodResponse	0	n/a	n/a	5	17	Cue	AvoidedLoss	True
170.78	3.95	Lose2	0.8889	0.0	Yes	2.721	0.001	n/a	GoodResponse	0	n/a	n/a	5	17	Fixation	AvoidedLoss	True
174.725	0.23	Lose2	0.8889	0.004	Yes	2.721	-0.004	2.0	GoodResponse	0	0.217	173.942	5	17	Target	AvoidedLoss	True
174.942	0.3	Lose2	0.8889	0.004	Yes	2.721	-0.004	2.0	GoodResponse	0	0.217	n/a	5	17	ButtonPress	AvoidedLoss	True
174.959	0.47	Lose2	0.8889	n/a	Yes	2.721	n/a	n/a	GoodResponse	0	n/a	n/a	5	17	Blank	AvoidedLoss	True
175.427	1.45	Lose2	0.8889	n/a	Yes	2.721	n/a	5.0	GoodResponse	0	0.011	174.438	5	17	Feedback	AvoidedLoss	True
176.882	2.721	Lose2	0.8889	n/a	Yes	2.721	n/a	n/a	GoodResponse	0	0.0	n/a	5	17	ISIslide	AvoidedLoss	True
179.623	0.25	Lose2	0.8421	0.0	No	2.727	0.023	n/a	LatePress	-1	n/a	n/a	4	18	Cue	Loss	True
179.874	4.05	Lose2	0.8421	0.0	No	2.727	0.001	n/a	LatePress	-1	n/a	n/a	4	18	Fixation	Loss	True
183.919	0.22	Lose2	0.8421	0.004	No	2.727	-0.004	2.0	LatePress	-1	0.232	183.151	4	18	Target	Loss	True
184.151	0.3	Lose2	0.8421	0.004	No	2.727	-0.004	2.0	LatePress	-1	0.232	n/a	4	18	ButtonPress	Loss	True
184.153	0.48	Lose2	0.8421	n/a	No	2.727	n/a	n/a	LatePress	-1	n/a	n/a	4	18	Blank	Loss	True
184.622	1.45	Lose2	0.8421	n/a	No	2.727	n/a	5.0	LatePress	-1	0.034	183.656	4	18	Feedback	Loss	True
186.076	2.727	Lose2	0.8421	n/a	No	2.727	n/a	n/a	LatePress	-1	0.0	n/a	4	18	ISIslide	Loss	True
188.817	0.25	Control	0.8	0.001	No	2.933	0.017	n/a	NoResponse	0	n/a	n/a	4	19	Cue	Neutral	False
189.068	3.95	Control	0.8	0.0	No	2.933	0.001	n/a	NoResponse	0	n/a	n/a	4	19	Fixation	Neutral	False
193.013	0.21	Control	0.8	0.004	No	2.933	-0.004	n/a	NoResponse	0	n/a	n/a	4	19	Target	Neutral	False
193.231	0.49	Control	0.8	n/a	No	2.933	n/a	n/a	NoResponse	0	n/a	n/a	4	19	Blank	Neutral	False
193.715	1.45	Control	0.8	n/a	No	2.933	n/a	5.0	NoResponse	0	0.015	192.73	4	19	Feedback	Neutral	False
195.17	2.933	Control	0.8	n/a	No	2.933	n/a	n/a	NoResponse	0	0.0	n/a	4	19	ISIslide	Neutral	False
198.129	0.25	Control	0.7619	0.0	No	2.621	0.029	n/a	NoResponse	0	n/a	n/a	4	20	Cue	Neutral	True
198.379	4.05	Control	0.7619	0.0	No	2.621	0.0	n/a	NoResponse	0	n/a	n/a	4	20	Fixation	Neutral	True
202.425	0.2	Control	0.7619	0.004	No	2.621	-0.004	2.0	NoResponse	0	0.212	201.637	4	20	Target	Neutral	True
202.625	0.5	Control	0.7619	n/a	No	2.621	n/a	n/a	NoResponse	0	n/a	n/a	4	20	Blank	Neutral	True
202.637	0.3	Control	0.7619	0.004	No	2.621	-0.004	2.0	NoResponse	0	0.212	n/a	4	20	ButtonPress	Neutral	True
203.127	1.45	Control	0.7619	n/a	No	2.621	n/a	5.0	NoResponse	0	0.017	202.144	4	20	Feedback	Neutral	True
204.581	2.621	Control	0.7619	n/a	No	2.621	n/a	n/a	NoResponse	0	0.0	n/a	4	20	ISIslide	Neutral	True
207.223	0.25	Control	0.7273000000000001	0.0	No	2.777	0.023	n/a	NoResponse	0	n/a	n/a	4	21	Cue	Neutral	True
207.473	4.1	Control	0.7273000000000001	0.0	No	2.777	0.0	n/a	NoResponse	0	n/a	n/a	4	21	Fixation	Neutral	True
211.569	0.19	Control	0.7273000000000001	0.004	No	2.777	-0.004	2.0	NoResponse	0	0.24	210.809	4	21	Target	Neutral	True
211.769	0.51	Control	0.7273000000000001	n/a	No	2.777	n/a	n/a	NoResponse	0	n/a	n/a	4	21	Blank	Neutral	True
211.809	0.3	Control	0.7273000000000001	0.004	No	2.777	-0.004	2.0	NoResponse	0	0.24	n/a	4	21	ButtonPress	Neutral	True
212.271	1.45	Control	0.7273000000000001	n/a	No	2.777	n/a	5.0	NoResponse	0	0.044	211.315	4	21	Feedback	Neutral	True
213.725	2.777	Control	0.7273000000000001	n/a	No	2.777	n/a	n/a	NoResponse	0	0.0	n/a	4	21	ISIslide	Neutral	True
216.517	0.25	Control	0.6957	0.0	No	2.783	0.017	n/a	NoResponse	0	n/a	n/a	4	22	Cue	Neutral	True
216.768	4.0	Control	0.6957	0.0	No	2.783	0.001	n/a	NoResponse	0	n/a	n/a	4	22	Fixation	Neutral	True
220.763	0.18	Control	0.6957	0.004	No	2.783	-0.004	2.0	NoResponse	0	0.248	220.011	4	22	Target	Neutral	True
220.947	0.52	Control	0.6957	n/a	No	2.783	n/a	n/a	NoResponse	0	n/a	n/a	4	22	Blank	Neutral	True
221.011	0.3	Control	0.6957	0.004	No	2.783	-0.004	2.0	NoResponse	0	0.248	n/a	4	22	ButtonPress	Neutral	True
221.465	1.45	Control	0.6957	n/a	No	2.783	n/a	5.0	NoResponse	0	0.021	220.486	4	22	Feedback	Neutral	True
222.92	2.783	Control	0.6957	n/a	No	2.783	n/a	n/a	NoResponse	0	0.0	n/a	4	22	ISIslide	Neutral	True
225.728	0.25	Control	0.6667000000000001	0.0	No	2.772	0.028	n/a	NoResponse	0	n/a	n/a	4	23	Cue	Neutral	True
225.979	3.9	Control	0.6667000000000001	0.0	No	2.772	0.001	n/a	NoResponse	0	n/a	n/a	4	23	Fixation	Neutral	True
229.874	0.17	Control	0.6667000000000001	0.004	No	2.772	-0.004	2.0	NoResponse	0	0.21	229.084	4	23	Target	Neutral	True
230.058	0.53	Control	0.6667000000000001	n/a	No	2.772	n/a	n/a	NoResponse	0	n/a	n/a	4	23	Blank	Neutral	True
230.084	0.3	Control	0.6667000000000001	0.004	No	2.772	-0.004	2.0	NoResponse	0	0.21	n/a	4	23	ButtonPress	Neutral	True
230.576	1.45	Control	0.6667000000000001	n/a	No	2.772	n/a	5.0	NoResponse	0	0.031	229.607	4	23	Feedback	Neutral	True
232.03	2.772	Control	0.6667000000000001	n/a	No	2.772	n/a	n/a	NoResponse	0	0.0	n/a	4	23	ISIslide	Neutral	True
234.822	0.25	Win2	0.64	0.0	No	3.128	0.022	n/a	NoResponse	0	n/a	n/a	4	24	Cue	MissedWin	True
235.073	3.95	Win2	0.64	0.0	No	3.128	0.001	n/a	NoResponse	0	n/a	n/a	4	24	Fixation	MissedWin	True
239.018	0.16	Win2	0.64	0.004	No	3.128	-0.004	2.0	NoResponse	0	0.218	238.236	4	24	Target	MissedWin	True
239.185	0.54	Win2	0.64	n/a	No	3.128	n/a	n/a	NoResponse	0	n/a	n/a	4	24	Blank	MissedWin	True
239.236	0.3	Win2	0.64	0.004	No	3.128	-0.004	2.0	NoResponse	0	0.218	n/a	4	24	ButtonPress	MissedWin	True
239.72	1.45	Win2	0.64	n/a	No	3.128	n/a	5.0	NoResponse	0	0.009	238.729	4	24	Feedback	MissedWin	True
241.174	3.128	Win2	0.64	n/a	No	3.128	n/a	n/a	NoResponse	0	0.0	n/a	4	24	ISIslide	MissedWin	True
244.317	0.25	Win2	0.6154	0.0	No	3.083	0.017	n/a	NoResponse	0	n/a	n/a	4	25	Cue	MissedWin	True
244.568	4.0	Win2	0.6154	0.0	No	3.083	0.001	n/a	NoResponse	0	n/a	n/a	4	25	Fixation	MissedWin	True
248.563	0.17	Win2	0.6154	0.004	No	3.083	-0.004	2.0	NoResponse	0	0.251	247.814	4	25	Target	MissedWin	True
248.747	0.53	Win2	0.6154	n/a	No	3.083	n/a	n/a	NoResponse	0	n/a	n/a	4	25	Blank	MissedWin	True
248.814	0.3	Win2	0.6154	0.004	No	3.083	-0.004	2.0	NoResponse	0	0.251	n/a	4	25	ButtonPress	MissedWin	True
249.265	1.45	Win2	0.6154	n/a	No	3.083	n/a	5.0	NoResponse	0	0.025	248.29	4	25	Feedback	MissedWin	True
250.719	3.083	Win2	0.6154	n/a	No	3.083	n/a	n/a	NoResponse	0	0.0	n/a	4	25	ISIslide	MissedWin	True
253.829	0.25	Win2	0.5926	0.0	No	2.921	0.029	n/a	NoResponse	0	n/a	n/a	4	26	Cue	MissedWin	True
254.079	3.95	Win2	0.5926	0.001	No	2.921	0.0	n/a	NoResponse	0	n/a	n/a	4	26	Fixation	MissedWin	True
258.025	0.18	Win2	0.5926	0.004	No	2.921	-0.004	2.0	NoResponse	0	0.253	257.278	4	26	Target	MissedWin	True
258.208	0.52	Win2	0.5926	n/a	No	2.921	n/a	n/a	NoResponse	0	n/a	n/a	4	26	Blank	MissedWin	True
258.278	0.3	Win2	0.5926	0.004	No	2.921	-0.004	2.0	NoResponse	0	0.253	n/a	4	26	ButtonPress	MissedWin	True
258.727	1.45	Win2	0.5926	n/a	No	2.921	n/a	5.0	NoResponse	0	0.027	257.754	4	26	Feedback	MissedWin	True
260.181	2.921	Win2	0.5926	n/a	No	2.921	n/a	n/a	NoResponse	0	0.0	n/a	4	26	ISIslide	MissedWin	True
263.123	0.25	Lose2	0.5714	0.0	No	2.827	0.023	n/a	NoResponse	-1	n/a	n/a	3	27	Cue	Loss	True
263.374	4.05	Lose2	0.5714	0.0	No	2.827	0.001	n/a	NoResponse	-1	n/a	n/a	3	27	Fixation	Loss	True
267.419	0.19	Lose2	0.5714	0.004	No	2.827	-0.004	2.0	NoResponse	-1	0.24	266.659	3	27	Target	Loss	True
267.62	0.51	Lose2	0.5714	n/a	No	2.827	n/a	n/a	NoResponse	-1	n/a	n/a	3	27	Blank	Loss	True
267.659	0.3	Lose2	0.5714	0.004	No	2.827	-0.004	2.0	NoResponse	-1	0.24	n/a	3	27	ButtonPress	Loss	True
268.121	1.45	Lose2	0.5714	n/a	No	2.827	n/a	5.0	NoResponse	-1	0.048	267.169	3	27	Feedback	Loss	True
269.576	2.827	Lose2	0.5714	n/a	No	2.827	n/a	n/a	NoResponse	-1	0.0	n/a	3	27	ISIslide	Loss	True
272.418	0.25	Control	0.5517	0.0	No	2.832	0.018	n/a	NoResponse	0	n/a	n/a	3	28	Cue	Neutral	True
272.668	4.05	Control	0.5517	0.001	No	2.832	0.0	n/a	NoResponse	0	n/a	n/a	3	28	Fixation	Neutral	True
276.714	0.2	Control	0.5517	0.004	No	2.832	-0.004	2.0	NoResponse	0	0.253	275.967	3	28	Target	Neutral	True
276.914	0.5	Control	0.5517	n/a	No	2.832	n/a	n/a	NoResponse	0	n/a	n/a	3	28	Blank	Neutral	True
276.967	0.3	Control	0.5517	0.004	No	2.832	-0.004	2.0	NoResponse	0	0.253	n/a	3	28	ButtonPress	Neutral	True
277.416	1.45	Control	0.5517	n/a	No	2.832	n/a	5.0	NoResponse	0	0.02	276.436	3	28	Feedback	Neutral	True
278.87	2.832	Control	0.5517	n/a	No	2.832	n/a	n/a	NoResponse	0	0.0	n/a	3	28	ISIslide	Neutral	True
281.729	0.25	Lose2	0.5667	0.0	Yes	2.821	0.029	n/a	GoodResponse	0	n/a	n/a	3	29	Cue	AvoidedLoss	True
281.98	3.95	Lose2	0.5667	0.0	Yes	2.821	0.001	n/a	GoodResponse	0	n/a	n/a	3	29	Fixation	AvoidedLoss	True
285.925	0.21	Lose2	0.5667	0.004	Yes	2.821	-0.004	2.0	GoodResponse	0	0.195	285.12	3	29	Target	AvoidedLoss	True
286.12	0.3	Lose2	0.5667	0.004	Yes	2.821	-0.004	2.0	GoodResponse	0	0.195	n/a	3	29	ButtonPress	AvoidedLoss	True
286.142	0.49	Lose2	0.5667	n/a	Yes	2.821	n/a	n/a	GoodResponse	0	n/a	n/a	3	29	Blank	AvoidedLoss	True
286.627	1.45	Lose2	0.5667	n/a	Yes	2.821	n/a	5.0	GoodResponse	0	0.028	285.655	3	29	Feedback	AvoidedLoss	True
288.081	2.821	Lose2	0.5667	n/a	Yes	2.821	n/a	n/a	GoodResponse	0	0.0	n/a	3	29	ISIslide	AvoidedLoss	True
290.923	0.25	Win2	0.5484	0.0	No	2.777	0.023	n/a	NoResponse	0	n/a	n/a	3	30	Cue	MissedWin	True
291.174	3.9	Win2	0.5484	0.0	No	2.777	0.001	n/a	NoResponse	0	n/a	n/a	3	30	Fixation	MissedWin	True
295.069	0.22	Win2	0.5484	0.004	No	2.777	-0.004	2.0	NoResponse	0	0.242	294.311	3	30	Target	MissedWin	True
295.303	0.48	Win2	0.5484	n/a	No	2.777	n/a	n/a	NoResponse	0	n/a	n/a	3	30	Blank	MissedWin	True
295.311	0.3	Win2	0.5484	0.004	No	2.777	-0.004	2.0	NoResponse	0	0.242	n/a	3	30	ButtonPress	MissedWin	True
295.771	1.45	Win2	0.5484	n/a	No	2.777	n/a	5.0	NoResponse	0	0.007	294.778	3	30	Feedback	MissedWin	True
297.225	2.777	Win2	0.5484	n/a	No	2.777	n/a	n/a	NoResponse	0	0.0	n/a	3	30	ISIslide	MissedWin	True
300.017	0.25	Lose2	0.5625	0.0	Yes	2.833	0.017	n/a	GoodResponse	0	n/a	n/a	3	31	Cue	AvoidedLoss	True
300.268	4.05	Lose2	0.5625	0.0	Yes	2.833	0.001	n/a	GoodResponse	0	n/a	n/a	3	31	Fixation	AvoidedLoss	True
304.313	0.23	Lose2	0.5625	0.004	Yes	2.833	-0.004	2.0	GoodResponse	0	0.224	303.537	3	31	Target	AvoidedLoss	True
304.537	0.3	Lose2	0.5625	0.004	Yes	2.833	-0.004	2.0	GoodResponse	0	0.224	n/a	3	31	ButtonPress	AvoidedLoss	True
304.547	0.47	Lose2	0.5625	n/a	Yes	2.833	n/a	n/a	GoodResponse	0	n/a	n/a	3	31	Blank	AvoidedLoss	True
305.015	1.45	Lose2	0.5625	n/a	Yes	2.833	n/a	5.0	GoodResponse	0	0.031	304.046	3	31	Feedback	AvoidedLoss	True
306.47	2.833	Lose2	0.5625	n/a	Yes	2.833	n/a	n/a	GoodResponse	0	0.0	n/a	3	31	ISIslide	AvoidedLoss	True
309.328	0.25	Lose2	0.5758	0.0	Yes	2.622	0.028	n/a	GoodResponse	0	n/a	n/a	3	32	Cue	AvoidedLoss	True
309.579	4.15	Lose2	0.5758	0.0	Yes	2.622	0.001	n/a	GoodResponse	0	n/a	n/a	3	32	Fixation	AvoidedLoss	True
313.725	0.24	Lose2	0.5758	0.003	Yes	2.622	-0.003	2.0	GoodResponse	0	0.203	312.928	3	32	Target	AvoidedLoss	True
313.928	0.3	Lose2	0.5758	0.003	Yes	2.622	-0.003	2.0	GoodResponse	0	0.203	n/a	3	32	ButtonPress	AvoidedLoss	True
313.975	0.46	Lose2	0.5758	n/a	Yes	2.622	n/a	n/a	GoodResponse	0	n/a	n/a	3	32	Blank	AvoidedLoss	True
314.427	1.45	Lose2	0.5758	n/a	Yes	2.622	n/a	5.0	GoodResponse	0	0.034	313.461	3	32	Feedback	AvoidedLoss	True
315.881	2.622	Lose2	0.5758	n/a	Yes	2.622	n/a	n/a	GoodResponse	0	0.0	n/a	3	32	ISIslide	AvoidedLoss	True
318.522	0.25	Win2	0.5882000000000001	0.0	Yes	2.678	0.022	n/a	GoodResponse	1	n/a	n/a	4	33	Cue	Win	True
318.773	4.0	Win2	0.5882000000000001	0.0	Yes	2.678	0.001	n/a	GoodResponse	1	n/a	n/a	4	33	Fixation	Win	True
322.768	0.25	Win2	0.5882000000000001	0.004	Yes	2.678	-0.004	2.0	GoodResponse	1	0.232	322.0	4	33	Target	Win	True
323	0.3	Win2	0.5882000000000001	0.004	Yes	2.678	-0.004	2.0	GoodResponse	1	0.232	n/a	4	33	ButtonPress	Win	True
323.019	0.45	Win2	0.5882000000000001	n/a	Yes	2.678	n/a	n/a	GoodResponse	1	n/a	n/a	4	33	Blank	Win	True
323.47	1.45	Win2	0.5882000000000001	n/a	Yes	2.678	n/a	5.0	GoodResponse	1	0.015	322.485	4	33	Feedback	Win	True
324.925	2.678	Win2	0.5882000000000001	n/a	Yes	2.678	n/a	n/a	GoodResponse	1	0.0	n/a	4	33	ISIslide	Win	True
327.616	0.25	Lose2	0.5714	0.0	No	2.634	0.016	n/a	NoResponse	-1	n/a	n/a	3	34	Cue	Loss	True
327.867	4.05	Lose2	0.5714	0.0	No	2.634	0.001	2.0	NoResponse	-1	3.982	330.849	3	34	Fixation	Loss	True
331.849	0.3	Lose2	0.5714	0.0	No	2.634	0.001	2.0	NoResponse	-1	3.982	n/a	3	34	ButtonPress	Loss	True
331.912	0.26	Lose2	0.5714	0.004	No	2.634	-0.004	n/a	NoResponse	-1	n/a	n/a	3	34	Target	Loss	True
332.18	0.44	Lose2	0.5714	n/a	No	2.634	n/a	n/a	NoResponse	-1	n/a	n/a	3	34	Blank	Loss	True
332.615	1.45	Lose2	0.5714	n/a	No	2.634	n/a	5.0	NoResponse	-1	0.04	331.655	3	34	Feedback	Loss	True
334.069	2.634	Lose2	0.5714	n/a	No	2.634	n/a	n/a	NoResponse	-1	0.0	n/a	3	34	ISIslide	Loss	True
336.727	0.25	Lose2	0.5556	0.0	No	2.673	0.027	n/a	LatePress	-1	n/a	n/a	2	35	Cue	Loss	True
336.978	4.0	Lose2	0.5556	0.0	No	2.673	0.001	n/a	LatePress	-1	n/a	n/a	2	35	Fixation	Loss	True
340.973	0.27	Lose2	0.5556	0.004	No	2.673	-0.004	2.0	LatePress	-1	0.282	340.255	2	35	Target	Loss	True
341.255	0.3	Lose2	0.5556	0.004	No	2.673	-0.004	2.0	LatePress	-1	0.282	n/a	2	35	ButtonPress	Loss	True
341.257	0.43	Lose2	0.5556	n/a	No	2.673	n/a	n/a	LatePress	-1	n/a	n/a	2	35	Blank	Loss	True
341.675	1.45	Lose2	0.5556	n/a	No	2.673	n/a	5.0	LatePress	-1	0.007	340.682	2	35	Feedback	Loss	True
343.129	2.673	Lose2	0.5556	n/a	No	2.673	n/a	n/a	LatePress	-1	0.0	n/a	2	35	ISIslide	Loss	True
345.821	0.25	Control	0.5676	0.0	Yes	2.679	0.021	n/a	GoodResponse	0	n/a	n/a	2	36	Cue	Neutral	True
346.071	4.0	Control	0.5676	0.001	Yes	2.679	0.0	n/a	GoodResponse	0	n/a	n/a	2	36	Fixation	Neutral	True
350.067	0.28	Control	0.5676	0.004	Yes	2.679	-0.004	2.0	GoodResponse	0	0.223	349.29	2	36	Target	Neutral	True
350.29	0.3	Control	0.5676	0.004	Yes	2.679	-0.004	2.0	GoodResponse	0	0.223	n/a	2	36	ButtonPress	Neutral	True
350.351	0.42	Control	0.5676	n/a	Yes	2.679	n/a	n/a	GoodResponse	0	n/a	n/a	2	36	Blank	Neutral	True
350.769	1.45	Control	0.5676	n/a	Yes	2.679	n/a	5.0	GoodResponse	0	0.033	349.802	2	36	Feedback	Neutral	True
352.223	2.679	Control	0.5676	n/a	Yes	2.679	n/a	n/a	GoodResponse	0	0.0	n/a	2	36	ISIslide	Neutral	True
354.931	0.25	Win2	0.5789	0.0	Yes	2.869	0.031	n/a	GoodResponse	1	n/a	n/a	3	37	Cue	Win	True
355.182	4.0	Win2	0.5789	0.0	Yes	2.869	0.001	n/a	GoodResponse	1	n/a	n/a	3	37	Fixation	Win	True
359.177	0.29	Win2	0.5789	0.004	Yes	2.869	-0.004	2.0	GoodResponse	1	0.225	358.402	3	37	Target	Win	True
359.402	0.3	Win2	0.5789	0.004	Yes	2.869	-0.004	2.0	GoodResponse	1	0.225	n/a	3	37	ButtonPress	Win	True
359.478	0.41	Win2	0.5789	n/a	Yes	2.869	n/a	n/a	GoodResponse	1	n/a	n/a	3	37	Blank	Win	True
359.879	1.45	Win2	0.5789	n/a	Yes	2.869	n/a	5.0	GoodResponse	1	0.045	358.924	3	37	Feedback	Win	True
361.334	2.869	Win2	0.5789	n/a	Yes	2.869	n/a	n/a	GoodResponse	1	0.0	n/a	3	37	ISIslide	Win	True
364.226	0.25	Lose2	0.5897	0.0	Yes	2.824	0.026	n/a	GoodResponse	0	n/a	n/a	3	38	Cue	AvoidedLoss	True
364.477	3.95	Lose2	0.5897	0.0	Yes	2.824	0.001	n/a	GoodResponse	0	n/a	n/a	3	38	Fixation	AvoidedLoss	True
368.422	0.3	Lose2	0.5897	0.004	Yes	2.824	-0.004	2.0	GoodResponse	0	0.247	367.669	3	38	Target	AvoidedLoss	True
368.669	0.3	Lose2	0.5897	0.004	Yes	2.824	-0.004	2.0	GoodResponse	0	0.247	n/a	3	38	ButtonPress	AvoidedLoss	True
368.723	0.4	Lose2	0.5897	n/a	Yes	2.824	n/a	n/a	GoodResponse	0	n/a	n/a	3	38	Blank	AvoidedLoss	True
369.124	1.45	Lose2	0.5897	n/a	Yes	2.824	n/a	5.0	GoodResponse	0	0.019	368.143	3	38	Feedback	AvoidedLoss	True
370.578	2.824	Lose2	0.5897	n/a	Yes	2.824	n/a	n/a	GoodResponse	0	0.0	n/a	3	38	ISIslide	AvoidedLoss	True
373.42	0.25	Win2	0.6	0.0	Yes	2.98	0.02	n/a	GoodResponse	1	n/a	n/a	4	39	Cue	Win	True
373.671	4.1	Win2	0.6	0.0	Yes	2.98	0.001	n/a	GoodResponse	1	n/a	n/a	4	39	Fixation	Win	True
377.766	0.31	Win2	0.6	0.004	Yes	2.98	-0.004	2.0	GoodResponse	1	0.237	377.003	4	39	Target	Win	True
378.003	0.3	Win2	0.6	0.004	Yes	2.98	-0.004	2.0	GoodResponse	1	0.237	n/a	4	39	ButtonPress	Win	True
378.084	0.39	Win2	0.6	n/a	Yes	2.98	n/a	n/a	GoodResponse	1	n/a	n/a	4	39	Blank	Win	True
378.468	1.45	Win2	0.6	n/a	Yes	2.98	n/a	5.0	GoodResponse	1	0.04	377.508	4	39	Feedback	Win	True
379.923	2.98	Win2	0.6	n/a	Yes	2.98	n/a	n/a	GoodResponse	1	0.0	n/a	4	39	ISIslide	Win	True
382.932	0.25	Win2	0.6098	0.0	Yes	2.718	0.032	n/a	GoodResponse	1	n/a	n/a	5	40	Cue	Win	True
383.183	3.95	Win2	0.6098	0.0	Yes	2.718	0.001	n/a	GoodResponse	1	n/a	n/a	5	40	Fixation	Win	True
387.128	0.32	Win2	0.6098	0.004	Yes	2.718	-0.004	2.0	GoodResponse	1	0.264	386.392	5	40	Target	Win	True
387.392	0.3	Win2	0.6098	0.004	Yes	2.718	-0.004	2.0	GoodResponse	1	0.264	n/a	5	40	ButtonPress	Win	True
387.462	0.38	Win2	0.6098	n/a	Yes	2.718	n/a	n/a	GoodResponse	1	n/a	n/a	5	40	Blank	Win	True
387.83	1.45	Win2	0.6098	n/a	Yes	2.718	n/a	5.0	GoodResponse	1	0.044	386.874	5	40	Feedback	Win	True
389.284	2.718	Win2	0.6098	n/a	Yes	2.718	n/a	n/a	GoodResponse	1	0.0	n/a	5	40	ISIslide	Win	True
392.026	0.25	Win2	0.619	0.0	Yes	2.774	0.026	n/a	GoodResponse	1	n/a	n/a	6	41	Cue	Win	True
392.276	3.9	Win2	0.619	0.001	Yes	2.774	0.0	n/a	GoodResponse	1	n/a	n/a	6	41	Fixation	Win	True
396.188	0.33	Win2	0.619	0.0	Yes	2.774	0.012	2.0	GoodResponse	1	0.258	395.446	6	41	Target	Win	True
396.446	0.3	Win2	0.619	0.0	Yes	2.774	0.012	2.0	GoodResponse	1	0.258	n/a	6	41	ButtonPress	Win	True
396.506	0.37	Win2	0.619	n/a	Yes	2.774	n/a	n/a	GoodResponse	1	n/a	n/a	6	41	Blank	Win	True
396.874	1.45	Win2	0.619	n/a	Yes	2.774	n/a	5.0	GoodResponse	1	0.025	395.899	6	41	Feedback	Win	True
398.328	2.774	Win2	0.619	n/a	Yes	2.774	n/a	n/a	GoodResponse	1	0.0	n/a	6	41	ISIslide	Win	True
401.12	0.25	Control	0.6279	0.0	Yes	2.93	0.02	n/a	GoodResponse	0	n/a	n/a	6	42	Cue	Neutral	True
401.37	3.85	Control	0.6279	0.0	Yes	2.93	0.0	n/a	GoodResponse	0	n/a	n/a	6	42	Fixation	Neutral	True
405.232	0.34	Control	0.6279	0.0	Yes	2.93	0.012	2.0	GoodResponse	0	0.255	404.487	6	42	Target	Neutral	True
405.487	0.3	Control	0.6279	0.0	Yes	2.93	0.012	2.0	GoodResponse	0	0.255	n/a	6	42	ButtonPress	Neutral	True
405.566	0.36	Control	0.6279	n/a	Yes	2.93	n/a	n/a	GoodResponse	0	n/a	n/a	6	42	Blank	Neutral	True
405.917	1.45	Control	0.6279	n/a	Yes	2.93	n/a	5.0	GoodResponse	0	0.008	404.925	6	42	Feedback	Neutral	True
407.372	2.93	Control	0.6279	n/a	Yes	2.93	n/a	n/a	GoodResponse	0	0.0	n/a	6	42	ISIslide	Neutral	True
410.33	0.25	Win2	0.6364	0.001	Yes	3.17	0.03	n/a	GoodResponse	1	n/a	n/a	7	43	Cue	Win	True
410.581	4.0	Win2	0.6364	0.0	Yes	3.17	0.001	n/a	GoodResponse	1	n/a	n/a	7	43	Fixation	Win	True
414.577	0.35	Win2	0.6364	0.003	Yes	3.17	-0.003	2.0	GoodResponse	1	0.303	413.88	7	43	Target	Win	True
414.88	0.3	Win2	0.6364	0.003	Yes	3.17	-0.003	2.0	GoodResponse	1	0.303	n/a	7	43	ButtonPress	Win	True
414.928	0.35	Win2	0.6364	n/a	Yes	3.17	n/a	n/a	GoodResponse	1	n/a	n/a	7	43	Blank	Win	True
415.279	1.45	Win2	0.6364	n/a	Yes	3.17	n/a	5.0	GoodResponse	1	0.01	414.289	7	43	Feedback	Win	True
416.733	3.17	Win2	0.6364	n/a	Yes	3.17	n/a	n/a	GoodResponse	1	0.0	n/a	7	43	ISIslide	Win	True
419.926	0.25	Win2	0.6444	0.0	Yes	2.974	0.026	n/a	GoodResponse	1	n/a	n/a	8	44	Cue	Win	True
420.177	4.0	Win2	0.6444	0.0	Yes	2.974	0.001	n/a	GoodResponse	1	n/a	n/a	8	44	Fixation	Win	True
424.172	0.36	Win2	0.6444	0.004	Yes	2.974	-0.004	2.0	GoodResponse	1	0.232	423.404	8	44	Target	Win	True
424.404	0.3	Win2	0.6444	0.004	Yes	2.974	-0.004	2.0	GoodResponse	1	0.232	n/a	8	44	ButtonPress	Win	True
424.54	0.34	Win2	0.6444	n/a	Yes	2.974	n/a	n/a	GoodResponse	1	n/a	n/a	8	44	Blank	Win	True
424.874	1.45	Win2	0.6444	n/a	Yes	2.974	n/a	5.0	GoodResponse	1	0.025	423.899	8	44	Feedback	Win	True
426.328	2.974	Win2	0.6444	n/a	Yes	2.974	n/a	n/a	GoodResponse	1	0.0	n/a	8	44	ISIslide	Win	True
429.321	0.25	Control	0.6522	0.0	Yes	2.879	0.021	n/a	GoodResponse	0	n/a	n/a	8	45	Cue	Neutral	True
429.571	4.1	Control	0.6522	0.001	Yes	2.879	0.0	n/a	GoodResponse	0	n/a	n/a	8	45	Fixation	Neutral	True
433.667	0.37	Control	0.6522	0.004	Yes	2.879	-0.004	2.0	GoodResponse	0	0.218	432.885	8	45	Target	Neutral	True
433.885	0.3	Control	0.6522	0.004	Yes	2.879	-0.004	2.0	GoodResponse	0	0.218	n/a	8	45	ButtonPress	Neutral	True
434.052	0.33	Control	0.6522	n/a	Yes	2.879	n/a	n/a	GoodResponse	0	n/a	n/a	8	45	Blank	Neutral	True
434.369	1.45	Control	0.6522	n/a	Yes	2.879	n/a	5.0	GoodResponse	0	0.041	433.41	8	45	Feedback	Neutral	True
435.823	2.879	Control	0.6522	n/a	Yes	2.879	n/a	n/a	GoodResponse	0	0.0	n/a	8	45	ISIslide	Neutral	True
438.715	0.25	Lose2	0.6596	0.001	Yes	3.385	0.015	n/a	GoodResponse	0	n/a	n/a	8	46	Cue	AvoidedLoss	True
438.966	4.0	Lose2	0.6596	0.0	Yes	3.385	0.001	n/a	GoodResponse	0	n/a	n/a	8	46	Fixation	AvoidedLoss	True
442.962	0.38	Lose2	0.6596	0.003	Yes	3.385	-0.003	2.0	GoodResponse	0	0.25	442.212	8	46	Target	AvoidedLoss	True
443.212	0.3	Lose2	0.6596	0.003	Yes	3.385	-0.003	2.0	GoodResponse	0	0.25	n/a	8	46	ButtonPress	AvoidedLoss	True
443.346	0.32	Lose2	0.6596	n/a	Yes	3.385	n/a	n/a	GoodResponse	0	n/a	n/a	8	46	Blank	AvoidedLoss	True
443.664	1.45	Lose2	0.6596	n/a	Yes	3.385	n/a	5.0	GoodResponse	0	0.015	442.679	8	46	Feedback	AvoidedLoss	True
445.118	3.385	Lose2	0.6596	n/a	Yes	3.385	n/a	n/a	GoodResponse	0	0.0	n/a	8	46	ISIslide	AvoidedLoss	True
448.528	0.25	Lose2	0.6667000000000001	0.0	Yes	2.672	0.028	n/a	GoodResponse	0	n/a	n/a	8	47	Cue	AvoidedLoss	True
448.779	4.0	Lose2	0.6667000000000001	0.0	Yes	2.672	0.001	n/a	GoodResponse	0	n/a	n/a	8	47	Fixation	AvoidedLoss	True
452.774	0.38	Lose2	0.6667000000000001	0.004	Yes	2.672	-0.004	2.0	GoodResponse	0	0.256	452.03	8	47	Target	AvoidedLoss	True
453.03	0.3	Lose2	0.6667000000000001	0.004	Yes	2.672	-0.004	2.0	GoodResponse	0	0.256	n/a	8	47	ButtonPress	AvoidedLoss	True
453.159	0.32	Lose2	0.6667000000000001	n/a	Yes	2.672	n/a	n/a	GoodResponse	0	n/a	n/a	8	47	Blank	AvoidedLoss	True
453.476	1.45	Lose2	0.6667000000000001	n/a	Yes	2.672	n/a	5.0	GoodResponse	0	0.008	452.484	8	47	Feedback	AvoidedLoss	True
454.931	2.672	Lose2	0.6667000000000001	n/a	Yes	2.672	n/a	n/a	GoodResponse	0	0.0	n/a	8	47	ISIslide	AvoidedLoss	True
457.622	0.25	Lose2	0.6531	0.0	No	3.028	0.022	n/a	NoResponse	-1	n/a	n/a	7	48	Cue	Loss	True
457.873	3.95	Lose2	0.6531	0.0	No	3.028	0.001	n/a	NoResponse	-1	n/a	n/a	7	48	Fixation	Loss	True
461.818	0.37	Lose2	0.6531	0.004	No	3.028	-0.004	2.0	NoResponse	-1	0.426	461.244	7	48	Target	Loss	True
462.202	0.33	Lose2	0.6531	n/a	No	3.028	n/a	n/a	NoResponse	-1	n/a	n/a	7	48	Blank	Loss	True
462.244	0.3	Lose2	0.6531	0.004	No	3.028	-0.004	2.0	NoResponse	-1	0.426	n/a	7	48	ButtonPress	Loss	True
462.52	1.45	Lose2	0.6531	n/a	No	3.028	n/a	5.0	NoResponse	-1	0.037	461.557	7	48	Feedback	Loss	True
463.974	3.028	Lose2	0.6531	n/a	No	3.028	n/a	n/a	NoResponse	-1	0.0	n/a	7	48	ISIslide	Loss	True
467.017	0.25	Control	0.66	0.0	Yes	2.883	0.017	n/a	GoodResponse	0	n/a	n/a	7	49	Cue	Neutral	True
467.268	4.0	Control	0.66	0.0	Yes	2.883	0.001	n/a	GoodResponse	0	n/a	n/a	7	49	Fixation	Neutral	True
471.263	0.38	Control	0.66	0.004	Yes	2.883	-0.004	2.0	GoodResponse	0	0.245	470.508	7	49	Target	Neutral	True
471.508	0.3	Control	0.66	0.004	Yes	2.883	-0.004	2.0	GoodResponse	0	0.245	n/a	7	49	ButtonPress	Neutral	True
471.647	0.32	Control	0.66	n/a	Yes	2.883	n/a	n/a	GoodResponse	0	n/a	n/a	7	49	Blank	Neutral	True
471.965	1.45	Control	0.66	n/a	Yes	2.883	n/a	5.0	GoodResponse	0	0.007	470.972	7	49	Feedback	Neutral	True
473.419	2.883	Control	0.66	n/a	Yes	2.883	n/a	n/a	GoodResponse	0	0.0	n/a	7	49	ISIslide	Neutral	True
476.328	0.25	Control	0.6667000000000001	0.0	Yes	2.772	0.028	n/a	GoodResponse	0	n/a	n/a	7	50	Cue	Neutral	True
476.579	4.0	Control	0.6667000000000001	0.0	Yes	2.772	0.001	n/a	GoodResponse	0	n/a	n/a	7	50	Fixation	Neutral	True
480.574	0.38	Control	0.6667000000000001	0.004	Yes	2.772	-0.004	2.0	GoodResponse	0	0.21	479.784	7	50	Target	Neutral	True
480.784	0.3	Control	0.6667000000000001	0.004	Yes	2.772	-0.004	2.0	GoodResponse	0	0.21	n/a	7	50	ButtonPress	Neutral	True
480.959	0.32	Control	0.6667000000000001	n/a	Yes	2.772	n/a	n/a	GoodResponse	0	n/a	n/a	7	50	Blank	Neutral	True
481.276	1.45	Control	0.6667000000000001	n/a	Yes	2.772	n/a	5.0	GoodResponse	0	0.012	480.288	7	50	Feedback	Neutral	True
482.731	2.772	Control	0.6667000000000001	n/a	Yes	2.772	n/a	n/a	GoodResponse	0	0.0	n/a	7	50	ISIslide	Neutral	True
485.522	0.25	Control	0.6731	0.0	Yes	2.728	0.022	n/a	GoodResponse	0	n/a	n/a	7	51	Cue	Neutral	True
485.773	3.95	Control	0.6731	0.0	Yes	2.728	0.001	n/a	GoodResponse	0	n/a	n/a	7	51	Fixation	Neutral	True
489.718	0.37	Control	0.6731	0.004	Yes	2.728	-0.004	2.0	GoodResponse	0	0.223	488.941	7	51	Target	Neutral	True
489.941	0.3	Control	0.6731	0.004	Yes	2.728	-0.004	2.0	GoodResponse	0	0.223	n/a	7	51	ButtonPress	Neutral	True
490.103	0.33	Control	0.6731	n/a	Yes	2.728	n/a	n/a	GoodResponse	0	n/a	n/a	7	51	Blank	Neutral	True
490.42	1.45	Control	0.6731	n/a	Yes	2.728	n/a	5.0	GoodResponse	0	0.039	489.459	7	51	Feedback	Neutral	True
491.875	2.728	Control	0.6731	n/a	Yes	2.728	n/a	n/a	GoodResponse	0	0.0	n/a	7	51	ISIslide	Neutral	True
494.616	0.25	Control	0.6792	0.0	Yes	2.634	0.016	n/a	GoodResponse	0	n/a	n/a	7	52	Cue	Neutral	True
494.867	4.05	Control	0.6792	0.0	Yes	2.634	0.001	n/a	GoodResponse	0	n/a	n/a	7	52	Fixation	Neutral	True
498.912	0.36	Control	0.6792	0.004	Yes	2.634	-0.004	2.0	GoodResponse	0	0.261	498.173	7	52	Target	Neutral	True
499.173	0.3	Control	0.6792	0.004	Yes	2.634	-0.004	2.0	GoodResponse	0	0.261	n/a	7	52	ButtonPress	Neutral	True
499.28	0.34	Control	0.6792	n/a	Yes	2.634	n/a	n/a	GoodResponse	0	n/a	n/a	7	52	Blank	Neutral	True
499.614	1.45	Control	0.6792	n/a	Yes	2.634	n/a	5.0	GoodResponse	0	0.015	498.629	7	52	Feedback	Neutral	True
501.069	2.634	Control	0.6792	n/a	Yes	2.634	n/a	n/a	GoodResponse	0	0.0	n/a	7	52	ISIslide	Neutral	True
503.727	0.25	Win2	0.6851999999999999	0.0	Yes	2.923	0.027	n/a	GoodResponse	1	n/a	n/a	8	53	Cue	Win	True
503.977	4.05	Win2	0.6851999999999999	0.001	Yes	2.923	0.0	n/a	GoodResponse	1	n/a	n/a	8	53	Fixation	Win	True
508.023	0.35	Win2	0.6851999999999999	0.004	Yes	2.923	-0.004	2.0	GoodResponse	1	0.236	507.259	8	53	Target	Win	True
508.259	0.3	Win2	0.6851999999999999	0.004	Yes	2.923	-0.004	2.0	GoodResponse	1	0.236	n/a	8	53	ButtonPress	Win	True
508.374	0.35	Win2	0.6851999999999999	n/a	Yes	2.923	n/a	n/a	GoodResponse	1	n/a	n/a	8	53	Blank	Win	True
508.725	1.45	Win2	0.6851999999999999	n/a	Yes	2.923	n/a	5.0	GoodResponse	1	0.026	507.751	8	53	Feedback	Win	True
510.179	2.923	Win2	0.6851999999999999	n/a	Yes	2.923	n/a	n/a	GoodResponse	1	0.0	n/a	8	53	ISIslide	Win	True
513.122	0.25	Win2	0.6909000000000001	0.0	Yes	2.728	0.022	n/a	GoodResponse	1	n/a	n/a	9	54	Cue	Win	True
513.372	3.95	Win2	0.6909000000000001	0.0	Yes	2.728	0.0	n/a	GoodResponse	1	n/a	n/a	9	54	Fixation	Win	True
517.334	0.34	Win2	0.6909000000000001	0.0	Yes	2.728	0.012	2.0	GoodResponse	1	0.233	516.567	9	54	Target	Win	True
517.567	0.3	Win2	0.6909000000000001	0.0	Yes	2.728	0.012	2.0	GoodResponse	1	0.233	n/a	9	54	ButtonPress	Win	True
517.668	0.36	Win2	0.6909000000000001	n/a	Yes	2.728	n/a	n/a	GoodResponse	1	n/a	n/a	9	54	Blank	Win	True
518.02	1.45	Win2	0.6909000000000001	n/a	Yes	2.728	n/a	5.0	GoodResponse	1	0.0	517.02	9	54	Feedback	Win	True
519.474	2.728	Win2	0.6909000000000001	n/a	Yes	2.728	n/a	n/a	GoodResponse	1	0.0	n/a	9	54	ISIslide	Win	True
522.215	0.25	Control	0.6786	0.001	No	3.035	0.015	n/a	NoResponse	0	n/a	n/a	9	55	Cue	Neutral	False
522.466	3.95	Control	0.6786	0.0	No	3.035	0.001	n/a	NoResponse	0	n/a	n/a	9	55	Fixation	Neutral	False
526.411	0.33	Control	0.6786	0.004	No	3.035	-0.004	n/a	NoResponse	0	n/a	n/a	9	55	Target	Neutral	False
526.746	0.37	Control	0.6786	n/a	No	3.035	n/a	n/a	NoResponse	0	n/a	n/a	9	55	Blank	Neutral	False
527.113	1.45	Control	0.6786	n/a	No	3.035	n/a	5.0	NoResponse	0	0.029	526.142	9	55	Feedback	Neutral	False
528.568	3.035	Control	0.6786	n/a	No	3.035	n/a	n/a	NoResponse	0	0.0	n/a	9	55	ISIslide	Neutral	False
531.627	0.25	Control	0.6842	0.0	Yes	2.823	0.027	n/a	GoodResponse	0	n/a	n/a	9	56	Cue	Neutral	True
531.878	3.95	Control	0.6842	0.0	Yes	2.823	0.001	n/a	GoodResponse	0	n/a	n/a	9	56	Fixation	Neutral	True
535.823	0.32	Control	0.6842	0.004	Yes	2.823	-0.004	2.0	GoodResponse	0	0.241	535.064	9	56	Target	Neutral	True
536.064	0.3	Control	0.6842	0.004	Yes	2.823	-0.004	2.0	GoodResponse	0	0.241	n/a	9	56	ButtonPress	Neutral	True
536.157	0.38	Control	0.6842	n/a	Yes	2.823	n/a	n/a	GoodResponse	0	n/a	n/a	9	56	Blank	Neutral	True
536.525	1.45	Control	0.6842	n/a	Yes	2.823	n/a	5.0	GoodResponse	0	0.031	535.556	9	56	Feedback	Neutral	True
537.979	2.823	Control	0.6842	n/a	Yes	2.823	n/a	n/a	GoodResponse	0	0.0	n/a	9	56	ISIslide	Neutral	True
540.821	0.25	Control	0.6897	0.0	Yes	3.479	0.021	n/a	GoodResponse	0	n/a	n/a	9	57	Cue	Neutral	True
541.072	4.0	Control	0.6897	0.0	Yes	3.479	0.001	n/a	GoodResponse	0	n/a	n/a	9	57	Fixation	Neutral	True
545.067	0.31	Control	0.6897	0.004	Yes	3.479	-0.004	2.0	GoodResponse	0	0.25	544.317	9	57	Target	Neutral	True
545.317	0.3	Control	0.6897	0.004	Yes	3.479	-0.004	2.0	GoodResponse	0	0.25	n/a	9	57	ButtonPress	Neutral	True
545.385	0.39	Control	0.6897	n/a	Yes	3.479	n/a	n/a	GoodResponse	0	n/a	n/a	9	57	Blank	Neutral	True
545.769	1.45	Control	0.6897	n/a	Yes	3.479	n/a	5.0	GoodResponse	0	0.006	544.775	9	57	Feedback	Neutral	True
547.224	3.479	Control	0.6897	n/a	Yes	3.479	n/a	n/a	GoodResponse	0	0.0	n/a	9	57	ISIslide	Neutral	True
550.717	0.25	Win2	0.6949	0.0	Yes	2.733	0.017	n/a	GoodResponse	1	n/a	n/a	10	58	Cue	Win	True
550.968	4.05	Win2	0.6949	0.0	Yes	2.733	0.001	n/a	GoodResponse	1	n/a	n/a	10	58	Fixation	Win	True
555.014	0.3	Win2	0.6949	0.003	Yes	2.733	-0.003	2.0	GoodResponse	1	0.22	554.234	10	58	Target	Win	True
555.234	0.3	Win2	0.6949	0.003	Yes	2.733	-0.003	2.0	GoodResponse	1	0.22	n/a	10	58	ButtonPress	Win	True
555.314	0.4	Win2	0.6949	n/a	Yes	2.733	n/a	n/a	GoodResponse	1	n/a	n/a	10	58	Blank	Win	True
555.716	1.45	Win2	0.6949	n/a	Yes	2.733	n/a	5.0	GoodResponse	1	0.011	554.727	10	58	Feedback	Win	True
557.17	2.733	Win2	0.6949	n/a	Yes	2.733	n/a	n/a	GoodResponse	1	0.0	n/a	10	58	ISIslide	Win	True
559.928	0.25	Lose2	0.7	0.0	Yes	2.672	0.028	n/a	GoodResponse	0	n/a	n/a	10	59	Cue	AvoidedLoss	True
560.179	4.0	Lose2	0.7	0.0	Yes	2.672	0.001	n/a	GoodResponse	0	n/a	n/a	10	59	Fixation	AvoidedLoss	True
564.174	0.29	Lose2	0.7	0.004	Yes	2.672	-0.004	2.0	GoodResponse	0	0.231	563.405	10	59	Target	AvoidedLoss	True
564.405	0.3	Lose2	0.7	0.004	Yes	2.672	-0.004	2.0	GoodResponse	0	0.231	n/a	10	59	ButtonPress	AvoidedLoss	True
564.475	0.41	Lose2	0.7	n/a	Yes	2.672	n/a	n/a	GoodResponse	0	n/a	n/a	10	59	Blank	AvoidedLoss	True
564.876	1.45	Lose2	0.7	n/a	Yes	2.672	n/a	5.0	GoodResponse	0	0.021	563.897	10	59	Feedback	AvoidedLoss	True
566.331	2.672	Lose2	0.7	n/a	Yes	2.672	n/a	n/a	GoodResponse	0	0.0	n/a	10	59	ISIslide	AvoidedLoss	True
569.022	0.25	Control	0.7049	0.0	Yes	2.678	0.022	n/a	GoodResponse	0	n/a	n/a	10	60	Cue	Neutral	True
569.273	4.0	Control	0.7049	0.0	Yes	2.678	0.001	n/a	GoodResponse	0	n/a	n/a	10	60	Fixation	Neutral	True
573.268	0.28	Control	0.7049	0.004	Yes	2.678	-0.004	2.0	GoodResponse	0	0.265	572.533	10	60	Target	Neutral	True
573.533	0.3	Control	0.7049	0.004	Yes	2.678	-0.004	2.0	GoodResponse	0	0.265	n/a	10	60	ButtonPress	Neutral	True
573.552	0.42	Control	0.7049	n/a	Yes	2.678	n/a	n/a	GoodResponse	0	n/a	n/a	10	60	Blank	Neutral	True
573.97	1.45	Control	0.7049	n/a	Yes	2.678	n/a	5.0	GoodResponse	0	0.001	572.971	10	60	Feedback	Neutral	True
575.425	2.678	Control	0.7049	n/a	Yes	2.678	n/a	n/a	GoodResponse	0	0.0	n/a	10	60	ISIslide	Neutral	True
578.116	0.25	Lose2	0.7097	0.0	Yes	2.984	0.016	n/a	GoodResponse	0	n/a	n/a	10	61	Cue	AvoidedLoss	True
578.367	4.0	Lose2	0.7097	0.0	Yes	2.984	0.001	n/a	GoodResponse	0	n/a	n/a	10	61	Fixation	AvoidedLoss	True
582.362	0.27	Lose2	0.7097	0.004	Yes	2.984	-0.004	2.0	GoodResponse	0	0.246	581.608	10	61	Target	AvoidedLoss	True
582.608	0.3	Lose2	0.7097	0.004	Yes	2.984	-0.004	2.0	GoodResponse	0	0.246	n/a	10	61	ButtonPress	AvoidedLoss	True
582.646	0.43	Lose2	0.7097	n/a	Yes	2.984	n/a	n/a	GoodResponse	0	n/a	n/a	10	61	Blank	AvoidedLoss	True
583.064	1.45	Lose2	0.7097	n/a	Yes	2.984	n/a	5.0	GoodResponse	0	0.028	582.092	10	61	Feedback	AvoidedLoss	True
584.519	2.984	Lose2	0.7097	n/a	Yes	2.984	n/a	n/a	GoodResponse	0	0.0	n/a	10	61	ISIslide	AvoidedLoss	True
587.528	0.25	Lose2	0.7143	0.0	Yes	2.872	0.028	n/a	GoodResponse	0	n/a	n/a	10	62	Cue	AvoidedLoss	True
587.778	3.9	Lose2	0.7143	0.0	Yes	2.872	0.0	n/a	GoodResponse	0	n/a	n/a	10	62	Fixation	AvoidedLoss	True
591.69	0.26	Lose2	0.7143	0.0	Yes	2.872	0.012	2.0	GoodResponse	0	0.207	590.897	10	62	Target	AvoidedLoss	True
591.897	0.3	Lose2	0.7143	0.0	Yes	2.872	0.012	2.0	GoodResponse	0	0.207	n/a	10	62	ButtonPress	AvoidedLoss	True
591.941	0.44	Lose2	0.7143	n/a	Yes	2.872	n/a	n/a	GoodResponse	0	n/a	n/a	10	62	Blank	AvoidedLoss	True
592.375	1.45	Lose2	0.7143	n/a	Yes	2.872	n/a	5.0	GoodResponse	0	0.034	591.409	10	62	Feedback	AvoidedLoss	True
593.83	2.872	Lose2	0.7143	n/a	Yes	2.872	n/a	n/a	GoodResponse	0	0.0	n/a	10	62	ISIslide	AvoidedLoss	True
596.722	0.25	Lose2	0.7031000000000001	0.0	No	2.628	0.022	n/a	NoResponse	-1	n/a	n/a	9	63	Cue	Loss	True
596.973	4.05	Lose2	0.7031000000000001	0.0	No	2.628	0.001	n/a	NoResponse	-1	n/a	n/a	9	63	Fixation	Loss	True
601.018	0.25	Lose2	0.7031000000000001	0.004	No	2.628	-0.004	2.0	NoResponse	-1	0.282	600.3	9	63	Target	Loss	True
601.269	0.45	Lose2	0.7031000000000001	n/a	No	2.628	n/a	n/a	NoResponse	-1	n/a	n/a	9	63	Blank	Loss	True
601.3	0.3	Lose2	0.7031000000000001	0.004	No	2.628	-0.004	2.0	NoResponse	-1	0.282	n/a	9	63	ButtonPress	Loss	True
601.72	1.45	Lose2	0.7031000000000001	n/a	No	2.628	n/a	5.0	NoResponse	-1	0.006	600.726	9	63	Feedback	Loss	True
603.174	2.628	Lose2	0.7031000000000001	n/a	No	2.628	n/a	n/a	NoResponse	-1	0.0	n/a	9	63	ISIslide	Loss	True
605.816	0.25	Win2	0.6923	0.0	No	3.134	0.016	n/a	NoResponse	0	n/a	n/a	9	64	Cue	MissedWin	True
606.066	4.15	Win2	0.6923	0.0	No	3.134	0.0	n/a	NoResponse	0	n/a	n/a	9	64	Fixation	MissedWin	True
610.212	0.24	Win2	0.6923	0.004	No	3.134	-0.004	2.0	NoResponse	0	0.256	609.468	9	64	Target	MissedWin	True
610.463	0.46	Win2	0.6923	n/a	No	3.134	n/a	n/a	NoResponse	0	n/a	n/a	9	64	Blank	MissedWin	True
610.468	0.3	Win2	0.6923	0.004	No	3.134	-0.004	2.0	NoResponse	0	0.256	n/a	9	64	ButtonPress	MissedWin	True
610.914	1.45	Win2	0.6923	n/a	No	3.134	n/a	5.0	NoResponse	0	0.032	609.946	9	64	Feedback	MissedWin	True
612.369	3.134	Win2	0.6923	n/a	No	3.134	n/a	n/a	NoResponse	0	0.0	n/a	9	64	ISIslide	MissedWin	True
615.528	0.25	Control	0.6970000000000001	0.0	Yes	2.772	0.028	n/a	GoodResponse	0	n/a	n/a	9	65	Cue	Neutral	True
615.779	4.0	Control	0.6970000000000001	0.0	Yes	2.772	0.001	n/a	GoodResponse	0	n/a	n/a	9	65	Fixation	Neutral	True
619.774	0.23	Control	0.6970000000000001	0.004	Yes	2.772	-0.004	2.0	GoodResponse	0	0.228	619.002	9	65	Target	Neutral	True
620.002	0.3	Control	0.6970000000000001	0.004	Yes	2.772	-0.004	2.0	GoodResponse	0	0.228	n/a	9	65	ButtonPress	Neutral	True
620.008	0.47	Control	0.6970000000000001	n/a	Yes	2.772	n/a	n/a	GoodResponse	0	n/a	n/a	9	65	Blank	Neutral	True
620.476	1.45	Control	0.6970000000000001	n/a	Yes	2.772	n/a	5.0	GoodResponse	0	0.031	619.507	9	65	Feedback	Neutral	True
621.931	2.772	Control	0.6970000000000001	n/a	Yes	2.772	n/a	n/a	GoodResponse	0	0.0	n/a	9	65	ISIslide	Neutral	True
624.722	0.25	Win2	0.6866	0.0	No	2.778	0.022	n/a	NoResponse	0	n/a	n/a	9	66	Cue	MissedWin	True
624.973	3.9	Win2	0.6866	0.0	No	2.778	0.001	n/a	NoResponse	0	n/a	n/a	9	66	Fixation	MissedWin	True
628.868	0.22	Win2	0.6866	0.004	No	2.778	-0.004	2.0	NoResponse	0	0.253	628.121	9	66	Target	MissedWin	True
629.102	0.48	Win2	0.6866	n/a	No	2.778	n/a	n/a	NoResponse	0	n/a	n/a	9	66	Blank	MissedWin	True
629.121	0.3	Win2	0.6866	0.004	No	2.778	-0.004	2.0	NoResponse	0	0.253	n/a	9	66	ButtonPress	MissedWin	True
629.57	1.45	Win2	0.6866	n/a	No	2.778	n/a	5.0	NoResponse	0	0.01	628.58	9	66	Feedback	MissedWin	True
631.024	2.778	Win2	0.6866	n/a	No	2.778	n/a	n/a	NoResponse	0	0.0	n/a	9	66	ISIslide	MissedWin	True
633.816	0.25	Control	0.6765000000000001	0.0	No	2.734	0.016	n/a	NoResponse	0	n/a	n/a	9	67	Cue	Neutral	True
634.067	3.95	Control	0.6765000000000001	0.0	No	2.734	0.001	n/a	NoResponse	0	n/a	n/a	9	67	Fixation	Neutral	True
638.012	0.21	Control	0.6765000000000001	0.004	No	2.734	-0.004	2.0	NoResponse	0	0.257	637.269	9	67	Target	Neutral	True
638.229	0.49	Control	0.6765000000000001	n/a	No	2.734	n/a	n/a	NoResponse	0	n/a	n/a	9	67	Blank	Neutral	True
638.269	0.3	Control	0.6765000000000001	0.004	No	2.734	-0.004	2.0	NoResponse	0	0.257	n/a	9	67	ButtonPress	Neutral	True
638.714	1.45	Control	0.6765000000000001	n/a	No	2.734	n/a	5.0	NoResponse	0	0.036	637.75	9	67	Feedback	Neutral	True
640.168	2.734	Control	0.6765000000000001	n/a	No	2.734	n/a	n/a	NoResponse	0	0.0	n/a	9	67	ISIslide	Neutral	True
642.927	0.25	Win2	0.6667000000000001	0.0	No	3.073	0.027	n/a	NoResponse	0	n/a	n/a	9	68	Cue	MissedWin	True
643.177	4.0	Win2	0.6667000000000001	0.001	No	3.073	0.0	n/a	NoResponse	0	n/a	n/a	9	68	Fixation	MissedWin	True
647.173	0.2	Win2	0.6667000000000001	0.004	No	3.073	-0.004	2.0	NoResponse	0	0.236	646.409	9	68	Target	MissedWin	True
647.373	0.5	Win2	0.6667000000000001	n/a	No	3.073	n/a	n/a	NoResponse	0	n/a	n/a	9	68	Blank	MissedWin	True
647.409	0.3	Win2	0.6667000000000001	0.004	No	3.073	-0.004	2.0	NoResponse	0	0.236	n/a	9	68	ButtonPress	MissedWin	True
647.875	1.45	Win2	0.6667000000000001	n/a	No	3.073	n/a	5.0	NoResponse	0	0.046	646.921	9	68	Feedback	MissedWin	True
649.329	3.073	Win2	0.6667000000000001	n/a	No	3.073	n/a	n/a	NoResponse	0	0.0	n/a	9	68	ISIslide	MissedWin	True
652.422	0.25	Win2	0.6570999999999999	0.0	No	3.228	0.022	n/a	NoResponse	0	n/a	n/a	9	69	Cue	MissedWin	True
652.673	3.95	Win2	0.6570999999999999	0.0	No	3.228	0.001	n/a	NoResponse	0	n/a	n/a	9	69	Fixation	MissedWin	True
656.618	0.19	Win2	0.6570999999999999	0.004	No	3.228	-0.004	2.0	NoResponse	0	0.247	655.865	9	69	Target	MissedWin	True
656.818	0.51	Win2	0.6570999999999999	n/a	No	3.228	n/a	n/a	NoResponse	0	n/a	n/a	9	69	Blank	MissedWin	True
656.865	0.3	Win2	0.6570999999999999	0.004	No	3.228	-0.004	2.0	NoResponse	0	0.247	n/a	9	69	ButtonPress	MissedWin	True
657.32	1.45	Win2	0.6570999999999999	n/a	No	3.228	n/a	5.0	NoResponse	0	0.015	656.335	9	69	Feedback	MissedWin	True
658.774	3.228	Win2	0.6570999999999999	n/a	No	3.228	n/a	n/a	NoResponse	0	0.0	n/a	9	69	ISIslide	MissedWin	True
662.017	0.25	Lose2	0.6479	0.0	No	3.033	0.017	n/a	NoResponse	-1	n/a	n/a	8	70	Cue	Loss	True
662.268	4.05	Lose2	0.6479	0.0	No	3.033	0.001	n/a	NoResponse	-1	n/a	n/a	8	70	Fixation	Loss	True
666.313	0.19	Lose2	0.6479	0.004	No	3.033	-0.004	2.0	NoResponse	-1	0.206	665.519	8	70	Target	Loss	True
666.514	0.51	Lose2	0.6479	n/a	No	3.033	n/a	n/a	NoResponse	-1	n/a	n/a	8	70	Blank	Loss	True
666.519	0.3	Lose2	0.6479	0.004	No	3.033	-0.004	2.0	NoResponse	-1	0.206	n/a	8	70	ButtonPress	Loss	True
667.016	1.45	Lose2	0.6479	n/a	No	3.033	n/a	5.0	NoResponse	-1	0.027	666.043	8	70	Feedback	Loss	True
668.47	3.033	Lose2	0.6479	n/a	No	3.033	n/a	n/a	NoResponse	-1	0.0	n/a	8	70	ISIslide	Loss	True
671.529	0.25	Win2	0.6389	0.0	No	2.721	0.029	n/a	NoResponse	0	n/a	n/a	8	71	Cue	MissedWin	True
671.78	4.05	Win2	0.6389	0.0	No	2.721	0.001	n/a	NoResponse	0	n/a	n/a	8	71	Fixation	MissedWin	True
675.825	0.2	Win2	0.6389	0.004	No	2.721	-0.004	2.0	NoResponse	0	0.26	675.085	8	71	Target	MissedWin	True
676.026	0.5	Win2	0.6389	n/a	No	2.721	n/a	n/a	NoResponse	0	n/a	n/a	8	71	Blank	MissedWin	True
676.085	0.3	Win2	0.6389	0.004	No	2.721	-0.004	2.0	NoResponse	0	0.26	n/a	8	71	ButtonPress	MissedWin	True
676.527	1.45	Win2	0.6389	n/a	No	2.721	n/a	5.0	NoResponse	0	0.028	675.555	8	71	Feedback	MissedWin	True
677.982	2.721	Win2	0.6389	n/a	No	2.721	n/a	n/a	NoResponse	0	0.0	n/a	8	71	ISIslide	MissedWin	True
680.723	0.25	Win2	0.6301	0.0	No	2.777	0.023	n/a	NoResponse	0	n/a	n/a	8	72	Cue	MissedWin	True
680.974	4.1	Win2	0.6301	0.0	No	2.777	0.001	n/a	NoResponse	0	n/a	n/a	8	72	Fixation	MissedWin	True
685.07	0.21	Win2	0.6301	0.003	No	2.777	-0.003	2.0	NoResponse	0	0.234	684.304	8	72	Target	MissedWin	True
685.287	0.49	Win2	0.6301	n/a	No	2.777	n/a	n/a	NoResponse	0	n/a	n/a	8	72	Blank	MissedWin	True
685.304	0.3	Win2	0.6301	0.003	No	2.777	-0.003	2.0	NoResponse	0	0.234	n/a	8	72	ButtonPress	MissedWin	True
685.772	1.45	Win2	0.6301	n/a	No	2.777	n/a	5.0	NoResponse	0	0.003	684.775	8	72	Feedback	MissedWin	True
687.226	2.777	Win2	0.6301	n/a	No	2.777	n/a	n/a	NoResponse	0	0.0	n/a	8	72	ISIslide	MissedWin	True
690.018	0.25	Win2	0.6215999999999999	0.0	No	2.682	0.018	n/a	NoResponse	0	n/a	n/a	8	73	Cue	MissedWin	True
690.268	4.0	Win2	0.6215999999999999	0.001	No	2.682	0.0	n/a	NoResponse	0	n/a	n/a	8	73	Fixation	MissedWin	True
694.264	0.22	Win2	0.6215999999999999	0.004	No	2.682	-0.004	2.0	NoResponse	0	0.256	693.52	8	73	Target	MissedWin	True
694.498	0.48	Win2	0.6215999999999999	n/a	No	2.682	n/a	n/a	NoResponse	0	n/a	n/a	8	73	Blank	MissedWin	True
694.52	0.3	Win2	0.6215999999999999	0.004	No	2.682	-0.004	2.0	NoResponse	0	0.256	n/a	8	73	ButtonPress	MissedWin	True
694.966	1.45	Win2	0.6215999999999999	n/a	No	2.682	n/a	5.0	NoResponse	0	0.027	693.993	8	73	Feedback	MissedWin	True
696.42	2.682	Win2	0.6215999999999999	n/a	No	2.682	n/a	n/a	NoResponse	0	0.0	n/a	8	73	ISIslide	MissedWin	True
699.128	0.25	Lose2	0.6133	0.0	No	2.622	0.028	n/a	NoResponse	-1	n/a	n/a	7	74	Cue	Loss	True
699.379	4.05	Lose2	0.6133	0.0	No	2.622	0.001	n/a	NoResponse	-1	n/a	n/a	7	74	Fixation	Loss	True
703.424	0.23	Lose2	0.6133	0.004	No	2.622	-0.004	2.0	NoResponse	-1	0.292	702.716	7	74	Target	Loss	True
703.659	0.47	Lose2	0.6133	n/a	No	2.622	n/a	n/a	NoResponse	-1	n/a	n/a	7	74	Blank	Loss	True
703.716	0.3	Lose2	0.6133	0.004	No	2.622	-0.004	2.0	NoResponse	-1	0.292	n/a	7	74	ButtonPress	Loss	True
704.127	1.45	Lose2	0.6133	n/a	No	2.622	n/a	5.0	NoResponse	-1	0.037	703.164	7	74	Feedback	Loss	True
705.581	2.622	Lose2	0.6133	n/a	No	2.622	n/a	n/a	NoResponse	-1	0.0	n/a	7	74	ISIslide	Loss	True
708.222	0.25	Lose2	0.6053000000000001	0.0	No	2.928	0.022	n/a	NoResponse	-1	n/a	n/a	6	75	Cue	Loss	True
708.473	3.95	Lose2	0.6053000000000001	0.0	No	2.928	0.001	n/a	NoResponse	-1	n/a	n/a	6	75	Fixation	Loss	True
712.418	0.24	Lose2	0.6053000000000001	0.004	No	2.928	-0.004	2.0	NoResponse	-1	0.262	711.68	6	75	Target	Loss	True
712.669	0.46	Lose2	0.6053000000000001	n/a	No	2.928	n/a	n/a	NoResponse	-1	n/a	n/a	6	75	Blank	Loss	True
712.68	0.3	Lose2	0.6053000000000001	0.004	No	2.928	-0.004	2.0	NoResponse	-1	0.262	n/a	6	75	ButtonPress	Loss	True
713.12	1.45	Lose2	0.6053000000000001	n/a	No	2.928	n/a	5.0	NoResponse	-1	0.02	712.14	6	75	Feedback	Loss	True
714.575	2.928	Lose2	0.6053000000000001	n/a	No	2.928	n/a	n/a	NoResponse	-1	0.0	n/a	6	75	ISIslide	Loss	True
717.517	0.25	Control	0.6103999999999999	0.0	Yes	3.233	0.017	n/a	GoodResponse	0	n/a	n/a	6	76	Cue	Neutral	True
717.767	4.05	Control	0.6103999999999999	0.0	Yes	3.233	0.0	n/a	GoodResponse	0	n/a	n/a	6	76	Fixation	Neutral	True
721.813	0.25	Control	0.6103999999999999	0.004	Yes	3.233	-0.004	2.0	GoodResponse	0	0.207	721.02	6	76	Target	Neutral	True
722.02	0.3	Control	0.6103999999999999	0.004	Yes	3.233	-0.004	2.0	GoodResponse	0	0.207	n/a	6	76	ButtonPress	Neutral	True
722.064	0.45	Control	0.6103999999999999	n/a	Yes	3.233	n/a	n/a	GoodResponse	0	n/a	n/a	6	76	Blank	Neutral	True
722.515	1.45	Control	0.6103999999999999	n/a	Yes	3.233	n/a	5.0	GoodResponse	0	0.04	721.555	6	76	Feedback	Neutral	True
723.969	3.233	Control	0.6103999999999999	n/a	Yes	3.233	n/a	n/a	GoodResponse	0	0.0	n/a	6	76	ISIslide	Neutral	True
727.229	0.25	Lose2	0.6154	0.0	Yes	2.571	0.029	n/a	GoodResponse	0	n/a	n/a	6	77	Cue	AvoidedLoss	True
727.48	3.95	Lose2	0.6154	0.0	Yes	2.571	0.001	n/a	GoodResponse	0	n/a	n/a	6	77	Fixation	AvoidedLoss	True
731.425	0.26	Lose2	0.6154	0.004	Yes	2.571	-0.004	2.0	GoodResponse	0	0.237	730.662	6	77	Target	AvoidedLoss	True
731.662	0.3	Lose2	0.6154	0.004	Yes	2.571	-0.004	2.0	GoodResponse	0	0.237	n/a	6	77	ButtonPress	AvoidedLoss	True
731.692	0.44	Lose2	0.6154	n/a	Yes	2.571	n/a	n/a	GoodResponse	0	n/a	n/a	6	77	Blank	AvoidedLoss	True
732.127	1.45	Lose2	0.6154	n/a	Yes	2.571	n/a	5.0	GoodResponse	0	0.036	731.163	6	77	Feedback	AvoidedLoss	True
733.581	2.571	Lose2	0.6154	n/a	Yes	2.571	n/a	n/a	GoodResponse	0	0.0	n/a	6	77	ISIslide	AvoidedLoss	True
