onset	duration	cue_type	current_mean_accuracy	duration_error	is_hit	isi_adjusted	onset_delay	response	response_type	reward	rt	rt_time	total_reward	trial_number	trial_phase	trial_type	one_press
11.11	0.25	Control	1.0	0.001	Yes	2.94	0.01	n/a	GoodResponse	0	n/a	n/a	0	0	Cue	Neutral	False
11.36	3.85	Control	1.0	0.0	Yes	2.94	0.0	1.0	GoodResponse	0	0.525	10.885	0	0	Fixation	Neutral	False
11.885	0.3	Control	1.0	0.0	Yes	2.94	0.0	1.0	GoodResponse	0	0.525	n/a	0	0	ButtonPress	Neutral	False
15.209	0.4	Control	1.0	0.001	Yes	2.94	-0.001	1.0	GoodResponse	0	0.244	14.453	0	0	Target	Neutral	False
15.453	0.3	Control	1.0	0.001	Yes	2.94	-0.001	1.0	GoodResponse	0	0.244	n/a	0	0	ButtonPress	Neutral	False
15.609	0.3	Control	1.0	n/a	Yes	2.94	n/a	n/a	GoodResponse	0	n/a	n/a	0	0	Blank	Neutral	False
15.909	1.45	Control	1.0	n/a	Yes	2.94	n/a	5.0	GoodResponse	0	0.018	14.927	0	0	Feedback	Neutral	False
17.358	2.94	Control	1.0	n/a	Yes	2.94	n/a	n/a	GoodResponse	0	0.0	n/a	0	0	ISIslide	Neutral	False
20.324	0.25	Lose2	1.0	0.0	Yes	2.776	0.024	1.0	GoodResponse	0	0.213	19.537	0	1	Cue	AvoidedLoss	False
20.537	0.3	Lose2	1.0	0.0	Yes	2.776	0.024	1.0	GoodResponse	0	0.213	n/a	0	1	ButtonPress	AvoidedLoss	False
20.574	4.0	Lose2	1.0	0.0	Yes	2.776	0.0	n/a	GoodResponse	0	n/a	n/a	0	1	Fixation	AvoidedLoss	False
24.572	0.39	Lose2	1.0	0.002	Yes	2.776	-0.002	1.0	GoodResponse	0	0.201	23.773	0	1	Target	AvoidedLoss	False
24.773	0.3	Lose2	1.0	0.002	Yes	2.776	-0.002	1.0	GoodResponse	0	0.201	n/a	0	1	ButtonPress	AvoidedLoss	False
24.972	0.31	Lose2	1.0	n/a	Yes	2.776	n/a	n/a	GoodResponse	0	n/a	n/a	0	1	Blank	AvoidedLoss	False
25.272	1.45	Lose2	1.0	n/a	Yes	2.776	n/a	5.0	GoodResponse	0	0.019	24.291	0	1	Feedback	AvoidedLoss	False
26.722	2.776	Lose2	1.0	n/a	Yes	2.776	n/a	n/a	GoodResponse	0	0.0	n/a	0	1	ISIslide	AvoidedLoss	False
29.521	0.25	Control	1.0	0.0	Yes	2.579	0.021	1.0	GoodResponse	0	0.211	28.732	0	2	Cue	Neutral	False
29.732	0.3	Control	1.0	0.0	Yes	2.579	0.021	1.0	GoodResponse	0	0.211	n/a	0	2	ButtonPress	Neutral	False
29.771	4.1	Control	1.0	0.0	Yes	2.579	0.0	n/a	GoodResponse	0	n/a	n/a	0	2	Fixation	Neutral	False
33.869	0.38	Control	1.0	0.002	Yes	2.579	-0.002	1.0	GoodResponse	0	0.224	33.093	0	2	Target	Neutral	False
34.093	0.3	Control	1.0	0.002	Yes	2.579	-0.002	1.0	GoodResponse	0	0.224	n/a	0	2	ButtonPress	Neutral	False
34.252	0.32	Control	1.0	n/a	Yes	2.579	n/a	n/a	GoodResponse	0	n/a	n/a	0	2	Blank	Neutral	False
34.569	1.45	Control	1.0	n/a	Yes	2.579	n/a	5.0	GoodResponse	0	0.04	33.609	0	2	Feedback	Neutral	False
36.018	2.579	Control	1.0	n/a	Yes	2.579	n/a	n/a	GoodResponse	0	0.0	n/a	0	2	ISIslide	Neutral	False
38.617	0.25	Win2	1.0	0.001	Yes	2.833	0.017	1.0	GoodResponse	1	0.216	37.833	1	3	Cue	Win	False
38.833	0.3	Win2	1.0	0.001	Yes	2.833	0.017	1.0	GoodResponse	1	0.216	n/a	1	3	ButtonPress	Win	False
38.867	3.95	Win2	1.0	0.0	Yes	2.833	0.0	n/a	GoodResponse	1	n/a	n/a	1	3	Fixation	Win	False
42.816	0.37	Win2	1.0	0.001	Yes	2.833	-0.001	1.0	GoodResponse	1	0.195	42.011	1	3	Target	Win	False
43.011	0.3	Win2	1.0	0.001	Yes	2.833	-0.001	1.0	GoodResponse	1	0.195	n/a	1	3	ButtonPress	Win	False
43.182	0.33	Win2	1.0	n/a	Yes	2.833	n/a	n/a	GoodResponse	1	n/a	n/a	1	3	Blank	Win	False
43.516	1.45	Win2	1.0	n/a	Yes	2.833	n/a	5.0	GoodResponse	1	0.02	42.536	1	3	Feedback	Win	False
44.965	2.833	Win2	1.0	n/a	Yes	2.833	n/a	n/a	GoodResponse	1	0.0	n/a	1	3	ISIslide	Win	False
47.814	0.25	Win2	1.0	0.0	Yes	3.286	0.014	1.0	GoodResponse	1	0.204	47.018	2	4	Cue	Win	False
48.018	0.3	Win2	1.0	0.0	Yes	3.286	0.014	1.0	GoodResponse	1	0.204	n/a	2	4	ButtonPress	Win	False
48.064	4.0	Win2	1.0	0.0	Yes	3.286	0.0	n/a	GoodResponse	1	n/a	n/a	2	4	Fixation	Win	False
52.063	0.36	Win2	1.0	0.001	Yes	3.286	-0.001	1.0	GoodResponse	1	0.198	51.261	2	4	Target	Win	False
52.261	0.3	Win2	1.0	0.001	Yes	3.286	-0.001	1.0	GoodResponse	1	0.198	n/a	2	4	ButtonPress	Win	False
52.429	0.34	Win2	1.0	n/a	Yes	3.286	n/a	n/a	GoodResponse	1	n/a	n/a	2	4	Blank	Win	False
52.762	1.45	Win2	1.0	n/a	Yes	3.286	n/a	5.0	GoodResponse	1	0.042	51.804	2	4	Feedback	Win	False
54.212	3.286	Win2	1.0	n/a	Yes	3.286	n/a	n/a	GoodResponse	1	0.0	n/a	2	4	ISIslide	Win	False
57.527	0.25	Win2	0.8332999999999999	0.0	No	2.773	0.027	1.0	PrematurePress	0	0.221	56.748	2	5	Cue	MissedWin	False
57.748	0.3	Win2	0.8332999999999999	0.0	No	2.773	0.027	1.0	PrematurePress	0	0.221	n/a	2	5	ButtonPress	MissedWin	False
57.777	4.0	Win2	0.8332999999999999	0.0	No	2.773	0.0	n/a	PrematurePress	0	n/a	n/a	2	5	Fixation	MissedWin	False
61.776	0.35	Win2	0.8332999999999999	0.001	No	2.773	-0.001	1.0	PrematurePress	0	0.027	60.803	2	5	Target	MissedWin	False
61.803	0.3	Win2	0.8332999999999999	0.001	No	2.773	-0.001	1.0	PrematurePress	0	0.027	n/a	2	5	ButtonPress	MissedWin	False
62.126	0.35	Win2	0.8332999999999999	n/a	No	2.773	n/a	n/a	PrematurePress	0	n/a	n/a	2	5	Blank	MissedWin	False
62.476	1.45	Win2	0.8332999999999999	n/a	No	2.773	n/a	5.0	PrematurePress	0	0.035	61.511	2	5	Feedback	MissedWin	False
63.925	2.773	Win2	0.8332999999999999	n/a	No	2.773	n/a	n/a	PrematurePress	0	0.0	n/a	2	5	ISIslide	MissedWin	False
66.724	0.25	Lose2	0.8571	0.0	Yes	2.726	0.024	n/a	GoodResponse	0	n/a	n/a	2	6	Cue	AvoidedLoss	False
66.974	3.95	Lose2	0.8571	0.0	Yes	2.726	0.0	1.0	GoodResponse	0	0.014	65.988	2	6	Fixation	AvoidedLoss	False
66.988	0.3	Lose2	0.8571	0.0	Yes	2.726	0.0	1.0	GoodResponse	0	0.014	n/a	2	6	ButtonPress	AvoidedLoss	False
70.923	0.34	Lose2	0.8571	0.001	Yes	2.726	-0.001	1.0	GoodResponse	0	0.198	70.121	2	6	Target	AvoidedLoss	False
71.121	0.3	Lose2	0.8571	0.001	Yes	2.726	-0.001	1.0	GoodResponse	0	0.198	n/a	2	6	ButtonPress	AvoidedLoss	False
71.273	0.36	Lose2	0.8571	n/a	Yes	2.726	n/a	n/a	GoodResponse	0	n/a	n/a	2	6	Blank	AvoidedLoss	False
71.622	1.45	Lose2	0.8571	n/a	Yes	2.726	n/a	5.0	GoodResponse	0	0.01	70.632	2	6	Feedback	AvoidedLoss	False
73.072	2.726	Lose2	0.8571	n/a	Yes	2.726	n/a	n/a	GoodResponse	0	0.0	n/a	2	6	ISIslide	AvoidedLoss	False
75.821	0.25	Lose2	0.875	0.0	Yes	4.029	0.021	1.0	GoodResponse	0	0.216	75.037	2	7	Cue	AvoidedLoss	False
76.037	0.3	Lose2	0.875	0.0	Yes	4.029	0.021	1.0	GoodResponse	0	0.216	n/a	2	7	ButtonPress	AvoidedLoss	False
76.071	4.05	Lose2	0.875	0.0	Yes	4.029	0.0	n/a	GoodResponse	0	n/a	n/a	2	7	Fixation	AvoidedLoss	False
80.119	0.33	Lose2	0.875	0.002	Yes	4.029	-0.002	1.0	GoodResponse	0	0.176	79.295	2	7	Target	AvoidedLoss	False
80.295	0.3	Lose2	0.875	0.002	Yes	4.029	-0.002	1.0	GoodResponse	0	0.176	n/a	2	7	ButtonPress	AvoidedLoss	False
80.453	0.37	Lose2	0.875	n/a	Yes	4.029	n/a	n/a	GoodResponse	0	n/a	n/a	2	7	Blank	AvoidedLoss	False
80.819	1.45	Lose2	0.875	n/a	Yes	4.029	n/a	5.0	GoodResponse	0	0.033	79.852	2	7	Feedback	AvoidedLoss	False
82.269	4.029	Lose2	0.875	n/a	Yes	4.029	n/a	n/a	GoodResponse	0	0.0	n/a	2	7	ISIslide	AvoidedLoss	False
86.317	0.25	Lose2	0.8889	0.0	Yes	3.033	0.017	1.0	GoodResponse	0	0.199	85.516	2	8	Cue	AvoidedLoss	False
86.516	0.3	Lose2	0.8889	0.0	Yes	3.033	0.017	1.0	GoodResponse	0	0.199	n/a	2	8	ButtonPress	AvoidedLoss	False
86.567	3.95	Lose2	0.8889	0.0	Yes	3.033	0.0	n/a	GoodResponse	0	n/a	n/a	2	8	Fixation	AvoidedLoss	False
90.516	0.32	Lose2	0.8889	0.001	Yes	3.033	-0.001	1.0	GoodResponse	0	0.217	89.733	2	8	Target	AvoidedLoss	False
90.733	0.3	Lose2	0.8889	0.001	Yes	3.033	-0.001	1.0	GoodResponse	0	0.217	n/a	2	8	ButtonPress	AvoidedLoss	False
90.849	0.38	Lose2	0.8889	n/a	Yes	3.033	n/a	n/a	GoodResponse	0	n/a	n/a	2	8	Blank	AvoidedLoss	False
91.216	1.45	Lose2	0.8889	n/a	Yes	3.033	n/a	5.0	GoodResponse	0	0.028	90.244	2	8	Feedback	AvoidedLoss	False
92.665	3.033	Lose2	0.8889	n/a	Yes	3.033	n/a	n/a	GoodResponse	0	0.0	n/a	2	8	ISIslide	AvoidedLoss	False
95.731	0.25	Lose2	0.9	0.0	Yes	3.119	0.031	1.0	GoodResponse	0	0.208	94.939	2	9	Cue	AvoidedLoss	False
95.939	0.3	Lose2	0.9	0.0	Yes	3.119	0.031	1.0	GoodResponse	0	0.208	n/a	2	9	ButtonPress	AvoidedLoss	False
95.981	3.95	Lose2	0.9	0.0	Yes	3.119	0.0	n/a	GoodResponse	0	n/a	n/a	2	9	Fixation	AvoidedLoss	False
99.929	0.31	Lose2	0.9	0.002	Yes	3.119	-0.002	1.0	GoodResponse	0	0.21	99.139	2	9	Target	AvoidedLoss	False
100.139	0.3	Lose2	0.9	0.002	Yes	3.119	-0.002	1.0	GoodResponse	0	0.21	n/a	2	9	ButtonPress	AvoidedLoss	False
100.246	0.39	Lose2	0.9	n/a	Yes	3.119	n/a	n/a	GoodResponse	0	n/a	n/a	2	9	Blank	AvoidedLoss	False
100.629	1.45	Lose2	0.9	n/a	Yes	3.119	n/a	5.0	GoodResponse	0	0.028	99.657	2	9	Feedback	AvoidedLoss	False
102.078	3.119	Lose2	0.9	n/a	Yes	3.119	n/a	n/a	GoodResponse	0	0.0	n/a	2	9	ISIslide	AvoidedLoss	False
105.227	0.25	Control	0.9091	0.0	Yes	3.273	0.027	1.0	GoodResponse	0	0.191	104.418	2	10	Cue	Neutral	False
105.418	0.3	Control	0.9091	0.0	Yes	3.273	0.027	1.0	GoodResponse	0	0.191	n/a	2	10	ButtonPress	Neutral	False
105.477	4.0	Control	0.9091	0.0	Yes	3.273	0.0	n/a	GoodResponse	0	n/a	n/a	2	10	Fixation	Neutral	False
109.476	0.3	Control	0.9091	0.001	Yes	3.273	-0.001	1.0	GoodResponse	0	0.198	108.674	2	10	Target	Neutral	False
109.674	0.3	Control	0.9091	0.001	Yes	3.273	-0.001	1.0	GoodResponse	0	0.198	n/a	2	10	ButtonPress	Neutral	False
109.776	0.4	Control	0.9091	n/a	Yes	3.273	n/a	n/a	GoodResponse	0	n/a	n/a	2	10	Blank	Neutral	False
110.176	1.45	Control	0.9091	n/a	Yes	3.273	n/a	5.0	GoodResponse	0	0.041	109.217	2	10	Feedback	Neutral	False
111.625	3.273	Control	0.9091	n/a	Yes	3.273	n/a	n/a	GoodResponse	0	0.0	n/a	2	10	ISIslide	Neutral	False
114.924	0.25	Lose2	0.9167000000000001	0.0	Yes	2.726	0.024	1.0	GoodResponse	0	0.243	114.167	2	11	Cue	AvoidedLoss	False
115.167	0.3	Lose2	0.9167000000000001	0.0	Yes	2.726	0.024	1.0	GoodResponse	0	0.243	n/a	2	11	ButtonPress	AvoidedLoss	False
115.174	4.05	Lose2	0.9167000000000001	0.0	Yes	2.726	0.0	n/a	GoodResponse	0	n/a	n/a	2	11	Fixation	AvoidedLoss	False
119.222	0.29	Lose2	0.9167000000000001	0.002	Yes	2.726	-0.002	1.0	GoodResponse	0	0.203	118.425	2	11	Target	AvoidedLoss	False
119.425	0.3	Lose2	0.9167000000000001	0.002	Yes	2.726	-0.002	1.0	GoodResponse	0	0.203	n/a	2	11	ButtonPress	AvoidedLoss	False
119.522	0.41	Lose2	0.9167000000000001	n/a	Yes	2.726	n/a	n/a	GoodResponse	0	n/a	n/a	2	11	Blank	AvoidedLoss	False
119.922	1.45	Lose2	0.9167000000000001	n/a	Yes	2.726	n/a	5.0	GoodResponse	0	0.005	118.927	2	11	Feedback	AvoidedLoss	False
121.372	2.726	Lose2	0.9167000000000001	n/a	Yes	2.726	n/a	n/a	GoodResponse	0	0.0	n/a	2	11	ISIslide	AvoidedLoss	False
124.121	0.25	Control	0.9231	0.0	Yes	2.979	0.021	n/a	GoodResponse	0	n/a	n/a	2	12	Cue	Neutral	False
124.371	3.9	Control	0.9231	0.0	Yes	2.979	0.0	1.0	GoodResponse	0	0.006	123.377	2	12	Fixation	Neutral	False
124.377	0.3	Control	0.9231	0.0	Yes	2.979	0.0	1.0	GoodResponse	0	0.006	n/a	2	12	ButtonPress	Neutral	False
128.269	0.28	Control	0.9231	0.002	Yes	2.979	-0.002	1.0	GoodResponse	0	0.197	127.466	2	12	Target	Neutral	False
128.466	0.3	Control	0.9231	0.002	Yes	2.979	-0.002	1.0	GoodResponse	0	0.197	n/a	2	12	ButtonPress	Neutral	False
128.552	0.42	Control	0.9231	n/a	Yes	2.979	n/a	n/a	GoodResponse	0	n/a	n/a	2	12	Blank	Neutral	False
128.969	1.45	Control	0.9231	n/a	Yes	2.979	n/a	5.0	GoodResponse	0	0.029	127.998	2	12	Feedback	Neutral	False
130.418	2.979	Control	0.9231	n/a	Yes	2.979	n/a	n/a	GoodResponse	0	0.0	n/a	2	12	ISIslide	Neutral	False
133.417	0.25	Control	0.9286	0.0	Yes	2.783	0.017	1.0	GoodResponse	0	0.205	132.622	2	13	Cue	Neutral	False
133.622	0.3	Control	0.9286	0.0	Yes	2.783	0.017	1.0	GoodResponse	0	0.205	n/a	2	13	ButtonPress	Neutral	False
133.667	4.0	Control	0.9286	0.0	Yes	2.783	0.0	n/a	GoodResponse	0	n/a	n/a	2	13	Fixation	Neutral	False
137.666	0.27	Control	0.9286	0.001	Yes	2.783	-0.001	1.0	GoodResponse	0	0.21	136.876	2	13	Target	Neutral	False
137.876	0.3	Control	0.9286	0.001	Yes	2.783	-0.001	1.0	GoodResponse	0	0.21	n/a	2	13	ButtonPress	Neutral	False
137.932	0.43	Control	0.9286	n/a	Yes	2.783	n/a	n/a	GoodResponse	0	n/a	n/a	2	13	Blank	Neutral	False
138.366	1.45	Control	0.9286	n/a	Yes	2.783	n/a	5.0	GoodResponse	0	0.047	137.413	2	13	Feedback	Neutral	False
139.815	2.783	Control	0.9286	n/a	Yes	2.783	n/a	n/a	GoodResponse	0	0.0	n/a	2	13	ISIslide	Neutral	False
142.614	0.25	Win2	0.9333	0.0	Yes	2.686	0.014	1.0	GoodResponse	1	0.217	141.831	3	14	Cue	Win	False
142.831	0.3	Win2	0.9333	0.0	Yes	2.686	0.014	1.0	GoodResponse	1	0.217	n/a	3	14	ButtonPress	Win	False
142.864	4.1	Win2	0.9333	0.0	Yes	2.686	0.0	n/a	GoodResponse	1	n/a	n/a	3	14	Fixation	Win	False
146.963	0.26	Win2	0.9333	0.001	Yes	2.686	-0.001	1.0	GoodResponse	1	0.167	146.13	3	14	Target	Win	False
147.13	0.3	Win2	0.9333	0.001	Yes	2.686	-0.001	1.0	GoodResponse	1	0.167	n/a	3	14	ButtonPress	Win	False
147.229	0.44	Win2	0.9333	n/a	Yes	2.686	n/a	n/a	GoodResponse	1	n/a	n/a	3	14	Blank	Win	False
147.662	1.45	Win2	0.9333	n/a	Yes	2.686	n/a	5.0	GoodResponse	1	0.019	146.681	3	14	Feedback	Win	False
149.112	2.686	Win2	0.9333	n/a	Yes	2.686	n/a	n/a	GoodResponse	1	0.0	n/a	3	14	ISIslide	Win	False
151.828	0.25	Control	0.9375	0.0	Yes	2.972	0.028	n/a	GoodResponse	0	n/a	n/a	3	15	Cue	Neutral	False
152.077	4.0	Control	0.9375	0.001	Yes	2.972	-0.001	1.0	GoodResponse	0	0.057	151.134	3	15	Fixation	Neutral	False
152.134	0.3	Control	0.9375	0.001	Yes	2.972	-0.001	1.0	GoodResponse	0	0.057	n/a	3	15	ButtonPress	Neutral	False
156.076	0.25	Control	0.9375	0.002	Yes	2.972	-0.002	1.0	GoodResponse	0	0.211	155.287	3	15	Target	Neutral	False
156.287	0.3	Control	0.9375	0.002	Yes	2.972	-0.002	1.0	GoodResponse	0	0.211	n/a	3	15	ButtonPress	Neutral	False
156.326	0.45	Control	0.9375	n/a	Yes	2.972	n/a	n/a	GoodResponse	0	n/a	n/a	3	15	Blank	Neutral	False
156.776	1.45	Control	0.9375	n/a	Yes	2.972	n/a	5.0	GoodResponse	0	0.026	155.802	3	15	Feedback	Neutral	False
158.225	2.972	Control	0.9375	n/a	Yes	2.972	n/a	n/a	GoodResponse	0	0.0	n/a	3	15	ISIslide	Neutral	False
161.224	0.25	Win2	0.9412	0.0	Yes	2.876	0.024	1.0	GoodResponse	1	0.219	160.443	4	16	Cue	Win	False
161.443	0.3	Win2	0.9412	0.0	Yes	2.876	0.024	1.0	GoodResponse	1	0.219	n/a	4	16	ButtonPress	Win	False
161.474	4.0	Win2	0.9412	0.0	Yes	2.876	0.0	n/a	GoodResponse	1	n/a	n/a	4	16	Fixation	Win	False
165.473	0.24	Win2	0.9412	0.001	Yes	2.876	-0.001	1.0	GoodResponse	1	0.193	164.666	4	16	Target	Win	False
165.666	0.3	Win2	0.9412	0.001	Yes	2.876	-0.001	1.0	GoodResponse	1	0.193	n/a	4	16	ButtonPress	Win	False
165.723	0.46	Win2	0.9412	n/a	Yes	2.876	n/a	n/a	GoodResponse	1	n/a	n/a	4	16	Blank	Win	False
166.172	1.45	Win2	0.9412	n/a	Yes	2.876	n/a	5.0	GoodResponse	1	0.045	165.217	4	16	Feedback	Win	False
167.622	2.876	Win2	0.9412	n/a	Yes	2.876	n/a	n/a	GoodResponse	1	0.0	n/a	4	16	ISIslide	Win	False
170.521	0.25	Lose2	0.9444	0.0	Yes	2.729	0.021	1.0	GoodResponse	0	0.214	169.735	4	17	Cue	AvoidedLoss	False
170.735	0.3	Lose2	0.9444	0.0	Yes	2.729	0.021	1.0	GoodResponse	0	0.214	n/a	4	17	ButtonPress	AvoidedLoss	False
170.771	3.95	Lose2	0.9444	0.0	Yes	2.729	0.0	n/a	GoodResponse	0	n/a	n/a	4	17	Fixation	AvoidedLoss	False
174.719	0.23	Lose2	0.9444	0.002	Yes	2.729	-0.002	1.0	GoodResponse	0	0.183	173.902	4	17	Target	AvoidedLoss	False
174.902	0.3	Lose2	0.9444	0.002	Yes	2.729	-0.002	1.0	GoodResponse	0	0.183	n/a	4	17	ButtonPress	AvoidedLoss	False
174.953	0.47	Lose2	0.9444	n/a	Yes	2.729	n/a	n/a	GoodResponse	0	n/a	n/a	4	17	Blank	AvoidedLoss	False
175.419	1.45	Lose2	0.9444	n/a	Yes	2.729	n/a	5.0	GoodResponse	0	0.018	174.437	4	17	Feedback	AvoidedLoss	False
176.869	2.729	Lose2	0.9444	n/a	Yes	2.729	n/a	n/a	GoodResponse	0	0.0	n/a	4	17	ISIslide	AvoidedLoss	False
179.618	0.25	Lose2	0.9473999999999999	0.0	Yes	2.732	0.018	1.0	GoodResponse	0	0.208	178.826	4	18	Cue	AvoidedLoss	False
179.826	0.3	Lose2	0.9473999999999999	0.0	Yes	2.732	0.018	1.0	GoodResponse	0	0.208	n/a	4	18	ButtonPress	AvoidedLoss	False
179.868	4.05	Lose2	0.9473999999999999	0.0	Yes	2.732	0.0	n/a	GoodResponse	0	n/a	n/a	4	18	Fixation	AvoidedLoss	False
183.916	0.22	Lose2	0.9473999999999999	0.002	Yes	2.732	-0.002	1.0	GoodResponse	0	0.193	183.109	4	18	Target	AvoidedLoss	False
184.109	0.3	Lose2	0.9473999999999999	0.002	Yes	2.732	-0.002	1.0	GoodResponse	0	0.193	n/a	4	18	ButtonPress	AvoidedLoss	False
184.149	0.48	Lose2	0.9473999999999999	n/a	Yes	2.732	n/a	n/a	GoodResponse	0	n/a	n/a	4	18	Blank	AvoidedLoss	False
184.616	1.45	Lose2	0.9473999999999999	n/a	Yes	2.732	n/a	5.0	GoodResponse	0	0.04	183.656	4	18	Feedback	AvoidedLoss	False
186.065	2.732	Lose2	0.9473999999999999	n/a	Yes	2.732	n/a	n/a	GoodResponse	0	0.0	n/a	4	18	ISIslide	AvoidedLoss	False
188.815	0.25	Control	0.9	0.0	No	2.935	0.015	1.0	NoResponse	0	0.238	188.053	4	19	Cue	Neutral	False
189.053	0.3	Control	0.9	0.0	No	2.935	0.015	1.0	NoResponse	0	0.238	n/a	4	19	ButtonPress	Neutral	False
189.064	3.95	Control	0.9	0.001	No	2.935	-0.001	n/a	NoResponse	0	n/a	n/a	4	19	Fixation	Neutral	False
193.013	0.21	Control	0.9	0.002	No	2.935	-0.002	1.0	NoResponse	0	0.242	192.255	4	19	Target	Neutral	False
193.23	0.49	Control	0.9	n/a	No	2.935	n/a	n/a	NoResponse	0	n/a	n/a	4	19	Blank	Neutral	False
193.255	0.3	Control	0.9	0.002	No	2.935	-0.002	1.0	NoResponse	0	0.242	n/a	4	19	ButtonPress	Neutral	False
193.713	1.45	Control	0.9	n/a	No	2.935	n/a	5.0	NoResponse	0	0.016	192.729	4	19	Feedback	Neutral	False
195.162	2.935	Control	0.9	n/a	No	2.935	n/a	n/a	NoResponse	0	0.0	n/a	4	19	ISIslide	Neutral	False
198.128	0.25	Control	0.8571	0.0	No	2.622	0.028	1.0	LatePress	0	0.204	197.332	4	20	Cue	Neutral	False
198.332	0.3	Control	0.8571	0.0	No	2.622	0.028	1.0	LatePress	0	0.204	n/a	4	20	ButtonPress	Neutral	False
198.378	4.05	Control	0.8571	0.0	No	2.622	0.0	n/a	LatePress	0	n/a	n/a	4	20	Fixation	Neutral	False
202.426	0.2	Control	0.8571	0.002	No	2.622	-0.002	1.0	LatePress	0	0.2	201.626	4	20	Target	Neutral	False
202.626	0.5	Control	0.8571	n/a	No	2.622	n/a	n/a	LatePress	0	n/a	n/a	4	20	Blank	Neutral	False
202.626	0.3	Control	0.8571	0.002	No	2.622	-0.002	1.0	LatePress	0	0.2	n/a	4	20	ButtonPress	Neutral	False
203.126	1.45	Control	0.8571	n/a	No	2.622	n/a	5.0	LatePress	0	0.017	202.143	4	20	Feedback	Neutral	False
204.576	2.622	Control	0.8571	n/a	No	2.622	n/a	n/a	LatePress	0	0.0	n/a	4	20	ISIslide	Neutral	False
207.225	0.25	Control	0.8181999999999999	0.0	No	2.775	0.025	1.0	NoResponse	0	0.213	206.438	4	21	Cue	Neutral	False
207.438	0.3	Control	0.8181999999999999	0.0	No	2.775	0.025	1.0	NoResponse	0	0.213	n/a	4	21	ButtonPress	Neutral	False
207.475	4.1	Control	0.8181999999999999	0.0	No	2.775	0.0	n/a	NoResponse	0	n/a	n/a	4	21	Fixation	Neutral	False
211.573	0.19	Control	0.8181999999999999	0.002	No	2.775	-0.002	1.0	NoResponse	0	0.208	210.781	4	21	Target	Neutral	False
211.773	0.51	Control	0.8181999999999999	n/a	No	2.775	n/a	n/a	NoResponse	0	n/a	n/a	4	21	Blank	Neutral	False
211.781	0.3	Control	0.8181999999999999	0.002	No	2.775	-0.002	1.0	NoResponse	0	0.208	n/a	4	21	ButtonPress	Neutral	False
212.273	1.45	Control	0.8181999999999999	n/a	No	2.775	n/a	5.0	NoResponse	0	0.041	211.314	4	21	Feedback	Neutral	False
213.722	2.775	Control	0.8181999999999999	n/a	No	2.775	n/a	n/a	NoResponse	0	0.0	n/a	4	21	ISIslide	Neutral	False
216.521	0.25	Control	0.7826000000000001	0.0	No	2.779	0.021	1.0	NoResponse	0	0.215	215.736	4	22	Cue	Neutral	False
216.736	0.3	Control	0.7826000000000001	0.0	No	2.779	0.021	1.0	NoResponse	0	0.215	n/a	4	22	ButtonPress	Neutral	False
216.771	4.0	Control	0.7826000000000001	0.0	No	2.779	0.0	1.0	NoResponse	0	3.471	219.242	4	22	Fixation	Neutral	False
220.242	0.3	Control	0.7826000000000001	0.0	No	2.779	0.0	1.0	NoResponse	0	3.471	n/a	4	22	ButtonPress	Neutral	False
220.77	0.18	Control	0.7826000000000001	0.001	No	2.779	-0.001	1.0	NoResponse	0	0.223	219.993	4	22	Target	Neutral	False
220.953	0.52	Control	0.7826000000000001	n/a	No	2.779	n/a	n/a	NoResponse	0	n/a	n/a	4	22	Blank	Neutral	False
220.993	0.3	Control	0.7826000000000001	0.001	No	2.779	-0.001	1.0	NoResponse	0	0.223	n/a	4	22	ButtonPress	Neutral	False
221.47	1.45	Control	0.7826000000000001	n/a	No	2.779	n/a	5.0	NoResponse	0	0.015	220.485	4	22	Feedback	Neutral	False
222.919	2.779	Control	0.7826000000000001	n/a	No	2.779	n/a	n/a	NoResponse	0	0.0	n/a	4	22	ISIslide	Neutral	False
225.718	0.25	Control	0.75	0.0	No	2.782	0.018	n/a	NoResponse	0	n/a	n/a	4	23	Cue	Neutral	False
225.968	3.9	Control	0.75	0.0	No	2.782	0.0	1.0	NoResponse	0	0.029	224.997	4	23	Fixation	Neutral	False
225.997	0.3	Control	0.75	0.0	No	2.782	0.0	1.0	NoResponse	0	0.029	n/a	4	23	ButtonPress	Neutral	False
229.867	0.17	Control	0.75	0.001	No	2.782	-0.001	1.0	NoResponse	0	0.226	229.093	4	23	Target	Neutral	False
230.033	0.53	Control	0.75	n/a	No	2.782	n/a	n/a	NoResponse	0	n/a	n/a	4	23	Blank	Neutral	False
230.093	0.3	Control	0.75	0.001	No	2.782	-0.001	1.0	NoResponse	0	0.226	n/a	4	23	ButtonPress	Neutral	False
230.566	1.45	Control	0.75	n/a	No	2.782	n/a	5.0	NoResponse	0	0.041	229.607	4	23	Feedback	Neutral	False
232.016	2.782	Control	0.75	n/a	No	2.782	n/a	n/a	NoResponse	0	0.0	n/a	4	23	ISIslide	Neutral	False
234.815	0.25	Win2	0.72	0.0	No	3.135	0.015	1.0	NoResponse	0	0.219	234.034	4	24	Cue	MissedWin	False
235.034	0.3	Win2	0.72	0.0	No	3.135	0.015	1.0	NoResponse	0	0.219	n/a	4	24	ButtonPress	MissedWin	False
235.065	3.95	Win2	0.72	0.0	No	3.135	0.0	n/a	NoResponse	0	n/a	n/a	4	24	Fixation	MissedWin	False
239.013	0.16	Win2	0.72	0.002	No	3.135	-0.002	1.0	NoResponse	0	0.195	238.208	4	24	Target	MissedWin	False
239.18	0.54	Win2	0.72	n/a	No	3.135	n/a	n/a	NoResponse	0	n/a	n/a	4	24	Blank	MissedWin	False
239.208	0.3	Win2	0.72	0.002	No	3.135	-0.002	1.0	NoResponse	0	0.195	n/a	4	24	ButtonPress	MissedWin	False
239.713	1.45	Win2	0.72	n/a	No	3.135	n/a	5.0	NoResponse	0	0.015	238.728	4	24	Feedback	MissedWin	False
241.163	3.135	Win2	0.72	n/a	No	3.135	n/a	n/a	NoResponse	0	0.0	n/a	4	24	ISIslide	MissedWin	False
244.328	0.25	Win2	0.6923	0.0	No	3.072	0.028	1.0	NoResponse	0	0.21	243.538	4	25	Cue	MissedWin	False
244.538	0.3	Win2	0.6923	0.0	No	3.072	0.028	1.0	NoResponse	0	0.21	n/a	4	25	ButtonPress	MissedWin	False
244.578	4.0	Win2	0.6923	0.0	No	3.072	0.0	n/a	NoResponse	0	n/a	n/a	4	25	Fixation	MissedWin	False
248.577	0.15	Win2	0.6923	0.001	No	3.072	-0.001	1.0	NoResponse	0	0.194	247.771	4	25	Target	MissedWin	False
248.727	0.55	Win2	0.6923	n/a	No	3.072	n/a	n/a	NoResponse	0	n/a	n/a	4	25	Blank	MissedWin	False
248.771	0.3	Win2	0.6923	0.001	No	3.072	-0.001	1.0	NoResponse	0	0.194	n/a	4	25	ButtonPress	MissedWin	False
249.277	1.45	Win2	0.6923	n/a	No	3.072	n/a	5.0	NoResponse	0	0.012	248.289	4	25	Feedback	MissedWin	False
250.726	3.072	Win2	0.6923	n/a	No	3.072	n/a	n/a	NoResponse	0	0.0	n/a	4	25	ISIslide	MissedWin	False
253.825	0.25	Win2	0.6667000000000001	0.0	No	2.925	0.025	1.0	NoResponse	0	0.224	253.049	4	26	Cue	MissedWin	False
254.049	0.3	Win2	0.6667000000000001	0.0	No	2.925	0.025	1.0	NoResponse	0	0.224	n/a	4	26	ButtonPress	MissedWin	False
254.075	3.95	Win2	0.6667000000000001	0.0	No	2.925	0.0	n/a	NoResponse	0	n/a	n/a	4	26	Fixation	MissedWin	False
258.023	0.15	Win2	0.6667000000000001	0.002	No	2.925	-0.002	1.0	NoResponse	0	0.196	257.219	4	26	Target	MissedWin	False
258.173	0.55	Win2	0.6667000000000001	n/a	No	2.925	n/a	n/a	NoResponse	0	n/a	n/a	4	26	Blank	MissedWin	False
258.219	0.3	Win2	0.6667000000000001	0.002	No	2.925	-0.002	1.0	NoResponse	0	0.196	n/a	4	26	ButtonPress	MissedWin	False
258.723	1.45	Win2	0.6667000000000001	n/a	No	2.925	n/a	5.0	NoResponse	0	0.03	257.753	4	26	Feedback	MissedWin	False
260.173	2.925	Win2	0.6667000000000001	n/a	No	2.925	n/a	n/a	NoResponse	0	0.0	n/a	4	26	ISIslide	MissedWin	False
263.122	0.25	Lose2	0.6429	0.0	No	2.828	0.022	1.0	NoResponse	-1	0.232	262.354	3	27	Cue	Loss	False
263.354	0.3	Lose2	0.6429	0.0	No	2.828	0.022	1.0	NoResponse	-1	0.232	n/a	3	27	ButtonPress	Loss	False
263.372	4.05	Lose2	0.6429	0.0	No	2.828	0.0	n/a	NoResponse	-1	n/a	n/a	3	27	Fixation	Loss	False
267.42	0.15	Lose2	0.6429	0.002	No	2.828	-0.002	1.0	NoResponse	-1	0.201	266.621	3	27	Target	Loss	False
267.57	0.55	Lose2	0.6429	n/a	No	2.828	n/a	n/a	NoResponse	-1	n/a	n/a	3	27	Blank	Loss	False
267.621	0.3	Lose2	0.6429	0.002	No	2.828	-0.002	1.0	NoResponse	-1	0.201	n/a	3	27	ButtonPress	Loss	False
268.12	1.45	Lose2	0.6429	n/a	No	2.828	n/a	5.0	NoResponse	-1	0.047	267.167	3	27	Feedback	Loss	False
269.569	2.828	Lose2	0.6429	n/a	No	2.828	n/a	n/a	NoResponse	-1	0.0	n/a	3	27	ISIslide	Loss	False
272.418	0.25	Control	0.6207	0.001	No	2.832	0.018	n/a	NoResponse	0	n/a	n/a	3	28	Cue	Neutral	False
272.668	4.05	Control	0.6207	0.0	No	2.832	0.0	1.0	NoResponse	0	0.007	271.675	3	28	Fixation	Neutral	False
272.675	0.3	Control	0.6207	0.0	No	2.832	0.0	1.0	NoResponse	0	0.007	n/a	3	28	ButtonPress	Neutral	False
276.717	0.16	Control	0.6207	0.001	No	2.832	-0.001	1.0	NoResponse	0	0.221	275.938	3	28	Target	Neutral	False
276.883	0.54	Control	0.6207	n/a	No	2.832	n/a	n/a	NoResponse	0	n/a	n/a	3	28	Blank	Neutral	False
276.938	0.3	Control	0.6207	0.001	No	2.832	-0.001	1.0	NoResponse	0	0.221	n/a	3	28	ButtonPress	Neutral	False
277.417	1.45	Control	0.6207	n/a	No	2.832	n/a	5.0	NoResponse	0	0.018	276.435	3	28	Feedback	Neutral	False
278.866	2.832	Control	0.6207	n/a	No	2.832	n/a	n/a	NoResponse	0	0.0	n/a	3	28	ISIslide	Neutral	False
281.715	0.25	Lose2	0.6	0.0	No	2.835	0.015	1.0	NoResponse	-1	0.232	280.947	2	29	Cue	Loss	False
281.947	0.3	Lose2	0.6	0.0	No	2.835	0.015	1.0	NoResponse	-1	0.232	n/a	2	29	ButtonPress	Loss	False
281.965	3.95	Lose2	0.6	0.0	No	2.835	0.0	n/a	NoResponse	-1	n/a	n/a	2	29	Fixation	Loss	False
285.914	0.17	Lose2	0.6	0.001	No	2.835	-0.001	1.0	NoResponse	-1	0.205	285.119	2	29	Target	Loss	False
286.097	0.53	Lose2	0.6	n/a	No	2.835	n/a	n/a	NoResponse	-1	n/a	n/a	2	29	Blank	Loss	False
286.119	0.3	Lose2	0.6	0.001	No	2.835	-0.001	1.0	NoResponse	-1	0.205	n/a	2	29	ButtonPress	Loss	False
286.613	1.45	Lose2	0.6	n/a	No	2.835	n/a	5.0	NoResponse	-1	0.042	285.655	2	29	Feedback	Loss	False
288.063	2.835	Lose2	0.6	n/a	No	2.835	n/a	n/a	NoResponse	-1	0.0	n/a	2	29	ISIslide	Loss	False
290.929	0.25	Win2	0.5806	0.0	No	2.771	0.029	n/a	NoResponse	0	n/a	n/a	2	30	Cue	MissedWin	False
291.178	3.9	Win2	0.5806	0.001	No	2.771	-0.001	1.0	NoResponse	0	0.172	290.35	2	30	Fixation	MissedWin	False
291.35	0.3	Win2	0.5806	0.001	No	2.771	-0.001	1.0	NoResponse	0	0.172	n/a	2	30	ButtonPress	MissedWin	False
295.077	0.18	Win2	0.5806	0.002	No	2.771	-0.002	1.0	NoResponse	0	0.207	294.284	2	30	Target	MissedWin	False
295.26	0.52	Win2	0.5806	n/a	No	2.771	n/a	n/a	NoResponse	0	n/a	n/a	2	30	Blank	MissedWin	False
295.284	0.3	Win2	0.5806	0.002	No	2.771	-0.002	1.0	NoResponse	0	0.207	n/a	2	30	ButtonPress	MissedWin	False
295.777	1.45	Win2	0.5806	n/a	No	2.771	n/a	5.0	NoResponse	0	0.0	294.777	2	30	Feedback	MissedWin	False
297.226	2.771	Win2	0.5806	n/a	No	2.771	n/a	n/a	NoResponse	0	0.0	n/a	2	30	ISIslide	MissedWin	False
300.025	0.25	Lose2	0.5625	0.0	No	2.825	0.025	1.0	NoResponse	-1	0.195	299.22	1	31	Cue	Loss	False
300.22	0.3	Lose2	0.5625	0.0	No	2.825	0.025	1.0	NoResponse	-1	0.195	n/a	1	31	ButtonPress	Loss	False
300.275	4.05	Lose2	0.5625	0.0	No	2.825	0.0	1.0	NoResponse	-1	3.776	303.051	1	31	Fixation	Loss	False
304.051	0.3	Lose2	0.5625	0.0	No	2.825	0.0	1.0	NoResponse	-1	3.776	n/a	1	31	ButtonPress	Loss	False
304.324	0.19	Lose2	0.5625	0.001	No	2.825	-0.001	1.0	NoResponse	-1	0.218	303.542	1	31	Target	Loss	False
304.524	0.51	Lose2	0.5625	n/a	No	2.825	n/a	n/a	NoResponse	-1	n/a	n/a	1	31	Blank	Loss	False
304.542	0.3	Lose2	0.5625	0.001	No	2.825	-0.001	1.0	NoResponse	-1	0.218	n/a	1	31	ButtonPress	Loss	False
305.024	1.45	Lose2	0.5625	n/a	No	2.825	n/a	5.0	NoResponse	-1	0.021	304.045	1	31	Feedback	Loss	False
306.473	2.825	Lose2	0.5625	n/a	No	2.825	n/a	n/a	NoResponse	-1	0.0	n/a	1	31	ISIslide	Loss	False
309.322	0.25	Lose2	0.5455	0.0	No	2.628	0.022	1.0	NoResponse	-1	0.006	308.328	0	32	Cue	Loss	False
309.328	0.3	Lose2	0.5455	0.0	No	2.628	0.022	1.0	NoResponse	-1	0.006	n/a	0	32	ButtonPress	Loss	False
309.572	4.15	Lose2	0.5455	0.0	No	2.628	0.0	n/a	NoResponse	-1	n/a	n/a	0	32	Fixation	Loss	False
313.721	0.2	Lose2	0.5455	0.001	No	2.628	-0.001	1.0	NoResponse	-1	0.21	312.931	0	32	Target	Loss	False
313.92	0.5	Lose2	0.5455	n/a	No	2.628	n/a	n/a	NoResponse	-1	n/a	n/a	0	32	Blank	Loss	False
313.931	0.3	Lose2	0.5455	0.001	No	2.628	-0.001	1.0	NoResponse	-1	0.21	n/a	0	32	ButtonPress	Loss	False
314.42	1.45	Lose2	0.5455	n/a	No	2.628	n/a	5.0	NoResponse	-1	0.04	313.46	0	32	Feedback	Loss	False
315.87	2.628	Lose2	0.5455	n/a	No	2.628	n/a	n/a	NoResponse	-1	0.0	n/a	0	32	ISIslide	Loss	False
318.519	0.25	Win2	0.5294	0.0	No	2.681	0.019	n/a	PrematurePress	0	n/a	n/a	0	33	Cue	MissedWin	False
318.769	4.0	Win2	0.5294	0.0	No	2.681	0.0	1.0	PrematurePress	0	0.228	317.997	0	33	Fixation	MissedWin	False
318.997	0.3	Win2	0.5294	0.0	No	2.681	0.0	1.0	PrematurePress	0	0.228	n/a	0	33	ButtonPress	MissedWin	False
322.767	0.21	Win2	0.5294	0.002	No	2.681	-0.002	1.0	PrematurePress	0	0.019	321.786	0	33	Target	MissedWin	False
322.786	0.3	Win2	0.5294	0.002	No	2.681	-0.002	1.0	PrematurePress	0	0.019	n/a	0	33	ButtonPress	MissedWin	False
322.984	0.49	Win2	0.5294	n/a	No	2.681	n/a	n/a	PrematurePress	0	n/a	n/a	0	33	Blank	MissedWin	False
323.467	1.45	Win2	0.5294	n/a	No	2.681	n/a	5.0	PrematurePress	0	0.016	322.483	0	33	Feedback	MissedWin	False
324.917	2.681	Win2	0.5294	n/a	No	2.681	n/a	n/a	PrematurePress	0	0.0	n/a	0	33	ISIslide	MissedWin	False
327.616	0.25	Lose2	0.5428999999999999	0.0	Yes	2.634	0.016	n/a	GoodResponse	0	n/a	n/a	0	34	Cue	AvoidedLoss	False
327.866	4.05	Lose2	0.5428999999999999	0.0	Yes	2.634	0.0	1.0	GoodResponse	0	0.023	326.889	0	34	Fixation	AvoidedLoss	False
327.889	0.3	Lose2	0.5428999999999999	0.0	Yes	2.634	0.0	1.0	GoodResponse	0	0.023	n/a	0	34	ButtonPress	AvoidedLoss	False
331.914	0.22	Lose2	0.5428999999999999	0.002	Yes	2.634	-0.002	1.0	GoodResponse	0	0.215	331.129	0	34	Target	AvoidedLoss	False
332.129	0.3	Lose2	0.5428999999999999	0.002	Yes	2.634	-0.002	1.0	GoodResponse	0	0.215	n/a	0	34	ButtonPress	AvoidedLoss	False
332.147	0.48	Lose2	0.5428999999999999	n/a	Yes	2.634	n/a	n/a	GoodResponse	0	n/a	n/a	0	34	Blank	AvoidedLoss	False
332.614	1.45	Lose2	0.5428999999999999	n/a	Yes	2.634	n/a	5.0	GoodResponse	0	0.04	331.654	0	34	Feedback	AvoidedLoss	False
334.063	2.634	Lose2	0.5428999999999999	n/a	Yes	2.634	n/a	n/a	GoodResponse	0	0.0	n/a	0	34	ISIslide	AvoidedLoss	False
336.712	0.25	Lose2	0.5556	0.001	Yes	2.688	0.012	n/a	GoodResponse	0	n/a	n/a	0	35	Cue	AvoidedLoss	True
336.962	4.0	Lose2	0.5556	0.0	Yes	2.688	0.0	n/a	GoodResponse	0	n/a	n/a	0	35	Fixation	AvoidedLoss	True
340.961	0.23	Lose2	0.5556	0.001	Yes	2.688	-0.001	1.0	GoodResponse	0	0.197	340.158	0	35	Target	AvoidedLoss	True
341.158	0.3	Lose2	0.5556	0.001	Yes	2.688	-0.001	1.0	GoodResponse	0	0.197	n/a	0	35	ButtonPress	AvoidedLoss	True
341.194	0.47	Lose2	0.5556	n/a	Yes	2.688	n/a	n/a	GoodResponse	0	n/a	n/a	0	35	Blank	AvoidedLoss	True
341.661	1.45	Lose2	0.5556	n/a	Yes	2.688	n/a	5.0	GoodResponse	0	0.018	340.679	0	35	Feedback	AvoidedLoss	True
343.11	2.688	Lose2	0.5556	n/a	Yes	2.688	n/a	n/a	GoodResponse	0	0.0	n/a	0	35	ISIslide	AvoidedLoss	True
345.826	0.25	Control	0.5676	0.0	Yes	2.674	0.026	n/a	GoodResponse	0	n/a	n/a	0	36	Cue	Neutral	True
346.076	4.0	Control	0.5676	0.0	Yes	2.674	0.0	n/a	GoodResponse	0	n/a	n/a	0	36	Fixation	Neutral	True
350.074	0.24	Control	0.5676	0.002	Yes	2.674	-0.002	1.0	GoodResponse	0	0.226	349.3	0	36	Target	Neutral	True
350.3	0.3	Control	0.5676	0.002	Yes	2.674	-0.002	1.0	GoodResponse	0	0.226	n/a	0	36	ButtonPress	Neutral	True
350.324	0.46	Control	0.5676	n/a	Yes	2.674	n/a	n/a	GoodResponse	0	n/a	n/a	0	36	Blank	Neutral	True
350.774	1.45	Control	0.5676	n/a	Yes	2.674	n/a	5.0	GoodResponse	0	0.027	349.801	0	36	Feedback	Neutral	True
352.224	2.674	Control	0.5676	n/a	Yes	2.674	n/a	n/a	GoodResponse	0	0.0	n/a	0	36	ISIslide	Neutral	True
354.923	0.25	Win2	0.5789	0.0	Yes	2.877	0.023	n/a	GoodResponse	1	n/a	n/a	1	37	Cue	Win	False
355.173	4.0	Win2	0.5789	0.0	Yes	2.877	0.0	1.0	GoodResponse	1	0.182	354.355	1	37	Fixation	Win	False
355.355	0.3	Win2	0.5789	0.0	Yes	2.877	0.0	1.0	GoodResponse	1	0.182	n/a	1	37	ButtonPress	Win	False
359.171	0.25	Win2	0.5789	0.002	Yes	2.877	-0.002	1.0	GoodResponse	1	0.198	358.369	1	37	Target	Win	False
359.369	0.3	Win2	0.5789	0.002	Yes	2.877	-0.002	1.0	GoodResponse	1	0.198	n/a	1	37	ButtonPress	Win	False
359.421	0.45	Win2	0.5789	n/a	Yes	2.877	n/a	n/a	GoodResponse	1	n/a	n/a	1	37	Blank	Win	False
359.871	1.45	Win2	0.5789	n/a	Yes	2.877	n/a	5.0	GoodResponse	1	0.007	358.878	1	37	Feedback	Win	False
361.32	2.877	Win2	0.5789	n/a	Yes	2.877	n/a	n/a	GoodResponse	1	0.0	n/a	1	37	ISIslide	Win	False
364.219	0.25	Lose2	0.5897	0.0	Yes	2.831	0.019	n/a	GoodResponse	0	n/a	n/a	1	38	Cue	AvoidedLoss	True
364.469	3.95	Lose2	0.5897	0.0	Yes	2.831	0.0	n/a	GoodResponse	0	n/a	n/a	1	38	Fixation	AvoidedLoss	True
368.418	0.26	Lose2	0.5897	0.001	Yes	2.831	-0.001	1.0	GoodResponse	0	0.212	367.63	1	38	Target	AvoidedLoss	True
368.63	0.3	Lose2	0.5897	0.001	Yes	2.831	-0.001	1.0	GoodResponse	0	0.212	n/a	1	38	ButtonPress	AvoidedLoss	True
368.684	0.44	Lose2	0.5897	n/a	Yes	2.831	n/a	n/a	GoodResponse	0	n/a	n/a	1	38	Blank	AvoidedLoss	True
369.118	1.45	Lose2	0.5897	n/a	Yes	2.831	n/a	5.0	GoodResponse	0	0.023	368.141	1	38	Feedback	AvoidedLoss	True
370.567	2.831	Lose2	0.5897	n/a	Yes	2.831	n/a	n/a	GoodResponse	0	0.0	n/a	1	38	ISIslide	AvoidedLoss	True
373.416	0.25	Win2	0.6	0.0	Yes	2.984	0.016	n/a	GoodResponse	1	n/a	n/a	2	39	Cue	Win	True
373.666	4.1	Win2	0.6	0.0	Yes	2.984	0.0	n/a	GoodResponse	1	n/a	n/a	2	39	Fixation	Win	True
377.765	0.27	Win2	0.6	0.001	Yes	2.984	-0.001	1.0	GoodResponse	1	0.205	376.97	2	39	Target	Win	True
377.97	0.3	Win2	0.6	0.001	Yes	2.984	-0.001	1.0	GoodResponse	1	0.205	n/a	2	39	ButtonPress	Win	True
378.048	0.43	Win2	0.6	n/a	Yes	2.984	n/a	n/a	GoodResponse	1	n/a	n/a	2	39	Blank	Win	True
378.464	1.45	Win2	0.6	n/a	Yes	2.984	n/a	5.0	GoodResponse	1	0.043	377.507	2	39	Feedback	Win	True
379.914	2.984	Win2	0.6	n/a	Yes	2.984	n/a	n/a	GoodResponse	1	0.0	n/a	2	39	ISIslide	Win	True
382.929	0.25	Win2	0.6098	0.001	Yes	2.721	0.029	n/a	GoodResponse	1	n/a	n/a	3	40	Cue	Win	True
383.179	3.95	Win2	0.6098	0.0	Yes	2.721	0.0	n/a	GoodResponse	1	n/a	n/a	3	40	Fixation	Win	True
387.128	0.28	Win2	0.6098	0.001	Yes	2.721	-0.001	1.0	GoodResponse	1	0.193	386.321	3	40	Target	Win	True
387.321	0.3	Win2	0.6098	0.001	Yes	2.721	-0.001	1.0	GoodResponse	1	0.193	n/a	3	40	ButtonPress	Win	True
387.411	0.42	Win2	0.6098	n/a	Yes	2.721	n/a	n/a	GoodResponse	1	n/a	n/a	3	40	Blank	Win	True
387.828	1.45	Win2	0.6098	n/a	Yes	2.721	n/a	5.0	GoodResponse	1	0.045	386.873	3	40	Feedback	Win	True
389.277	2.721	Win2	0.6098	n/a	Yes	2.721	n/a	n/a	GoodResponse	1	0.0	n/a	3	40	ISIslide	Win	True
392.026	0.25	Win2	0.619	0.0	Yes	2.774	0.026	n/a	GoodResponse	1	n/a	n/a	4	41	Cue	Win	True
392.276	3.9	Win2	0.619	0.0	Yes	2.774	0.0	n/a	GoodResponse	1	n/a	n/a	4	41	Fixation	Win	True
396.175	0.29	Win2	0.619	0.001	Yes	2.774	-0.001	1.0	GoodResponse	1	0.211	395.386	4	41	Target	Win	True
396.386	0.3	Win2	0.619	0.001	Yes	2.774	-0.001	1.0	GoodResponse	1	0.211	n/a	4	41	ButtonPress	Win	True
396.475	0.41	Win2	0.619	n/a	Yes	2.774	n/a	n/a	GoodResponse	1	n/a	n/a	4	41	Blank	Win	True
396.875	1.45	Win2	0.619	n/a	Yes	2.774	n/a	5.0	GoodResponse	1	0.023	395.898	4	41	Feedback	Win	True
398.324	2.774	Win2	0.619	n/a	Yes	2.774	n/a	n/a	GoodResponse	1	0.0	n/a	4	41	ISIslide	Win	True
401.123	0.25	Control	0.6279	0.0	Yes	2.927	0.023	n/a	GoodResponse	0	n/a	n/a	4	42	Cue	Neutral	True
401.373	3.85	Control	0.6279	0.0	Yes	2.927	0.0	n/a	GoodResponse	0	n/a	n/a	4	42	Fixation	Neutral	True
405.222	0.3	Control	0.6279	0.001	Yes	2.927	-0.001	1.0	GoodResponse	0	0.111	404.333	4	42	Target	Neutral	True
405.333	0.3	Control	0.6279	0.001	Yes	2.927	-0.001	1.0	GoodResponse	0	0.111	n/a	4	42	ButtonPress	Neutral	True
405.522	0.4	Control	0.6279	n/a	Yes	2.927	n/a	n/a	GoodResponse	0	n/a	n/a	4	42	Blank	Neutral	True
405.922	1.45	Control	0.6279	n/a	Yes	2.927	n/a	5.0	GoodResponse	0	0.048	404.97	4	42	Feedback	Neutral	True
407.371	2.927	Control	0.6279	n/a	Yes	2.927	n/a	n/a	GoodResponse	0	0.0	n/a	4	42	ISIslide	Neutral	True
410.32	0.25	Win2	0.6364	0.0	Yes	3.18	0.02	n/a	GoodResponse	1	n/a	n/a	5	43	Cue	Win	True
410.57	4.0	Win2	0.6364	0.0	Yes	3.18	0.0	n/a	GoodResponse	1	n/a	n/a	5	43	Fixation	Win	True
414.568	0.31	Win2	0.6364	0.002	Yes	3.18	-0.002	1.0	GoodResponse	1	0.231	413.799	5	43	Target	Win	True
414.799	0.3	Win2	0.6364	0.002	Yes	3.18	-0.002	1.0	GoodResponse	1	0.231	n/a	5	43	ButtonPress	Win	True
414.885	0.39	Win2	0.6364	n/a	Yes	3.18	n/a	n/a	GoodResponse	1	n/a	n/a	5	43	Blank	Win	True
415.268	1.45	Win2	0.6364	n/a	Yes	3.18	n/a	5.0	GoodResponse	1	0.019	414.287	5	43	Feedback	Win	True
416.718	3.18	Win2	0.6364	n/a	Yes	3.18	n/a	n/a	GoodResponse	1	0.0	n/a	5	43	ISIslide	Win	True
419.916	0.25	Win2	0.6444	0.0	Yes	2.984	0.016	n/a	GoodResponse	1	n/a	n/a	6	44	Cue	Win	True
420.166	4.0	Win2	0.6444	0.0	Yes	2.984	0.0	n/a	GoodResponse	1	n/a	n/a	6	44	Fixation	Win	True
424.165	0.32	Win2	0.6444	0.001	Yes	2.984	-0.001	1.0	GoodResponse	1	0.196	423.361	6	44	Target	Win	True
424.361	0.3	Win2	0.6444	0.001	Yes	2.984	-0.001	1.0	GoodResponse	1	0.196	n/a	6	44	ButtonPress	Win	True
424.481	0.38	Win2	0.6444	n/a	Yes	2.984	n/a	n/a	GoodResponse	1	n/a	n/a	6	44	Blank	Win	True
424.865	1.45	Win2	0.6444	n/a	Yes	2.984	n/a	5.0	GoodResponse	1	0.032	423.897	6	44	Feedback	Win	True
426.314	2.984	Win2	0.6444	n/a	Yes	2.984	n/a	n/a	GoodResponse	1	0.0	n/a	6	44	ISIslide	Win	True
429.313	0.25	Control	0.6522	0.0	Yes	2.887	0.013	n/a	GoodResponse	0	n/a	n/a	6	45	Cue	Neutral	True
429.563	4.1	Control	0.6522	0.0	Yes	2.887	0.0	n/a	GoodResponse	0	n/a	n/a	6	45	Fixation	Neutral	True
433.662	0.33	Control	0.6522	0.001	Yes	2.887	-0.001	1.0	GoodResponse	0	0.212	432.874	6	45	Target	Neutral	True
433.874	0.3	Control	0.6522	0.001	Yes	2.887	-0.001	1.0	GoodResponse	0	0.212	n/a	6	45	ButtonPress	Neutral	True
433.995	0.37	Control	0.6522	n/a	Yes	2.887	n/a	n/a	GoodResponse	0	n/a	n/a	6	45	Blank	Neutral	True
434.361	1.45	Control	0.6522	n/a	Yes	2.887	n/a	5.0	GoodResponse	0	0.048	433.409	6	45	Feedback	Neutral	True
435.811	2.887	Control	0.6522	n/a	Yes	2.887	n/a	n/a	GoodResponse	0	0.0	n/a	6	45	ISIslide	Neutral	True
438.726	0.25	Lose2	0.6596	0.001	Yes	3.374	0.026	1.0	GoodResponse	0	0.235	437.961	6	46	Cue	AvoidedLoss	False
438.961	0.3	Lose2	0.6596	0.001	Yes	3.374	0.026	1.0	GoodResponse	0	0.235	n/a	6	46	ButtonPress	AvoidedLoss	False
438.976	4.0	Lose2	0.6596	0.0	Yes	3.374	0.0	n/a	GoodResponse	0	n/a	n/a	6	46	Fixation	AvoidedLoss	False
442.975	0.34	Lose2	0.6596	0.001	Yes	3.374	-0.001	1.0	GoodResponse	0	0.231	442.206	6	46	Target	AvoidedLoss	False
443.206	0.3	Lose2	0.6596	0.001	Yes	3.374	-0.001	1.0	GoodResponse	0	0.231	n/a	6	46	ButtonPress	AvoidedLoss	False
443.325	0.36	Lose2	0.6596	n/a	Yes	3.374	n/a	n/a	GoodResponse	0	n/a	n/a	6	46	Blank	AvoidedLoss	False
443.675	1.45	Lose2	0.6596	n/a	Yes	3.374	n/a	5.0	GoodResponse	0	0.006	442.681	6	46	Feedback	AvoidedLoss	False
445.124	3.374	Lose2	0.6596	n/a	Yes	3.374	n/a	n/a	GoodResponse	0	0.0	n/a	6	46	ISIslide	AvoidedLoss	False
448.523	0.25	Lose2	0.6667000000000001	0.0	Yes	2.677	0.023	n/a	GoodResponse	0	n/a	n/a	6	47	Cue	AvoidedLoss	True
448.773	4.0	Lose2	0.6667000000000001	0.0	Yes	2.677	0.0	n/a	GoodResponse	0	n/a	n/a	6	47	Fixation	AvoidedLoss	True
452.772	0.34	Lose2	0.6667000000000001	0.001	Yes	2.677	-0.001	1.0	GoodResponse	0	0.245	452.017	6	47	Target	AvoidedLoss	True
453.017	0.3	Lose2	0.6667000000000001	0.001	Yes	2.677	-0.001	1.0	GoodResponse	0	0.245	n/a	6	47	ButtonPress	AvoidedLoss	True
453.121	0.36	Lose2	0.6667000000000001	n/a	Yes	2.677	n/a	n/a	GoodResponse	0	n/a	n/a	6	47	Blank	AvoidedLoss	True
453.471	1.45	Lose2	0.6667000000000001	n/a	Yes	2.677	n/a	5.0	GoodResponse	0	0.011	452.482	6	47	Feedback	AvoidedLoss	True
454.921	2.677	Lose2	0.6667000000000001	n/a	Yes	2.677	n/a	n/a	GoodResponse	0	0.0	n/a	6	47	ISIslide	AvoidedLoss	True
457.62	0.25	Lose2	0.6735	0.0	Yes	3.03	0.02	n/a	GoodResponse	0	n/a	n/a	6	48	Cue	AvoidedLoss	True
457.87	3.95	Lose2	0.6735	0.0	Yes	3.03	0.0	n/a	GoodResponse	0	n/a	n/a	6	48	Fixation	AvoidedLoss	True
461.818	0.33	Lose2	0.6735	0.002	Yes	3.03	-0.002	1.0	GoodResponse	0	0.3	461.118	6	48	Target	AvoidedLoss	True
462.118	0.3	Lose2	0.6735	0.002	Yes	3.03	-0.002	1.0	GoodResponse	0	0.3	n/a	6	48	ButtonPress	AvoidedLoss	True
462.152	0.37	Lose2	0.6735	n/a	Yes	3.03	n/a	n/a	GoodResponse	0	n/a	n/a	6	48	Blank	AvoidedLoss	True
462.518	1.45	Lose2	0.6735	n/a	Yes	3.03	n/a	5.0	GoodResponse	0	0.037	461.555	6	48	Feedback	AvoidedLoss	True
463.968	3.03	Lose2	0.6735	n/a	Yes	3.03	n/a	n/a	GoodResponse	0	0.0	n/a	6	48	ISIslide	AvoidedLoss	True
467.016	0.25	Control	0.68	0.001	Yes	2.884	0.016	n/a	GoodResponse	0	n/a	n/a	6	49	Cue	Neutral	True
467.266	4.0	Control	0.68	0.0	Yes	2.884	0.0	n/a	GoodResponse	0	n/a	n/a	6	49	Fixation	Neutral	True
471.265	0.32	Control	0.68	0.001	Yes	2.884	-0.001	1.0	GoodResponse	0	0.222	470.487	6	49	Target	Neutral	True
471.487	0.3	Control	0.68	0.001	Yes	2.884	-0.001	1.0	GoodResponse	0	0.222	n/a	6	49	ButtonPress	Neutral	True
471.582	0.38	Control	0.68	n/a	Yes	2.884	n/a	n/a	GoodResponse	0	n/a	n/a	6	49	Blank	Neutral	True
471.965	1.45	Control	0.68	n/a	Yes	2.884	n/a	5.0	GoodResponse	0	0.007	470.972	6	49	Feedback	Neutral	True
473.414	2.884	Control	0.68	n/a	Yes	2.884	n/a	n/a	GoodResponse	0	0.0	n/a	6	49	ISIslide	Neutral	True
476.33	0.25	Control	0.6862999999999999	0.0	Yes	2.77	0.03	n/a	GoodResponse	0	n/a	n/a	6	50	Cue	Neutral	True
476.58	4.0	Control	0.6862999999999999	0.0	Yes	2.77	0.0	n/a	GoodResponse	0	n/a	n/a	6	50	Fixation	Neutral	True
480.578	0.31	Control	0.6862999999999999	0.002	Yes	2.77	-0.002	1.0	GoodResponse	0	0.238	479.816	6	50	Target	Neutral	True
480.816	0.3	Control	0.6862999999999999	0.002	Yes	2.77	-0.002	1.0	GoodResponse	0	0.238	n/a	6	50	ButtonPress	Neutral	True
480.895	0.39	Control	0.6862999999999999	n/a	Yes	2.77	n/a	n/a	GoodResponse	0	n/a	n/a	6	50	Blank	Neutral	True
481.278	1.45	Control	0.6862999999999999	n/a	Yes	2.77	n/a	5.0	GoodResponse	0	0.009	480.287	6	50	Feedback	Neutral	True
482.728	2.77	Control	0.6862999999999999	n/a	Yes	2.77	n/a	n/a	GoodResponse	0	0.0	n/a	6	50	ISIslide	Neutral	True
485.527	0.25	Control	0.6923	0.0	Yes	2.723	0.027	n/a	GoodResponse	0	n/a	n/a	6	51	Cue	Neutral	True
485.777	3.95	Control	0.6923	0.0	Yes	2.723	0.0	n/a	GoodResponse	0	n/a	n/a	6	51	Fixation	Neutral	True
489.725	0.3	Control	0.6923	0.002	Yes	2.723	-0.002	1.0	GoodResponse	0	0.231	488.956	6	51	Target	Neutral	True
489.956	0.3	Control	0.6923	0.002	Yes	2.723	-0.002	1.0	GoodResponse	0	0.231	n/a	6	51	ButtonPress	Neutral	True
490.025	0.4	Control	0.6923	n/a	Yes	2.723	n/a	n/a	GoodResponse	0	n/a	n/a	6	51	Blank	Neutral	True
490.425	1.45	Control	0.6923	n/a	Yes	2.723	n/a	5.0	GoodResponse	0	0.032	489.457	6	51	Feedback	Neutral	True
491.874	2.723	Control	0.6923	n/a	Yes	2.723	n/a	n/a	GoodResponse	0	0.0	n/a	6	51	ISIslide	Neutral	True
494.623	0.25	Control	0.6981	0.001	Yes	2.627	0.023	n/a	GoodResponse	0	n/a	n/a	6	52	Cue	Neutral	True
494.873	4.05	Control	0.6981	0.0	Yes	2.627	0.0	n/a	GoodResponse	0	n/a	n/a	6	52	Fixation	Neutral	True
498.922	0.29	Control	0.6981	0.001	Yes	2.627	-0.001	1.0	GoodResponse	0	0.226	498.148	6	52	Target	Neutral	True
499.148	0.3	Control	0.6981	0.001	Yes	2.627	-0.001	1.0	GoodResponse	0	0.226	n/a	6	52	ButtonPress	Neutral	True
499.222	0.41	Control	0.6981	n/a	Yes	2.627	n/a	n/a	GoodResponse	0	n/a	n/a	6	52	Blank	Neutral	True
499.622	1.45	Control	0.6981	n/a	Yes	2.627	n/a	5.0	GoodResponse	0	0.006	498.628	6	52	Feedback	Neutral	True
501.071	2.627	Control	0.6981	n/a	Yes	2.627	n/a	n/a	GoodResponse	0	0.0	n/a	6	52	ISIslide	Neutral	True
503.72	0.25	Win2	0.7037	0.0	Yes	2.93	0.02	n/a	GoodResponse	1	n/a	n/a	7	53	Cue	Win	False
503.97	4.05	Win2	0.7037	0.0	Yes	2.93	0.0	1.0	GoodResponse	1	0.067	503.037	7	53	Fixation	Win	False
504.037	0.3	Win2	0.7037	0.0	Yes	2.93	0.0	1.0	GoodResponse	1	0.067	n/a	7	53	ButtonPress	Win	False
508.019	0.28	Win2	0.7037	0.001	Yes	2.93	-0.001	1.0	GoodResponse	1	0.231	507.25	7	53	Target	Win	False
508.25	0.3	Win2	0.7037	0.001	Yes	2.93	-0.001	1.0	GoodResponse	1	0.231	n/a	7	53	ButtonPress	Win	False
508.302	0.42	Win2	0.7037	n/a	Yes	2.93	n/a	n/a	GoodResponse	1	n/a	n/a	7	53	Blank	Win	False
508.718	1.45	Win2	0.7037	n/a	Yes	2.93	n/a	5.0	GoodResponse	1	0.032	507.75	7	53	Feedback	Win	False
510.168	2.93	Win2	0.7037	n/a	Yes	2.93	n/a	n/a	GoodResponse	1	0.0	n/a	7	53	ISIslide	Win	False
513.117	0.25	Win2	0.7091	0.0	Yes	2.733	0.017	n/a	GoodResponse	1	n/a	n/a	8	54	Cue	Win	True
513.367	3.95	Win2	0.7091	0.0	Yes	2.733	0.0	n/a	GoodResponse	1	n/a	n/a	8	54	Fixation	Win	True
517.315	0.27	Win2	0.7091	0.002	Yes	2.733	-0.002	1.0	GoodResponse	1	0.189	516.504	8	54	Target	Win	True
517.504	0.3	Win2	0.7091	0.002	Yes	2.733	-0.002	1.0	GoodResponse	1	0.189	n/a	8	54	ButtonPress	Win	True
517.599	0.43	Win2	0.7091	n/a	Yes	2.733	n/a	n/a	GoodResponse	1	n/a	n/a	8	54	Blank	Win	True
518.015	1.45	Win2	0.7091	n/a	Yes	2.733	n/a	5.0	GoodResponse	1	0.007	517.022	8	54	Feedback	Win	True
519.465	2.733	Win2	0.7091	n/a	Yes	2.733	n/a	n/a	GoodResponse	1	0.0	n/a	8	54	ISIslide	Win	True
522.214	0.25	Control	0.7143	0.0	Yes	3.036	0.014	n/a	GoodResponse	0	n/a	n/a	8	55	Cue	Neutral	True
522.464	3.95	Control	0.7143	0.0	Yes	3.036	0.0	n/a	GoodResponse	0	n/a	n/a	8	55	Fixation	Neutral	True
526.412	0.26	Control	0.7143	0.002	Yes	3.036	-0.002	1.0	GoodResponse	0	0.211	525.623	8	55	Target	Neutral	True
526.623	0.3	Control	0.7143	0.002	Yes	3.036	-0.002	1.0	GoodResponse	0	0.211	n/a	8	55	ButtonPress	Neutral	True
526.679	0.44	Control	0.7143	n/a	Yes	3.036	n/a	n/a	GoodResponse	0	n/a	n/a	8	55	Blank	Neutral	True
527.112	1.45	Control	0.7143	n/a	Yes	3.036	n/a	5.0	GoodResponse	0	0.028	526.14	8	55	Feedback	Neutral	True
528.561	3.036	Control	0.7143	n/a	Yes	3.036	n/a	n/a	GoodResponse	0	0.0	n/a	8	55	ISIslide	Neutral	True
531.627	0.25	Control	0.7193	0.0	Yes	2.823	0.027	n/a	GoodResponse	0	n/a	n/a	8	56	Cue	Neutral	True
531.877	3.95	Control	0.7193	0.0	Yes	2.823	0.0	n/a	GoodResponse	0	n/a	n/a	8	56	Fixation	Neutral	True
535.826	0.25	Control	0.7193	0.001	Yes	2.823	-0.001	1.0	GoodResponse	0	0.232	535.058	8	56	Target	Neutral	True
536.058	0.3	Control	0.7193	0.001	Yes	2.823	-0.001	1.0	GoodResponse	0	0.232	n/a	8	56	ButtonPress	Neutral	True
536.076	0.45	Control	0.7193	n/a	Yes	2.823	n/a	n/a	GoodResponse	0	n/a	n/a	8	56	Blank	Neutral	True
536.525	1.45	Control	0.7193	n/a	Yes	2.823	n/a	5.0	GoodResponse	0	0.029	535.554	8	56	Feedback	Neutral	True
537.975	2.823	Control	0.7193	n/a	Yes	2.823	n/a	n/a	GoodResponse	0	0.0	n/a	8	56	ISIslide	Neutral	True
540.824	0.25	Control	0.7241	0.0	Yes	3.476	0.024	n/a	GoodResponse	0	n/a	n/a	8	57	Cue	Neutral	True
541.074	4.0	Control	0.7241	0.0	Yes	3.476	0.0	n/a	GoodResponse	0	n/a	n/a	8	57	Fixation	Neutral	True
545.072	0.24	Control	0.7241	0.002	Yes	3.476	-0.002	1.0	GoodResponse	0	0.223	544.295	8	57	Target	Neutral	True
545.295	0.3	Control	0.7241	0.002	Yes	3.476	-0.002	1.0	GoodResponse	0	0.223	n/a	8	57	ButtonPress	Neutral	True
545.322	0.46	Control	0.7241	n/a	Yes	3.476	n/a	n/a	GoodResponse	0	n/a	n/a	8	57	Blank	Neutral	True
545.772	1.45	Control	0.7241	n/a	Yes	3.476	n/a	5.0	GoodResponse	0	0.002	544.774	8	57	Feedback	Neutral	True
547.222	3.476	Control	0.7241	n/a	Yes	3.476	n/a	n/a	GoodResponse	0	0.0	n/a	8	57	ISIslide	Neutral	True
550.72	0.25	Win2	0.7288	0.0	Yes	2.73	0.02	n/a	GoodResponse	1	n/a	n/a	9	58	Cue	Win	True
550.97	4.05	Win2	0.7288	0.0	Yes	2.73	0.0	n/a	GoodResponse	1	n/a	n/a	9	58	Fixation	Win	True
555.019	0.23	Win2	0.7288	0.001	Yes	2.73	-0.001	1.0	GoodResponse	1	0.197	554.216	9	58	Target	Win	True
555.216	0.3	Win2	0.7288	0.001	Yes	2.73	-0.001	1.0	GoodResponse	1	0.197	n/a	9	58	ButtonPress	Win	True
555.252	0.47	Win2	0.7288	n/a	Yes	2.73	n/a	n/a	GoodResponse	1	n/a	n/a	9	58	Blank	Win	True
555.719	1.45	Win2	0.7288	n/a	Yes	2.73	n/a	5.0	GoodResponse	1	0.007	554.726	9	58	Feedback	Win	True
557.168	2.73	Win2	0.7288	n/a	Yes	2.73	n/a	n/a	GoodResponse	1	0.0	n/a	9	58	ISIslide	Win	True
559.917	0.25	Lose2	0.7333	0.0	Yes	2.683	0.017	n/a	GoodResponse	0	n/a	n/a	9	59	Cue	AvoidedLoss	True
560.167	4.0	Lose2	0.7333	0.0	Yes	2.683	0.0	n/a	GoodResponse	0	n/a	n/a	9	59	Fixation	AvoidedLoss	True
564.166	0.22	Lose2	0.7333	0.001	Yes	2.683	-0.001	1.0	GoodResponse	0	0.206	563.372	9	59	Target	AvoidedLoss	True
564.372	0.3	Lose2	0.7333	0.001	Yes	2.683	-0.001	1.0	GoodResponse	0	0.206	n/a	9	59	ButtonPress	AvoidedLoss	True
564.399	0.48	Lose2	0.7333	n/a	Yes	2.683	n/a	n/a	GoodResponse	0	n/a	n/a	9	59	Blank	AvoidedLoss	True
564.865	1.45	Lose2	0.7333	n/a	Yes	2.683	n/a	5.0	GoodResponse	0	0.031	563.896	9	59	Feedback	AvoidedLoss	True
566.315	2.683	Lose2	0.7333	n/a	Yes	2.683	n/a	n/a	GoodResponse	0	0.0	n/a	9	59	ISIslide	AvoidedLoss	True
569.014	0.25	Control	0.7212999999999999	0.0	No	2.686	0.014	n/a	NoResponse	0	n/a	n/a	9	60	Cue	Neutral	True
569.264	4.0	Control	0.7212999999999999	0.0	No	2.686	0.0	n/a	NoResponse	0	n/a	n/a	9	60	Fixation	Neutral	True
573.262	0.21	Control	0.7212999999999999	0.002	No	2.686	-0.002	1.0	NoResponse	0	0.296	572.558	9	60	Target	Neutral	True
573.479	0.49	Control	0.7212999999999999	n/a	No	2.686	n/a	n/a	NoResponse	0	n/a	n/a	9	60	Blank	Neutral	True
573.558	0.3	Control	0.7212999999999999	0.002	No	2.686	-0.002	1.0	NoResponse	0	0.296	n/a	9	60	ButtonPress	Neutral	True
573.962	1.45	Control	0.7212999999999999	n/a	No	2.686	n/a	5.0	NoResponse	0	0.007	572.969	9	60	Feedback	Neutral	True
575.412	2.686	Control	0.7212999999999999	n/a	No	2.686	n/a	n/a	NoResponse	0	0.0	n/a	9	60	ISIslide	Neutral	True
578.127	0.25	Lose2	0.7258	0.0	Yes	2.973	0.027	n/a	GoodResponse	0	n/a	n/a	9	61	Cue	AvoidedLoss	False
578.377	4.0	Lose2	0.7258	0.0	Yes	2.973	0.0	1.0	GoodResponse	0	0.013	577.39	9	61	Fixation	AvoidedLoss	False
578.39	0.3	Lose2	0.7258	0.0	Yes	2.973	0.0	1.0	GoodResponse	0	0.013	n/a	9	61	ButtonPress	AvoidedLoss	False
582.376	0.2	Lose2	0.7258	0.001	Yes	2.973	-0.001	1.0	GoodResponse	0	0.195	581.571	9	61	Target	AvoidedLoss	False
582.571	0.3	Lose2	0.7258	0.001	Yes	2.973	-0.001	1.0	GoodResponse	0	0.195	n/a	9	61	ButtonPress	AvoidedLoss	False
582.576	0.5	Lose2	0.7258	n/a	Yes	2.973	n/a	n/a	GoodResponse	0	n/a	n/a	9	61	Blank	AvoidedLoss	False
583.076	1.45	Lose2	0.7258	n/a	Yes	2.973	n/a	5.0	GoodResponse	0	0.014	582.09	9	61	Feedback	AvoidedLoss	False
584.525	2.973	Lose2	0.7258	n/a	Yes	2.973	n/a	n/a	GoodResponse	0	0.0	n/a	9	61	ISIslide	AvoidedLoss	False
587.524	0.25	Lose2	0.7143	0.0	No	2.876	0.024	n/a	NoResponse	-1	n/a	n/a	8	62	Cue	Loss	True
587.774	3.9	Lose2	0.7143	0.0	No	2.876	0.0	n/a	NoResponse	-1	n/a	n/a	8	62	Fixation	Loss	True
591.673	0.19	Lose2	0.7143	0.001	No	2.876	-0.001	1.0	NoResponse	-1	0.207	590.88	8	62	Target	Loss	True
591.873	0.51	Lose2	0.7143	n/a	No	2.876	n/a	n/a	NoResponse	-1	n/a	n/a	8	62	Blank	Loss	True
591.88	0.3	Lose2	0.7143	0.001	No	2.876	-0.001	1.0	NoResponse	-1	0.207	n/a	8	62	ButtonPress	Loss	True
592.372	1.45	Lose2	0.7143	n/a	No	2.876	n/a	5.0	NoResponse	-1	0.035	591.407	8	62	Feedback	Loss	True
593.822	2.876	Lose2	0.7143	n/a	No	2.876	n/a	n/a	NoResponse	-1	0.0	n/a	8	62	ISIslide	Loss	True
596.721	0.25	Lose2	0.7031000000000001	0.0	No	2.629	0.021	n/a	NoResponse	-1	n/a	n/a	7	63	Cue	Loss	True
596.971	4.05	Lose2	0.7031000000000001	0.0	No	2.629	0.0	n/a	NoResponse	-1	n/a	n/a	7	63	Fixation	Loss	True
601.019	0.18	Lose2	0.7031000000000001	0.002	No	2.629	-0.002	1.0	NoResponse	-1	0.198	600.217	7	63	Target	Loss	True
601.203	0.52	Lose2	0.7031000000000001	n/a	No	2.629	n/a	n/a	NoResponse	-1	n/a	n/a	7	63	Blank	Loss	True
601.217	0.3	Lose2	0.7031000000000001	0.002	No	2.629	-0.002	1.0	NoResponse	-1	0.198	n/a	7	63	ButtonPress	Loss	True
601.719	1.45	Lose2	0.7031000000000001	n/a	No	2.629	n/a	5.0	NoResponse	-1	0.007	600.726	7	63	Feedback	Loss	True
603.169	2.629	Lose2	0.7031000000000001	n/a	No	2.629	n/a	n/a	NoResponse	-1	0.0	n/a	7	63	ISIslide	Loss	True
605.818	0.25	Win2	0.6923	0.0	No	3.132	0.018	n/a	NoResponse	0	n/a	n/a	7	64	Cue	MissedWin	True
606.068	4.15	Win2	0.6923	0.0	No	3.132	0.0	n/a	NoResponse	0	n/a	n/a	7	64	Fixation	MissedWin	True
610.216	0.17	Win2	0.6923	0.002	No	3.132	-0.002	1.0	NoResponse	0	0.203	609.419	7	64	Target	MissedWin	True
610.399	0.53	Win2	0.6923	n/a	No	3.132	n/a	n/a	NoResponse	0	n/a	n/a	7	64	Blank	MissedWin	True
610.419	0.3	Win2	0.6923	0.002	No	3.132	-0.002	1.0	NoResponse	0	0.203	n/a	7	64	ButtonPress	MissedWin	True
610.916	1.45	Win2	0.6923	n/a	No	3.132	n/a	5.0	NoResponse	0	0.028	609.944	7	64	Feedback	MissedWin	True
612.365	3.132	Win2	0.6923	n/a	No	3.132	n/a	n/a	NoResponse	0	0.0	n/a	7	64	ISIslide	MissedWin	True
615.514	0.25	Control	0.6818000000000001	0.0	No	2.786	0.014	n/a	NoResponse	0	n/a	n/a	7	65	Cue	Neutral	True
615.764	4.0	Control	0.6818000000000001	0.0	No	2.786	0.0	n/a	NoResponse	0	n/a	n/a	7	65	Fixation	Neutral	True
619.763	0.16	Control	0.6818000000000001	0.001	No	2.786	-0.001	1.0	NoResponse	0	0.229	618.992	7	65	Target	Neutral	True
619.929	0.54	Control	0.6818000000000001	n/a	No	2.786	n/a	n/a	NoResponse	0	n/a	n/a	7	65	Blank	Neutral	True
619.992	0.3	Control	0.6818000000000001	0.001	No	2.786	-0.001	1.0	NoResponse	0	0.229	n/a	7	65	ButtonPress	Neutral	True
620.462	1.45	Control	0.6818000000000001	n/a	No	2.786	n/a	5.0	NoResponse	0	0.043	619.505	7	65	Feedback	Neutral	True
621.912	2.786	Control	0.6818000000000001	n/a	No	2.786	n/a	n/a	NoResponse	0	0.0	n/a	7	65	ISIslide	Neutral	True
624.728	0.25	Win2	0.6716	0.0	No	2.772	0.028	n/a	NoResponse	0	n/a	n/a	7	66	Cue	MissedWin	True
624.978	3.9	Win2	0.6716	0.0	No	2.772	0.0	n/a	NoResponse	0	n/a	n/a	7	66	Fixation	MissedWin	True
628.876	0.15	Win2	0.6716	0.002	No	2.772	-0.002	1.0	NoResponse	0	0.194	628.07	7	66	Target	MissedWin	True
629.026	0.55	Win2	0.6716	n/a	No	2.772	n/a	n/a	NoResponse	0	n/a	n/a	7	66	Blank	MissedWin	True
629.07	0.3	Win2	0.6716	0.002	No	2.772	-0.002	1.0	NoResponse	0	0.194	n/a	7	66	ButtonPress	MissedWin	True
629.576	1.45	Win2	0.6716	n/a	No	2.772	n/a	5.0	NoResponse	0	0.007	628.583	7	66	Feedback	MissedWin	True
631.025	2.772	Win2	0.6716	n/a	No	2.772	n/a	n/a	NoResponse	0	0.0	n/a	7	66	ISIslide	MissedWin	True
633.824	0.25	Control	0.6618	0.001	No	2.726	0.024	n/a	NoResponse	0	n/a	n/a	7	67	Cue	Neutral	True
634.074	3.95	Control	0.6618	0.0	No	2.726	0.0	n/a	NoResponse	0	n/a	n/a	7	67	Fixation	Neutral	True
638.023	0.15	Control	0.6618	0.001	No	2.726	-0.001	1.0	NoResponse	0	0.214	637.237	7	67	Target	Neutral	True
638.173	0.55	Control	0.6618	n/a	No	2.726	n/a	n/a	NoResponse	0	n/a	n/a	7	67	Blank	Neutral	True
638.237	0.3	Control	0.6618	0.001	No	2.726	-0.001	1.0	NoResponse	0	0.214	n/a	7	67	ButtonPress	Neutral	True
638.723	1.45	Control	0.6618	n/a	No	2.726	n/a	5.0	NoResponse	0	0.025	637.748	7	67	Feedback	Neutral	True
640.172	2.726	Control	0.6618	n/a	No	2.726	n/a	n/a	NoResponse	0	0.0	n/a	7	67	ISIslide	Neutral	True
642.921	0.25	Win2	0.6522	0.0	No	3.079	0.021	n/a	NoResponse	0	n/a	n/a	7	68	Cue	MissedWin	False
643.171	4.0	Win2	0.6522	0.0	No	3.079	0.0	1.0	NoResponse	0	0.192	642.363	7	68	Fixation	MissedWin	False
643.363	0.3	Win2	0.6522	0.0	No	3.079	0.0	1.0	NoResponse	0	0.192	n/a	7	68	ButtonPress	MissedWin	False
647.17	0.15	Win2	0.6522	0.001	No	3.079	-0.001	1.0	NoResponse	0	0.193	646.363	7	68	Target	MissedWin	False
647.32	0.55	Win2	0.6522	n/a	No	3.079	n/a	n/a	NoResponse	0	n/a	n/a	7	68	Blank	MissedWin	False
647.363	0.3	Win2	0.6522	0.001	No	3.079	-0.001	1.0	NoResponse	0	0.193	n/a	7	68	ButtonPress	MissedWin	False
647.869	1.45	Win2	0.6522	n/a	No	3.079	n/a	5.0	NoResponse	0	0.001	646.87	7	68	Feedback	MissedWin	False
649.319	3.079	Win2	0.6522	n/a	No	3.079	n/a	n/a	NoResponse	0	0.0	n/a	7	68	ISIslide	MissedWin	False
652.418	0.25	Win2	0.6429	0.0	No	3.232	0.018	n/a	NoResponse	0	n/a	n/a	7	69	Cue	MissedWin	True
652.668	3.95	Win2	0.6429	0.0	No	3.232	0.0	n/a	NoResponse	0	n/a	n/a	7	69	Fixation	MissedWin	True
656.616	0.16	Win2	0.6429	0.002	No	3.232	-0.002	1.0	NoResponse	0	0.222	655.838	7	69	Target	MissedWin	True
656.783	0.54	Win2	0.6429	n/a	No	3.232	n/a	n/a	NoResponse	0	n/a	n/a	7	69	Blank	MissedWin	True
656.838	0.3	Win2	0.6429	0.002	No	3.232	-0.002	1.0	NoResponse	0	0.222	n/a	7	69	ButtonPress	MissedWin	True
657.316	1.45	Win2	0.6429	n/a	No	3.232	n/a	5.0	NoResponse	0	0.018	656.334	7	69	Feedback	MissedWin	True
658.766	3.232	Win2	0.6429	n/a	No	3.232	n/a	n/a	NoResponse	0	0.0	n/a	7	69	ISIslide	MissedWin	True
662.014	0.25	Lose2	0.6338	0.001	No	3.036	0.014	n/a	NoResponse	-1	n/a	n/a	6	70	Cue	Loss	True
662.264	4.05	Lose2	0.6338	0.001	No	3.036	0.0	n/a	NoResponse	-1	n/a	n/a	6	70	Fixation	Loss	True
666.313	0.17	Lose2	0.6338	0.001	No	3.036	-0.001	1.0	NoResponse	-1	0.215	665.528	6	70	Target	Loss	True
666.48	0.53	Lose2	0.6338	n/a	No	3.036	n/a	n/a	NoResponse	-1	n/a	n/a	6	70	Blank	Loss	True
666.528	0.3	Lose2	0.6338	0.001	No	3.036	-0.001	1.0	NoResponse	-1	0.215	n/a	6	70	ButtonPress	Loss	True
667.013	1.45	Lose2	0.6338	n/a	No	3.036	n/a	5.0	NoResponse	-1	0.027	666.04	6	70	Feedback	Loss	True
668.462	3.036	Lose2	0.6338	n/a	No	3.036	n/a	n/a	NoResponse	-1	0.0	n/a	6	70	ISIslide	Loss	True
671.528	0.25	Win2	0.625	0.0	No	2.722	0.028	n/a	NoResponse	0	n/a	n/a	6	71	Cue	MissedWin	True
671.778	4.05	Win2	0.625	0.0	No	2.722	0.0	n/a	NoResponse	0	n/a	n/a	6	71	Fixation	MissedWin	True
675.826	0.18	Win2	0.625	0.002	No	2.722	-0.002	1.0	NoResponse	0	0.215	675.041	6	71	Target	MissedWin	True
676.01	0.52	Win2	0.625	n/a	No	2.722	n/a	n/a	NoResponse	0	n/a	n/a	6	71	Blank	MissedWin	True
676.041	0.3	Win2	0.625	0.002	No	2.722	-0.002	1.0	NoResponse	0	0.215	n/a	6	71	ButtonPress	MissedWin	True
676.526	1.45	Win2	0.625	n/a	No	2.722	n/a	5.0	NoResponse	0	0.027	675.553	6	71	Feedback	MissedWin	True
677.976	2.722	Win2	0.625	n/a	No	2.722	n/a	n/a	NoResponse	0	0.0	n/a	6	71	ISIslide	MissedWin	True
680.725	0.25	Win2	0.6164000000000001	0.0	No	2.775	0.025	n/a	NoResponse	0	n/a	n/a	6	72	Cue	MissedWin	True
680.974	4.1	Win2	0.6164000000000001	0.001	No	2.775	-0.001	n/a	NoResponse	0	n/a	n/a	6	72	Fixation	MissedWin	True
685.073	0.19	Win2	0.6164000000000001	0.002	No	2.775	-0.002	1.0	NoResponse	0	0.213	684.286	6	72	Target	MissedWin	True
685.273	0.51	Win2	0.6164000000000001	n/a	No	2.775	n/a	n/a	NoResponse	0	n/a	n/a	6	72	Blank	MissedWin	True
685.286	0.3	Win2	0.6164000000000001	0.002	No	2.775	-0.002	1.0	NoResponse	0	0.213	n/a	6	72	ButtonPress	MissedWin	True
685.773	1.45	Win2	0.6164000000000001	n/a	No	2.775	n/a	5.0	NoResponse	0	0.048	684.821	6	72	Feedback	MissedWin	True
687.222	2.775	Win2	0.6164000000000001	n/a	No	2.775	n/a	n/a	NoResponse	0	0.0	n/a	6	72	ISIslide	MissedWin	True
690.021	0.25	Win2	0.6081	0.0	No	2.679	0.021	n/a	NoResponse	0	n/a	n/a	6	73	Cue	MissedWin	True
690.271	4.0	Win2	0.6081	0.0	No	2.679	0.0	n/a	NoResponse	0	n/a	n/a	6	73	Fixation	MissedWin	True
694.27	0.2	Win2	0.6081	0.001	No	2.679	-0.001	1.0	NoResponse	0	0.214	693.484	6	73	Target	MissedWin	True
694.47	0.5	Win2	0.6081	n/a	No	2.679	n/a	n/a	NoResponse	0	n/a	n/a	6	73	Blank	MissedWin	True
694.484	0.3	Win2	0.6081	0.001	No	2.679	-0.001	1.0	NoResponse	0	0.214	n/a	6	73	ButtonPress	MissedWin	True
694.97	1.45	Win2	0.6081	n/a	No	2.679	n/a	5.0	NoResponse	0	0.022	693.992	6	73	Feedback	MissedWin	True
696.419	2.679	Win2	0.6081	n/a	No	2.679	n/a	n/a	NoResponse	0	0.0	n/a	6	73	ISIslide	MissedWin	True
699.118	0.25	Lose2	0.6133	0.0	Yes	2.632	0.018	n/a	GoodResponse	0	n/a	n/a	6	74	Cue	AvoidedLoss	True
699.368	4.05	Lose2	0.6133	0.0	Yes	2.632	0.0	n/a	GoodResponse	0	n/a	n/a	6	74	Fixation	AvoidedLoss	True
703.417	0.21	Lose2	0.6133	0.001	Yes	2.632	-0.001	1.0	GoodResponse	0	0.202	702.619	6	74	Target	AvoidedLoss	True
703.619	0.3	Lose2	0.6133	0.001	Yes	2.632	-0.001	1.0	GoodResponse	0	0.202	n/a	6	74	ButtonPress	AvoidedLoss	True
703.633	0.49	Lose2	0.6133	n/a	Yes	2.632	n/a	n/a	GoodResponse	0	n/a	n/a	6	74	Blank	AvoidedLoss	True
704.116	1.45	Lose2	0.6133	n/a	Yes	2.632	n/a	5.0	GoodResponse	0	0.047	703.163	6	74	Feedback	AvoidedLoss	True
705.566	2.632	Lose2	0.6133	n/a	Yes	2.632	n/a	n/a	GoodResponse	0	0.0	n/a	6	74	ISIslide	AvoidedLoss	True
708.215	0.25	Lose2	0.6184000000000001	0.0	Yes	2.935	0.015	n/a	GoodResponse	0	n/a	n/a	6	75	Cue	AvoidedLoss	True
708.465	3.95	Lose2	0.6184000000000001	0.0	Yes	2.935	0.0	n/a	GoodResponse	0	n/a	n/a	6	75	Fixation	AvoidedLoss	True
712.413	0.22	Lose2	0.6184000000000001	0.002	Yes	2.935	-0.002	1.0	GoodResponse	0	0.218	711.631	6	75	Target	AvoidedLoss	True
712.631	0.3	Lose2	0.6184000000000001	0.002	Yes	2.935	-0.002	1.0	GoodResponse	0	0.218	n/a	6	75	ButtonPress	AvoidedLoss	True
712.647	0.48	Lose2	0.6184000000000001	n/a	Yes	2.935	n/a	n/a	GoodResponse	0	n/a	n/a	6	75	Blank	AvoidedLoss	True
713.113	1.45	Lose2	0.6184000000000001	n/a	Yes	2.935	n/a	5.0	GoodResponse	0	0.025	712.138	6	75	Feedback	AvoidedLoss	True
714.563	2.935	Lose2	0.6184000000000001	n/a	Yes	2.935	n/a	n/a	GoodResponse	0	0.0	n/a	6	75	ISIslide	AvoidedLoss	True
717.528	0.25	Control	0.6234000000000001	0.0	Yes	3.222	0.028	n/a	GoodResponse	0	n/a	n/a	6	76	Cue	Neutral	True
717.778	4.05	Control	0.6234000000000001	0.0	Yes	3.222	0.0	n/a	GoodResponse	0	n/a	n/a	6	76	Fixation	Neutral	True
721.827	0.23	Control	0.6234000000000001	0.001	Yes	3.222	-0.001	1.0	GoodResponse	0	0.199	721.026	6	76	Target	Neutral	True
722.026	0.3	Control	0.6234000000000001	0.001	Yes	3.222	-0.001	1.0	GoodResponse	0	0.199	n/a	6	76	ButtonPress	Neutral	True
722.06	0.47	Control	0.6234000000000001	n/a	Yes	3.222	n/a	n/a	GoodResponse	0	n/a	n/a	6	76	Blank	Neutral	True
722.526	1.45	Control	0.6234000000000001	n/a	Yes	3.222	n/a	5.0	GoodResponse	0	0.026	721.552	6	76	Feedback	Neutral	True
723.976	3.222	Control	0.6234000000000001	n/a	Yes	3.222	n/a	n/a	GoodResponse	0	0.0	n/a	6	76	ISIslide	Neutral	True
727.225	0.25	Lose2	0.6282	0.0	Yes	2.575	0.025	n/a	GoodResponse	0	n/a	n/a	6	77	Cue	AvoidedLoss	True
727.475	3.95	Lose2	0.6282	0.0	Yes	2.575	0.0	n/a	GoodResponse	0	n/a	n/a	6	77	Fixation	AvoidedLoss	True
731.423	0.24	Lose2	0.6282	0.002	Yes	2.575	-0.002	1.0	GoodResponse	0	0.196	730.619	6	77	Target	AvoidedLoss	True
731.619	0.3	Lose2	0.6282	0.002	Yes	2.575	-0.002	1.0	GoodResponse	0	0.196	n/a	6	77	ButtonPress	AvoidedLoss	True
731.673	0.46	Lose2	0.6282	n/a	Yes	2.575	n/a	n/a	GoodResponse	0	n/a	n/a	6	77	Blank	AvoidedLoss	True
732.123	1.45	Lose2	0.6282	n/a	Yes	2.575	n/a	5.0	GoodResponse	0	0.039	731.162	6	77	Feedback	AvoidedLoss	True
733.573	2.575	Lose2	0.6282	n/a	Yes	2.575	n/a	n/a	GoodResponse	0	0.0	n/a	6	77	ISIslide	AvoidedLoss	True
