onset	duration	cue_type	current_mean_accuracy	duration_error	is_hit	isi_adjusted	onset_delay	response	response_type	reward	rt	rt_time	total_reward	trial_number	trial_phase	trial_type	one_press
11.109	0.25	Control	1.0	0.0	Yes	2.941	0.009	n/a	GoodResponse	0	n/a	n/a	0	0	Cue	Neutral	True
11.36	3.85	Control	1.0	0.0	Yes	2.941	0.001	n/a	GoodResponse	0	n/a	n/a	0	0	Fixation	Neutral	True
15.205	0.4	Control	1.0	0.004	Yes	2.941	-0.004	3.0	GoodResponse	0	0.216	14.421	0	0	Target	Neutral	True
15.421	0.3	Control	1.0	0.004	Yes	2.941	-0.004	3.0	GoodResponse	0	0.216	n/a	0	0	ButtonPress	Neutral	True
15.606	0.3	Control	1.0	n/a	Yes	2.941	n/a	n/a	GoodResponse	0	n/a	n/a	0	0	Blank	Neutral	True
15.907	1.45	Control	1.0	n/a	Yes	2.941	n/a	5.0	GoodResponse	0	0.018	14.925	0	0	Feedback	Neutral	True
17.361	2.941	Control	1.0	n/a	Yes	2.941	n/a	n/a	GoodResponse	0	0.0	n/a	0	0	ISIslide	Neutral	True
20.32	0.25	Lose2	1.0	0.0	Yes	2.78	0.02	n/a	GoodResponse	0	n/a	n/a	0	1	Cue	AvoidedLoss	True
20.571	4.0	Lose2	1.0	0.0	Yes	2.78	0.001	n/a	GoodResponse	0	n/a	n/a	0	1	Fixation	AvoidedLoss	True
24.566	0.39	Lose2	1.0	0.004	Yes	2.78	-0.004	3.0	GoodResponse	0	0.191	23.757	0	1	Target	AvoidedLoss	True
24.757	0.3	Lose2	1.0	0.004	Yes	2.78	-0.004	3.0	GoodResponse	0	0.191	n/a	0	1	ButtonPress	AvoidedLoss	True
24.967	0.31	Lose2	1.0	n/a	Yes	2.78	n/a	n/a	GoodResponse	0	n/a	n/a	0	1	Blank	AvoidedLoss	True
25.268	1.45	Lose2	1.0	n/a	Yes	2.78	n/a	5.0	GoodResponse	0	0.023	24.291	0	1	Feedback	AvoidedLoss	True
26.722	2.78	Lose2	1.0	n/a	Yes	2.78	n/a	n/a	GoodResponse	0	0.0	n/a	0	1	ISIslide	AvoidedLoss	True
29.514	0.25	Control	1.0	0.0	Yes	2.586	0.014	n/a	GoodResponse	0	n/a	n/a	0	2	Cue	Neutral	True
29.765	4.1	Control	1.0	0.0	Yes	2.586	0.001	n/a	GoodResponse	0	n/a	n/a	0	2	Fixation	Neutral	True
33.86	0.38	Control	1.0	0.004	Yes	2.586	-0.004	3.0	GoodResponse	0	0.207	33.067	0	2	Target	Neutral	True
34.067	0.3	Control	1.0	0.004	Yes	2.586	-0.004	3.0	GoodResponse	0	0.207	n/a	0	2	ButtonPress	Neutral	True
34.245	0.32	Control	1.0	n/a	Yes	2.586	n/a	n/a	GoodResponse	0	n/a	n/a	0	2	Blank	Neutral	True
34.562	1.45	Control	1.0	n/a	Yes	2.586	n/a	5.0	GoodResponse	0	0.047	33.609	0	2	Feedback	Neutral	True
36.017	2.586	Control	1.0	n/a	Yes	2.586	n/a	n/a	GoodResponse	0	0.0	n/a	0	2	ISIslide	Neutral	True
38.625	0.25	Win2	1.0	0.0	Yes	2.825	0.025	n/a	GoodResponse	1	n/a	n/a	1	3	Cue	Win	True
38.875	3.95	Win2	1.0	0.0	Yes	2.825	0.0	n/a	GoodResponse	1	n/a	n/a	1	3	Fixation	Win	True
42.82	0.37	Win2	1.0	0.005	Yes	2.825	-0.005	3.0	GoodResponse	1	0.221	42.041	1	3	Target	Win	True
43.041	0.3	Win2	1.0	0.005	Yes	2.825	-0.005	3.0	GoodResponse	1	0.221	n/a	1	3	ButtonPress	Win	True
43.205	0.33	Win2	1.0	n/a	Yes	2.825	n/a	n/a	GoodResponse	1	n/a	n/a	1	3	Blank	Win	True
43.523	1.45	Win2	1.0	n/a	Yes	2.825	n/a	5.0	GoodResponse	1	0.012	42.535	1	3	Feedback	Win	True
44.977	2.825	Win2	1.0	n/a	Yes	2.825	n/a	n/a	GoodResponse	1	0.0	n/a	1	3	ISIslide	Win	True
47.819	0.25	Win2	1.0	0.0	Yes	3.281	0.019	n/a	GoodResponse	1	n/a	n/a	2	4	Cue	Win	True
48.069	4.0	Win2	1.0	0.001	Yes	3.281	0.0	n/a	GoodResponse	1	n/a	n/a	2	4	Fixation	Win	True
52.065	0.36	Win2	1.0	0.004	Yes	3.281	-0.004	3.0	GoodResponse	1	0.251	51.316	2	4	Target	Win	True
52.316	0.3	Win2	1.0	0.004	Yes	3.281	-0.004	3.0	GoodResponse	1	0.251	n/a	2	4	ButtonPress	Win	True
52.432	0.34	Win2	1.0	n/a	Yes	3.281	n/a	n/a	GoodResponse	1	n/a	n/a	2	4	Blank	Win	True
52.767	1.45	Win2	1.0	n/a	Yes	3.281	n/a	5.0	GoodResponse	1	0.036	51.803	2	4	Feedback	Win	True
54.221	3.281	Win2	1.0	n/a	Yes	3.281	n/a	n/a	GoodResponse	1	0.0	n/a	2	4	ISIslide	Win	True
57.514	0.25	Win2	1.0	0.0	Yes	2.786	0.014	n/a	GoodResponse	1	n/a	n/a	3	5	Cue	Win	True
57.765	4.0	Win2	1.0	0.0	Yes	2.786	0.001	n/a	GoodResponse	1	n/a	n/a	3	5	Fixation	Win	True
61.76	0.35	Win2	1.0	0.004	Yes	2.786	-0.004	3.0	GoodResponse	1	0.221	60.981	3	5	Target	Win	True
61.981	0.3	Win2	1.0	0.004	Yes	2.786	-0.004	3.0	GoodResponse	1	0.221	n/a	3	5	ButtonPress	Win	True
62.111	0.35	Win2	1.0	n/a	Yes	2.786	n/a	n/a	GoodResponse	1	n/a	n/a	3	5	Blank	Win	True
62.462	1.45	Win2	1.0	n/a	Yes	2.786	n/a	5.0	GoodResponse	1	0.048	61.51	3	5	Feedback	Win	True
63.917	2.786	Win2	1.0	n/a	Yes	2.786	n/a	n/a	GoodResponse	1	0.0	n/a	3	5	ISIslide	Win	True
66.725	0.25	Lose2	1.0	0.0	Yes	2.725	0.025	n/a	GoodResponse	0	n/a	n/a	3	6	Cue	AvoidedLoss	True
66.976	3.95	Lose2	1.0	0.0	Yes	2.725	0.001	n/a	GoodResponse	0	n/a	n/a	3	6	Fixation	AvoidedLoss	True
70.921	0.34	Lose2	1.0	0.004	Yes	2.725	-0.004	3.0	GoodResponse	0	0.21	70.131	3	6	Target	AvoidedLoss	True
71.131	0.3	Lose2	1.0	0.004	Yes	2.725	-0.004	3.0	GoodResponse	0	0.21	n/a	3	6	ButtonPress	AvoidedLoss	True
71.272	0.36	Lose2	1.0	n/a	Yes	2.725	n/a	n/a	GoodResponse	0	n/a	n/a	3	6	Blank	AvoidedLoss	True
71.623	1.45	Lose2	1.0	n/a	Yes	2.725	n/a	5.0	GoodResponse	0	0.009	70.632	3	6	Feedback	AvoidedLoss	True
73.078	2.725	Lose2	1.0	n/a	Yes	2.725	n/a	n/a	GoodResponse	0	0.0	n/a	3	6	ISIslide	AvoidedLoss	True
75.819	0.25	Lose2	1.0	0.0	Yes	4.031	0.019	n/a	GoodResponse	0	n/a	n/a	3	7	Cue	AvoidedLoss	True
76.07	4.05	Lose2	1.0	0.0	Yes	4.031	0.001	n/a	GoodResponse	0	n/a	n/a	3	7	Fixation	AvoidedLoss	True
80.115	0.33	Lose2	1.0	0.004	Yes	4.031	-0.004	3.0	GoodResponse	0	0.248	79.363	3	7	Target	AvoidedLoss	True
80.363	0.3	Lose2	1.0	0.004	Yes	4.031	-0.004	3.0	GoodResponse	0	0.248	n/a	3	7	ButtonPress	AvoidedLoss	True
80.45	0.37	Lose2	1.0	n/a	Yes	4.031	n/a	n/a	GoodResponse	0	n/a	n/a	3	7	Blank	AvoidedLoss	True
80.817	1.45	Lose2	1.0	n/a	Yes	4.031	n/a	5.0	GoodResponse	0	0.035	79.852	3	7	Feedback	AvoidedLoss	True
82.272	4.031	Lose2	1.0	n/a	Yes	4.031	n/a	n/a	GoodResponse	0	0.0	n/a	3	7	ISIslide	AvoidedLoss	True
86.317	0.25	Lose2	1.0	0.0	Yes	3.033	0.017	n/a	GoodResponse	0	n/a	n/a	3	8	Cue	AvoidedLoss	True
86.568	3.95	Lose2	1.0	0.0	Yes	3.033	0.001	n/a	GoodResponse	0	n/a	n/a	3	8	Fixation	AvoidedLoss	True
90.513	0.32	Lose2	1.0	0.004	Yes	3.033	-0.004	3.0	GoodResponse	0	0.184	89.697	3	8	Target	AvoidedLoss	True
90.697	0.3	Lose2	1.0	0.004	Yes	3.033	-0.004	3.0	GoodResponse	0	0.184	n/a	3	8	ButtonPress	AvoidedLoss	True
90.847	0.38	Lose2	1.0	n/a	Yes	3.033	n/a	n/a	GoodResponse	0	n/a	n/a	3	8	Blank	AvoidedLoss	True
91.215	1.45	Lose2	1.0	n/a	Yes	3.033	n/a	5.0	GoodResponse	0	0.027	90.242	3	8	Feedback	AvoidedLoss	True
92.669	3.033	Lose2	1.0	n/a	Yes	3.033	n/a	n/a	GoodResponse	0	0.0	n/a	3	8	ISIslide	AvoidedLoss	True
95.729	0.25	Lose2	1.0	0.0	Yes	3.121	0.029	n/a	GoodResponse	0	n/a	n/a	3	9	Cue	AvoidedLoss	True
95.979	3.95	Lose2	1.0	0.0	Yes	3.121	0.0	n/a	GoodResponse	0	n/a	n/a	3	9	Fixation	AvoidedLoss	True
99.924	0.31	Lose2	1.0	0.005	Yes	3.121	-0.005	3.0	GoodResponse	0	0.209	99.133	3	9	Target	AvoidedLoss	True
100.133	0.3	Lose2	1.0	0.005	Yes	3.121	-0.005	3.0	GoodResponse	0	0.209	n/a	3	9	ButtonPress	AvoidedLoss	True
100.242	0.39	Lose2	1.0	n/a	Yes	3.121	n/a	n/a	GoodResponse	0	n/a	n/a	3	9	Blank	AvoidedLoss	True
100.627	1.45	Lose2	1.0	n/a	Yes	3.121	n/a	5.0	GoodResponse	0	0.029	99.656	3	9	Feedback	AvoidedLoss	True
102.081	3.121	Lose2	1.0	n/a	Yes	3.121	n/a	n/a	GoodResponse	0	0.0	n/a	3	9	ISIslide	AvoidedLoss	True
105.224	0.25	Control	1.0	0.0	Yes	3.276	0.024	n/a	GoodResponse	0	n/a	n/a	3	10	Cue	Neutral	True
105.474	4.0	Control	1.0	0.0	Yes	3.276	0.0	n/a	GoodResponse	0	n/a	n/a	3	10	Fixation	Neutral	True
109.47	0.3	Control	1.0	0.004	Yes	3.276	-0.004	3.0	GoodResponse	0	0.209	108.679	3	10	Target	Neutral	True
109.679	0.3	Control	1.0	0.004	Yes	3.276	-0.004	3.0	GoodResponse	0	0.209	n/a	3	10	ButtonPress	Neutral	True
109.771	0.4	Control	1.0	n/a	Yes	3.276	n/a	n/a	GoodResponse	0	n/a	n/a	3	10	Blank	Neutral	True
110.172	1.45	Control	1.0	n/a	Yes	3.276	n/a	5.0	GoodResponse	0	0.045	109.217	3	10	Feedback	Neutral	True
111.626	3.276	Control	1.0	n/a	Yes	3.276	n/a	n/a	GoodResponse	0	0.0	n/a	3	10	ISIslide	Neutral	True
114.919	0.25	Lose2	1.0	0.0	Yes	2.731	0.019	n/a	GoodResponse	0	n/a	n/a	3	11	Cue	AvoidedLoss	True
115.17	4.05	Lose2	1.0	0.0	Yes	2.731	0.001	n/a	GoodResponse	0	n/a	n/a	3	11	Fixation	AvoidedLoss	True
119.215	0.29	Lose2	1.0	0.004	Yes	2.731	-0.004	3.0	GoodResponse	0	0.245	118.46	3	11	Target	AvoidedLoss	True
119.46	0.3	Lose2	1.0	0.004	Yes	2.731	-0.004	3.0	GoodResponse	0	0.245	n/a	3	11	ButtonPress	AvoidedLoss	True
119.516	0.41	Lose2	1.0	n/a	Yes	2.731	n/a	n/a	GoodResponse	0	n/a	n/a	3	11	Blank	AvoidedLoss	True
119.918	1.45	Lose2	1.0	n/a	Yes	2.731	n/a	5.0	GoodResponse	0	0.007	118.925	3	11	Feedback	AvoidedLoss	True
121.372	2.731	Lose2	1.0	n/a	Yes	2.731	n/a	n/a	GoodResponse	0	0.0	n/a	3	11	ISIslide	AvoidedLoss	True
124.113	0.25	Control	0.9231	0.001	No	2.987	0.013	n/a	NoResponse	0	n/a	n/a	3	12	Cue	Neutral	True
124.364	3.9	Control	0.9231	0.0	No	2.987	0.001	n/a	NoResponse	0	n/a	n/a	3	12	Fixation	Neutral	True
128.259	0.28	Control	0.9231	0.004	No	2.987	-0.004	3.0	NoResponse	0	0.291	127.55	3	12	Target	Neutral	True
128.543	0.42	Control	0.9231	n/a	No	2.987	n/a	n/a	NoResponse	0	n/a	n/a	3	12	Blank	Neutral	True
128.55	0.3	Control	0.9231	0.004	No	2.987	-0.004	3.0	NoResponse	0	0.291	n/a	3	12	ButtonPress	Neutral	True
128.961	1.45	Control	0.9231	n/a	No	2.987	n/a	5.0	NoResponse	0	0.037	127.998	3	12	Feedback	Neutral	True
130.416	2.987	Control	0.9231	n/a	No	2.987	n/a	n/a	NoResponse	0	0.0	n/a	3	12	ISIslide	Neutral	True
133.425	0.25	Control	0.9286	0.0	Yes	2.775	0.025	n/a	GoodResponse	0	n/a	n/a	3	13	Cue	Neutral	True
133.675	4.0	Control	0.9286	0.0	Yes	2.775	0.0	n/a	GoodResponse	0	n/a	n/a	3	13	Fixation	Neutral	True
137.671	0.27	Control	0.9286	0.004	Yes	2.775	-0.004	3.0	GoodResponse	0	0.185	136.856	3	13	Target	Neutral	True
137.856	0.3	Control	0.9286	0.004	Yes	2.775	-0.004	3.0	GoodResponse	0	0.185	n/a	3	13	ButtonPress	Neutral	True
137.955	0.43	Control	0.9286	n/a	Yes	2.775	n/a	n/a	GoodResponse	0	n/a	n/a	3	13	Blank	Neutral	True
138.373	1.45	Control	0.9286	n/a	Yes	2.775	n/a	5.0	GoodResponse	0	0.039	137.412	3	13	Feedback	Neutral	True
139.827	2.775	Control	0.9286	n/a	Yes	2.775	n/a	n/a	GoodResponse	0	0.0	n/a	3	13	ISIslide	Neutral	True
142.619	0.25	Win2	0.9333	0.0	Yes	2.681	0.019	n/a	GoodResponse	1	n/a	n/a	4	14	Cue	Win	True
142.87	4.1	Win2	0.9333	0.0	Yes	2.681	0.001	n/a	GoodResponse	1	n/a	n/a	4	14	Fixation	Win	True
146.965	0.26	Win2	0.9333	0.004	Yes	2.681	-0.004	3.0	GoodResponse	1	0.199	146.164	4	14	Target	Win	True
147.164	0.3	Win2	0.9333	0.004	Yes	2.681	-0.004	3.0	GoodResponse	1	0.199	n/a	4	14	ButtonPress	Win	True
147.233	0.44	Win2	0.9333	n/a	Yes	2.681	n/a	n/a	GoodResponse	1	n/a	n/a	4	14	Blank	Win	True
147.667	1.45	Win2	0.9333	n/a	Yes	2.681	n/a	5.0	GoodResponse	1	0.013	146.68	4	14	Feedback	Win	True
149.122	2.681	Win2	0.9333	n/a	Yes	2.681	n/a	n/a	GoodResponse	1	0.0	n/a	4	14	ISIslide	Win	True
151.83	0.25	Control	0.875	0.0	No	2.97	0.03	n/a	NoResponse	0	n/a	n/a	4	15	Cue	Neutral	True
152.08	4.0	Control	0.875	0.0	No	2.97	0.0	n/a	NoResponse	0	n/a	n/a	4	15	Fixation	Neutral	True
156.076	0.25	Control	0.875	0.004	No	2.97	-0.004	3.0	NoResponse	0	0.26	155.336	4	15	Target	Neutral	True
156.326	0.45	Control	0.875	n/a	No	2.97	n/a	n/a	NoResponse	0	n/a	n/a	4	15	Blank	Neutral	True
156.336	0.3	Control	0.875	0.004	No	2.97	-0.004	3.0	NoResponse	0	0.26	n/a	4	15	ButtonPress	Neutral	True
156.778	1.45	Control	0.875	n/a	No	2.97	n/a	5.0	NoResponse	0	0.024	155.802	4	15	Feedback	Neutral	True
158.232	2.97	Control	0.875	n/a	No	2.97	n/a	n/a	NoResponse	0	0.0	n/a	4	15	ISIslide	Neutral	True
161.224	0.25	Win2	0.8824	0.001	Yes	2.876	0.024	n/a	GoodResponse	1	n/a	n/a	5	16	Cue	Win	True
161.475	4.0	Win2	0.8824	0.0	Yes	2.876	0.001	n/a	GoodResponse	1	n/a	n/a	5	16	Fixation	Win	True
165.47	0.24	Win2	0.8824	0.004	Yes	2.876	-0.004	3.0	GoodResponse	1	0.217	164.687	5	16	Target	Win	True
165.687	0.3	Win2	0.8824	0.004	Yes	2.876	-0.004	3.0	GoodResponse	1	0.217	n/a	5	16	ButtonPress	Win	True
165.721	0.46	Win2	0.8824	n/a	Yes	2.876	n/a	n/a	GoodResponse	1	n/a	n/a	5	16	Blank	Win	True
166.173	1.45	Win2	0.8824	n/a	Yes	2.876	n/a	5.0	GoodResponse	1	0.044	165.217	5	16	Feedback	Win	True
167.627	2.876	Win2	0.8824	n/a	Yes	2.876	n/a	n/a	GoodResponse	1	0.0	n/a	5	16	ISIslide	Win	True
170.519	0.25	Lose2	0.8889	0.0	Yes	2.731	0.019	n/a	GoodResponse	0	n/a	n/a	5	17	Cue	AvoidedLoss	True
170.77	3.95	Lose2	0.8889	0.0	Yes	2.731	0.001	n/a	GoodResponse	0	n/a	n/a	5	17	Fixation	AvoidedLoss	True
174.715	0.23	Lose2	0.8889	0.004	Yes	2.731	-0.004	3.0	GoodResponse	0	0.216	173.931	5	17	Target	AvoidedLoss	True
174.931	0.3	Lose2	0.8889	0.004	Yes	2.731	-0.004	3.0	GoodResponse	0	0.216	n/a	5	17	ButtonPress	AvoidedLoss	True
174.949	0.47	Lose2	0.8889	n/a	Yes	2.731	n/a	n/a	GoodResponse	0	n/a	n/a	5	17	Blank	AvoidedLoss	True
175.417	1.45	Lose2	0.8889	n/a	Yes	2.731	n/a	5.0	GoodResponse	0	0.019	174.436	5	17	Feedback	AvoidedLoss	True
176.871	2.731	Lose2	0.8889	n/a	Yes	2.731	n/a	n/a	GoodResponse	0	0.0	n/a	5	17	ISIslide	AvoidedLoss	True
179.629	0.25	Lose2	0.8421	0.001	No	2.721	0.029	n/a	LatePress	-1	n/a	n/a	4	18	Cue	Loss	True
179.88	4.05	Lose2	0.8421	0.0	No	2.721	0.001	n/a	LatePress	-1	n/a	n/a	4	18	Fixation	Loss	True
183.926	0.22	Lose2	0.8421	0.003	No	2.721	-0.003	3.0	LatePress	-1	0.226	183.152	4	18	Target	Loss	True
184.152	0.3	Lose2	0.8421	0.003	No	2.721	-0.003	3.0	LatePress	-1	0.226	n/a	4	18	ButtonPress	Loss	True
184.16	0.48	Lose2	0.8421	n/a	No	2.721	n/a	n/a	LatePress	-1	n/a	n/a	4	18	Blank	Loss	True
184.628	1.45	Lose2	0.8421	n/a	No	2.721	n/a	5.0	LatePress	-1	0.027	183.655	4	18	Feedback	Loss	True
186.082	2.721	Lose2	0.8421	n/a	No	2.721	n/a	n/a	LatePress	-1	0.0	n/a	4	18	ISIslide	Loss	True
188.824	0.25	Control	0.85	0.0	Yes	2.926	0.024	n/a	GoodResponse	0	n/a	n/a	4	19	Cue	Neutral	True
189.074	3.95	Control	0.85	0.0	Yes	2.926	0.0	n/a	GoodResponse	0	n/a	n/a	4	19	Fixation	Neutral	True
193.036	0.21	Control	0.85	0.0	Yes	2.926	0.012	3.0	GoodResponse	0	0.198	192.234	4	19	Target	Neutral	True
193.234	0.3	Control	0.85	0.0	Yes	2.926	0.012	3.0	GoodResponse	0	0.198	n/a	4	19	ButtonPress	Neutral	True
193.237	0.49	Control	0.85	n/a	Yes	2.926	n/a	n/a	GoodResponse	0	n/a	n/a	4	19	Blank	Neutral	True
193.722	1.45	Control	0.85	n/a	Yes	2.926	n/a	5.0	GoodResponse	0	0.006	192.728	4	19	Feedback	Neutral	True
195.176	2.926	Control	0.85	n/a	Yes	2.926	n/a	n/a	GoodResponse	0	0.0	n/a	4	19	ISIslide	Neutral	True
198.118	0.25	Control	0.8571	0.0	Yes	2.632	0.018	n/a	GoodResponse	0	n/a	n/a	4	20	Cue	Neutral	True
198.369	4.05	Control	0.8571	0.0	Yes	2.632	0.001	n/a	GoodResponse	0	n/a	n/a	4	20	Fixation	Neutral	True
202.414	0.2	Control	0.8571	0.004	Yes	2.632	-0.004	3.0	GoodResponse	0	0.19	201.604	4	20	Target	Neutral	True
202.604	0.3	Control	0.8571	0.004	Yes	2.632	-0.004	3.0	GoodResponse	0	0.19	n/a	4	20	ButtonPress	Neutral	True
202.615	0.5	Control	0.8571	n/a	Yes	2.632	n/a	n/a	GoodResponse	0	n/a	n/a	4	20	Blank	Neutral	True
203.116	1.45	Control	0.8571	n/a	Yes	2.632	n/a	5.0	GoodResponse	0	0.027	202.143	4	20	Feedback	Neutral	True
204.571	2.632	Control	0.8571	n/a	Yes	2.632	n/a	n/a	GoodResponse	0	0.0	n/a	4	20	ISIslide	Neutral	True
207.229	0.25	Control	0.8181999999999999	0.0	No	2.771	0.029	n/a	NoResponse	0	n/a	n/a	4	21	Cue	Neutral	True
207.479	4.1	Control	0.8181999999999999	0.0	No	2.771	0.0	n/a	NoResponse	0	n/a	n/a	4	21	Fixation	Neutral	True
211.575	0.19	Control	0.8181999999999999	0.004	No	2.771	-0.004	3.0	NoResponse	0	0.225	210.8	4	21	Target	Neutral	True
211.776	0.51	Control	0.8181999999999999	n/a	No	2.771	n/a	n/a	NoResponse	0	n/a	n/a	4	21	Blank	Neutral	True
211.8	0.3	Control	0.8181999999999999	0.004	No	2.771	-0.004	3.0	NoResponse	0	0.225	n/a	4	21	ButtonPress	Neutral	True
212.277	1.45	Control	0.8181999999999999	n/a	No	2.771	n/a	5.0	NoResponse	0	0.037	211.314	4	21	Feedback	Neutral	True
213.731	2.771	Control	0.8181999999999999	n/a	No	2.771	n/a	n/a	NoResponse	0	0.0	n/a	4	21	ISIslide	Neutral	True
216.523	0.25	Control	0.7826000000000001	0.0	No	2.777	0.023	n/a	NoResponse	0	n/a	n/a	4	22	Cue	Neutral	True
216.774	4.0	Control	0.7826000000000001	0.0	No	2.777	0.001	n/a	NoResponse	0	n/a	n/a	4	22	Fixation	Neutral	True
220.769	0.18	Control	0.7826000000000001	0.004	No	2.777	-0.004	3.0	NoResponse	0	0.191	219.96	4	22	Target	Neutral	True
220.953	0.52	Control	0.7826000000000001	n/a	No	2.777	n/a	n/a	NoResponse	0	n/a	n/a	4	22	Blank	Neutral	True
220.96	0.3	Control	0.7826000000000001	0.004	No	2.777	-0.004	3.0	NoResponse	0	0.191	n/a	4	22	ButtonPress	Neutral	True
221.471	1.45	Control	0.7826000000000001	n/a	No	2.777	n/a	5.0	NoResponse	0	0.014	220.485	4	22	Feedback	Neutral	True
222.926	2.777	Control	0.7826000000000001	n/a	No	2.777	n/a	n/a	NoResponse	0	0.0	n/a	4	22	ISIslide	Neutral	True
225.717	0.25	Control	0.75	0.0	No	2.783	0.017	n/a	NoResponse	0	n/a	n/a	4	23	Cue	Neutral	False
225.968	3.9	Control	0.75	0.0	No	2.783	0.001	3.0	NoResponse	0	0.08	225.048	4	23	Fixation	Neutral	False
226.048	0.3	Control	0.75	0.0	No	2.783	0.001	3.0	NoResponse	0	0.08	n/a	4	23	ButtonPress	Neutral	False
229.863	0.17	Control	0.75	0.004	No	2.783	-0.004	3.0	NoResponse	0	0.206	229.069	4	23	Target	Neutral	False
230.047	0.53	Control	0.75	n/a	No	2.783	n/a	n/a	NoResponse	0	n/a	n/a	4	23	Blank	Neutral	False
230.069	0.3	Control	0.75	0.004	No	2.783	-0.004	3.0	NoResponse	0	0.206	n/a	4	23	ButtonPress	Neutral	False
230.565	1.45	Control	0.75	n/a	No	2.783	n/a	5.0	NoResponse	0	0.041	229.606	4	23	Feedback	Neutral	False
232.019	2.783	Control	0.75	n/a	No	2.783	n/a	n/a	NoResponse	0	0.0	n/a	4	23	ISIslide	Neutral	False
234.828	0.25	Win2	0.72	0.0	No	3.122	0.028	n/a	NoResponse	0	n/a	n/a	4	24	Cue	MissedWin	True
235.079	3.95	Win2	0.72	0.0	No	3.122	0.001	n/a	NoResponse	0	n/a	n/a	4	24	Fixation	MissedWin	True
239.024	0.16	Win2	0.72	0.004	No	3.122	-0.004	3.0	NoResponse	0	0.2	238.224	4	24	Target	MissedWin	True
239.191	0.54	Win2	0.72	n/a	No	3.122	n/a	n/a	NoResponse	0	n/a	n/a	4	24	Blank	MissedWin	True
239.224	0.3	Win2	0.72	0.004	No	3.122	-0.004	3.0	NoResponse	0	0.2	n/a	4	24	ButtonPress	MissedWin	True
239.726	1.45	Win2	0.72	n/a	No	3.122	n/a	5.0	NoResponse	0	0.002	238.728	4	24	Feedback	MissedWin	True
241.18	3.122	Win2	0.72	n/a	No	3.122	n/a	n/a	NoResponse	0	0.0	n/a	4	24	ISIslide	MissedWin	True
244.323	0.25	Win2	0.6923	0.0	No	3.077	0.023	n/a	NoResponse	0	n/a	n/a	4	25	Cue	MissedWin	False
244.574	4.0	Win2	0.6923	0.0	No	3.077	0.001	3.0	NoResponse	0	3.212	246.786	4	25	Fixation	MissedWin	False
247.786	0.3	Win2	0.6923	0.0	No	3.077	0.001	3.0	NoResponse	0	3.212	n/a	4	25	ButtonPress	MissedWin	False
248.569	0.15	Win2	0.6923	0.004	No	3.077	-0.004	3.0	NoResponse	0	0.179	247.748	4	25	Target	MissedWin	False
248.719	0.55	Win2	0.6923	n/a	No	3.077	n/a	n/a	NoResponse	0	n/a	n/a	4	25	Blank	MissedWin	False
248.748	0.3	Win2	0.6923	0.004	No	3.077	-0.004	3.0	NoResponse	0	0.179	n/a	4	25	ButtonPress	MissedWin	False
249.271	1.45	Win2	0.6923	n/a	No	3.077	n/a	5.0	NoResponse	0	0.018	248.289	4	25	Feedback	MissedWin	False
250.725	3.077	Win2	0.6923	n/a	No	3.077	n/a	n/a	NoResponse	0	0.0	n/a	4	25	ISIslide	MissedWin	False
253.818	0.25	Win2	0.6667000000000001	0.0	No	2.932	0.018	n/a	NoResponse	0	n/a	n/a	4	26	Cue	MissedWin	True
254.069	3.95	Win2	0.6667000000000001	0.0	No	2.932	0.001	n/a	NoResponse	0	n/a	n/a	4	26	Fixation	MissedWin	True
258.014	0.15	Win2	0.6667000000000001	0.004	No	2.932	-0.004	3.0	NoResponse	0	0.185	257.199	4	26	Target	MissedWin	True
258.164	0.55	Win2	0.6667000000000001	n/a	No	2.932	n/a	n/a	NoResponse	0	n/a	n/a	4	26	Blank	MissedWin	True
258.199	0.3	Win2	0.6667000000000001	0.004	No	2.932	-0.004	3.0	NoResponse	0	0.185	n/a	4	26	ButtonPress	MissedWin	True
258.716	1.45	Win2	0.6667000000000001	n/a	No	2.932	n/a	5.0	NoResponse	0	0.036	257.752	4	26	Feedback	MissedWin	True
260.17	2.932	Win2	0.6667000000000001	n/a	No	2.932	n/a	n/a	NoResponse	0	0.0	n/a	4	26	ISIslide	MissedWin	True
263.129	0.25	Lose2	0.6429	0.0	No	2.821	0.029	n/a	NoResponse	-1	n/a	n/a	3	27	Cue	Loss	True
263.38	4.05	Lose2	0.6429	0.0	No	2.821	0.001	n/a	NoResponse	-1	n/a	n/a	3	27	Fixation	Loss	True
267.425	0.15	Lose2	0.6429	0.004	No	2.821	-0.004	3.0	NoResponse	-1	0.202	266.627	3	27	Target	Loss	True
267.576	0.55	Lose2	0.6429	n/a	No	2.821	n/a	n/a	NoResponse	-1	n/a	n/a	3	27	Blank	Loss	True
267.627	0.3	Lose2	0.6429	0.004	No	2.821	-0.004	3.0	NoResponse	-1	0.202	n/a	3	27	ButtonPress	Loss	True
268.127	1.45	Lose2	0.6429	n/a	No	2.821	n/a	5.0	NoResponse	-1	0.039	267.166	3	27	Feedback	Loss	True
269.582	2.821	Lose2	0.6429	n/a	No	2.821	n/a	n/a	NoResponse	-1	0.0	n/a	3	27	ISIslide	Loss	True
272.424	0.25	Control	0.6207	0.0	No	2.826	0.024	n/a	NoResponse	0	n/a	n/a	3	28	Cue	Neutral	True
272.674	4.05	Control	0.6207	0.0	No	2.826	0.0	n/a	NoResponse	0	n/a	n/a	3	28	Fixation	Neutral	True
276.72	0.16	Control	0.6207	0.004	No	2.826	-0.004	3.0	NoResponse	0	0.202	275.922	3	28	Target	Neutral	True
276.887	0.54	Control	0.6207	n/a	No	2.826	n/a	n/a	NoResponse	0	n/a	n/a	3	28	Blank	Neutral	True
276.922	0.3	Control	0.6207	0.004	No	2.826	-0.004	3.0	NoResponse	0	0.202	n/a	3	28	ButtonPress	Neutral	True
277.422	1.45	Control	0.6207	n/a	No	2.826	n/a	5.0	NoResponse	0	0.013	276.435	3	28	Feedback	Neutral	True
278.876	2.826	Control	0.6207	n/a	No	2.826	n/a	n/a	NoResponse	0	0.0	n/a	3	28	ISIslide	Neutral	True
281.718	0.25	Lose2	0.6	0.0	No	2.832	0.018	n/a	NoResponse	-1	n/a	n/a	2	29	Cue	Loss	True
281.969	3.95	Lose2	0.6	0.0	No	2.832	0.001	n/a	NoResponse	-1	n/a	n/a	2	29	Fixation	Loss	True
285.914	0.17	Lose2	0.6	0.004	No	2.832	-0.004	3.0	NoResponse	-1	0.193	285.107	2	29	Target	Loss	True
286.098	0.53	Lose2	0.6	n/a	No	2.832	n/a	n/a	NoResponse	-1	n/a	n/a	2	29	Blank	Loss	True
286.107	0.3	Lose2	0.6	0.004	No	2.832	-0.004	3.0	NoResponse	-1	0.193	n/a	2	29	ButtonPress	Loss	True
286.616	1.45	Lose2	0.6	n/a	No	2.832	n/a	5.0	NoResponse	-1	0.038	285.654	2	29	Feedback	Loss	True
288.07	2.832	Lose2	0.6	n/a	No	2.832	n/a	n/a	NoResponse	-1	0.0	n/a	2	29	ISIslide	Loss	True
290.929	0.25	Win2	0.5806	0.0	No	2.771	0.029	n/a	NoResponse	0	n/a	n/a	2	30	Cue	MissedWin	True
291.18	3.9	Win2	0.5806	0.0	No	2.771	0.001	n/a	NoResponse	0	n/a	n/a	2	30	Fixation	MissedWin	True
295.075	0.18	Win2	0.5806	0.004	No	2.771	-0.004	3.0	NoResponse	0	0.197	294.272	2	30	Target	MissedWin	True
295.259	0.52	Win2	0.5806	n/a	No	2.771	n/a	n/a	NoResponse	0	n/a	n/a	2	30	Blank	MissedWin	True
295.272	0.3	Win2	0.5806	0.004	No	2.771	-0.004	3.0	NoResponse	0	0.197	n/a	2	30	ButtonPress	MissedWin	True
295.777	1.45	Win2	0.5806	n/a	No	2.771	n/a	5.0	NoResponse	0	0.048	294.825	2	30	Feedback	MissedWin	True
297.231	2.771	Win2	0.5806	n/a	No	2.771	n/a	n/a	NoResponse	0	0.0	n/a	2	30	ISIslide	MissedWin	True
300.023	0.25	Lose2	0.5625	0.0	No	2.827	0.023	3.0	LatePress	-1	0.247	299.27	1	31	Cue	Loss	False
300.27	0.3	Lose2	0.5625	0.0	No	2.827	0.023	3.0	LatePress	-1	0.247	n/a	1	31	ButtonPress	Loss	False
300.273	4.05	Lose2	0.5625	0.001	No	2.827	0.0	n/a	LatePress	-1	n/a	n/a	1	31	Fixation	Loss	False
304.319	0.19	Lose2	0.5625	0.004	No	2.827	-0.004	3.0	LatePress	-1	0.198	303.517	1	31	Target	Loss	False
304.517	0.3	Lose2	0.5625	0.004	No	2.827	-0.004	3.0	LatePress	-1	0.198	n/a	1	31	ButtonPress	Loss	False
304.52	0.51	Lose2	0.5625	n/a	No	2.827	n/a	n/a	LatePress	-1	n/a	n/a	1	31	Blank	Loss	False
305.021	1.45	Lose2	0.5625	n/a	No	2.827	n/a	5.0	LatePress	-1	0.024	304.045	1	31	Feedback	Loss	False
306.475	2.827	Lose2	0.5625	n/a	No	2.827	n/a	n/a	LatePress	-1	0.0	n/a	1	31	ISIslide	Loss	False
309.317	0.25	Lose2	0.5758	0.0	Yes	2.633	0.017	n/a	GoodResponse	0	n/a	n/a	1	32	Cue	AvoidedLoss	True
309.568	4.15	Lose2	0.5758	0.0	Yes	2.633	0.001	n/a	GoodResponse	0	n/a	n/a	1	32	Fixation	AvoidedLoss	True
313.714	0.2	Lose2	0.5758	0.003	Yes	2.633	-0.003	3.0	GoodResponse	0	0.176	312.89	1	32	Target	AvoidedLoss	True
313.89	0.3	Lose2	0.5758	0.003	Yes	2.633	-0.003	3.0	GoodResponse	0	0.176	n/a	1	32	ButtonPress	AvoidedLoss	True
313.914	0.5	Lose2	0.5758	n/a	Yes	2.633	n/a	n/a	GoodResponse	0	n/a	n/a	1	32	Blank	AvoidedLoss	True
314.416	1.45	Lose2	0.5758	n/a	Yes	2.633	n/a	5.0	GoodResponse	0	0.042	313.458	1	32	Feedback	AvoidedLoss	True
315.87	2.633	Lose2	0.5758	n/a	Yes	2.633	n/a	3.0	GoodResponse	0	0.218	n/a	1	32	ISIslide	AvoidedLoss	True
318.511	0.25	Win2	0.5588000000000001	0.0	No	2.689	0.011	n/a	PrematurePress	0	n/a	n/a	1	33	Cue	MissedWin	True
318.762	4.0	Win2	0.5588000000000001	0.0	No	2.689	0.001	n/a	PrematurePress	0	n/a	n/a	1	33	Fixation	MissedWin	True
322.757	0.21	Win2	0.5588000000000001	0.004	No	2.689	-0.004	3.0	PrematurePress	0	0.007	321.764	1	33	Target	MissedWin	True
322.764	0.3	Win2	0.5588000000000001	0.004	No	2.689	-0.004	3.0	PrematurePress	0	0.007	n/a	1	33	ButtonPress	MissedWin	True
322.975	0.49	Win2	0.5588000000000001	n/a	No	2.689	n/a	n/a	PrematurePress	0	n/a	n/a	1	33	Blank	MissedWin	True
323.459	1.45	Win2	0.5588000000000001	n/a	No	2.689	n/a	5.0	PrematurePress	0	0.024	322.483	1	33	Feedback	MissedWin	True
324.914	2.689	Win2	0.5588000000000001	n/a	No	2.689	n/a	n/a	PrematurePress	0	0.0	n/a	1	33	ISIslide	MissedWin	True
327.622	0.25	Lose2	0.5714	0.0	Yes	2.628	0.022	n/a	GoodResponse	0	n/a	n/a	1	34	Cue	AvoidedLoss	True
327.873	4.05	Lose2	0.5714	0.0	Yes	2.628	0.001	n/a	GoodResponse	0	n/a	n/a	1	34	Fixation	AvoidedLoss	True
331.918	0.22	Lose2	0.5714	0.004	Yes	2.628	-0.004	3.0	GoodResponse	0	0.162	331.08	1	34	Target	AvoidedLoss	True
332.08	0.3	Lose2	0.5714	0.004	Yes	2.628	-0.004	3.0	GoodResponse	0	0.162	n/a	1	34	ButtonPress	AvoidedLoss	True
332.152	0.48	Lose2	0.5714	n/a	Yes	2.628	n/a	n/a	GoodResponse	0	n/a	n/a	1	34	Blank	AvoidedLoss	True
332.62	1.45	Lose2	0.5714	n/a	Yes	2.628	n/a	5.0	GoodResponse	0	0.034	331.654	1	34	Feedback	AvoidedLoss	True
334.075	2.628	Lose2	0.5714	n/a	Yes	2.628	n/a	n/a	GoodResponse	0	0.0	n/a	1	34	ISIslide	AvoidedLoss	True
336.716	0.25	Lose2	0.5832999999999999	0.0	Yes	2.684	0.016	n/a	GoodResponse	0	n/a	n/a	1	35	Cue	AvoidedLoss	True
336.967	4.0	Lose2	0.5832999999999999	0.0	Yes	2.684	0.001	n/a	GoodResponse	0	n/a	n/a	1	35	Fixation	AvoidedLoss	True
340.962	0.23	Lose2	0.5832999999999999	0.004	Yes	2.684	-0.004	3.0	GoodResponse	0	0.184	340.146	1	35	Target	AvoidedLoss	True
341.146	0.3	Lose2	0.5832999999999999	0.004	Yes	2.684	-0.004	3.0	GoodResponse	0	0.184	n/a	1	35	ButtonPress	AvoidedLoss	True
341.196	0.47	Lose2	0.5832999999999999	n/a	Yes	2.684	n/a	n/a	GoodResponse	0	n/a	n/a	1	35	Blank	AvoidedLoss	True
341.664	1.45	Lose2	0.5832999999999999	n/a	Yes	2.684	n/a	5.0	GoodResponse	0	0.014	340.678	1	35	Feedback	AvoidedLoss	True
343.118	2.684	Lose2	0.5832999999999999	n/a	Yes	2.684	n/a	n/a	GoodResponse	0	0.0	n/a	1	35	ISIslide	AvoidedLoss	True
345.826	0.25	Control	0.5676	0.0	No	2.674	0.026	n/a	NoResponse	0	n/a	n/a	1	36	Cue	Neutral	True
346.077	4.0	Control	0.5676	0.0	No	2.674	0.001	n/a	NoResponse	0	n/a	n/a	1	36	Fixation	Neutral	True
350.072	0.24	Control	0.5676	0.004	No	2.674	-0.004	3.0	NoResponse	0	0.273	349.345	1	36	Target	Neutral	True
350.323	0.46	Control	0.5676	n/a	No	2.674	n/a	n/a	NoResponse	0	n/a	n/a	1	36	Blank	Neutral	True
350.345	0.3	Control	0.5676	0.004	No	2.674	-0.004	3.0	NoResponse	0	0.273	n/a	1	36	ButtonPress	Neutral	True
350.774	1.45	Control	0.5676	n/a	No	2.674	n/a	5.0	NoResponse	0	0.025	349.799	1	36	Feedback	Neutral	True
352.229	2.674	Control	0.5676	n/a	No	2.674	n/a	n/a	NoResponse	0	0.0	n/a	1	36	ISIslide	Neutral	True
354.92	0.25	Win2	0.5789	0.0	Yes	2.88	0.02	n/a	GoodResponse	1	n/a	n/a	2	37	Cue	Win	True
355.171	4.0	Win2	0.5789	0.0	Yes	2.88	0.001	n/a	GoodResponse	1	n/a	n/a	2	37	Fixation	Win	True
359.166	0.25	Win2	0.5789	0.004	Yes	2.88	-0.004	3.0	GoodResponse	1	0.177	358.343	2	37	Target	Win	True
359.343	0.3	Win2	0.5789	0.004	Yes	2.88	-0.004	3.0	GoodResponse	1	0.177	n/a	2	37	ButtonPress	Win	True
359.417	0.45	Win2	0.5789	n/a	Yes	2.88	n/a	n/a	GoodResponse	1	n/a	n/a	2	37	Blank	Win	True
359.868	1.45	Win2	0.5789	n/a	Yes	2.88	n/a	5.0	GoodResponse	1	0.006	358.874	2	37	Feedback	Win	True
361.323	2.88	Win2	0.5789	n/a	Yes	2.88	n/a	n/a	GoodResponse	1	0.0	n/a	2	37	ISIslide	Win	True
364.215	0.25	Lose2	0.5897	0.0	Yes	2.835	0.015	n/a	GoodResponse	0	n/a	n/a	2	38	Cue	AvoidedLoss	True
364.465	3.95	Lose2	0.5897	0.001	Yes	2.835	0.0	n/a	GoodResponse	0	n/a	n/a	2	38	Fixation	AvoidedLoss	True
368.411	0.26	Lose2	0.5897	0.004	Yes	2.835	-0.004	3.0	GoodResponse	0	0.175	367.586	2	38	Target	AvoidedLoss	True
368.586	0.3	Lose2	0.5897	0.004	Yes	2.835	-0.004	3.0	GoodResponse	0	0.175	n/a	2	38	ButtonPress	AvoidedLoss	True
368.678	0.44	Lose2	0.5897	n/a	Yes	2.835	n/a	n/a	GoodResponse	0	n/a	n/a	2	38	Blank	AvoidedLoss	True
369.113	1.45	Lose2	0.5897	n/a	Yes	2.835	n/a	5.0	GoodResponse	0	0.028	368.141	2	38	Feedback	AvoidedLoss	True
370.567	2.835	Lose2	0.5897	n/a	Yes	2.835	n/a	n/a	GoodResponse	0	0.0	n/a	2	38	ISIslide	AvoidedLoss	True
373.426	0.25	Win2	0.575	0.0	No	2.974	0.026	n/a	NoResponse	0	n/a	n/a	2	39	Cue	MissedWin	True
373.676	4.1	Win2	0.575	0.0	No	2.974	0.0	n/a	NoResponse	0	n/a	n/a	2	39	Fixation	MissedWin	True
377.772	0.27	Win2	0.575	0.004	No	2.974	-0.004	3.0	NoResponse	0	0.366	377.138	2	39	Target	MissedWin	True
378.056	0.43	Win2	0.575	n/a	No	2.974	n/a	n/a	NoResponse	0	n/a	n/a	2	39	Blank	MissedWin	True
378.138	0.3	Win2	0.575	0.004	No	2.974	-0.004	3.0	NoResponse	0	0.366	n/a	2	39	ButtonPress	MissedWin	True
378.474	1.45	Win2	0.575	n/a	No	2.974	n/a	5.0	NoResponse	0	0.033	377.507	2	39	Feedback	MissedWin	True
379.928	2.974	Win2	0.575	n/a	No	2.974	n/a	n/a	NoResponse	0	0.0	n/a	2	39	ISIslide	MissedWin	True
382.921	0.25	Win2	0.5854	0.0	Yes	2.729	0.021	n/a	GoodResponse	1	n/a	n/a	3	40	Cue	Win	True
383.171	3.95	Win2	0.5854	0.0	Yes	2.729	0.0	n/a	GoodResponse	1	n/a	n/a	3	40	Fixation	Win	True
387.116	0.28	Win2	0.5854	0.005	Yes	2.729	-0.005	3.0	GoodResponse	1	0.171	386.287	3	40	Target	Win	True
387.287	0.3	Win2	0.5854	0.005	Yes	2.729	-0.005	3.0	GoodResponse	1	0.171	n/a	3	40	ButtonPress	Win	True
387.401	0.42	Win2	0.5854	n/a	Yes	2.729	n/a	n/a	GoodResponse	1	n/a	n/a	3	40	Blank	Win	True
387.819	1.45	Win2	0.5854	n/a	Yes	2.729	n/a	5.0	GoodResponse	1	0.006	386.825	3	40	Feedback	Win	True
389.273	2.729	Win2	0.5854	n/a	Yes	2.729	n/a	n/a	GoodResponse	1	0.0	n/a	3	40	ISIslide	Win	True
392.014	0.25	Win2	0.5952000000000001	0.001	Yes	2.786	0.014	n/a	GoodResponse	1	n/a	n/a	4	41	Cue	Win	True
392.265	3.9	Win2	0.5952000000000001	0.0	Yes	2.786	0.001	n/a	GoodResponse	1	n/a	n/a	4	41	Fixation	Win	True
396.16	0.29	Win2	0.5952000000000001	0.004	Yes	2.786	-0.004	3.0	GoodResponse	1	0.181	395.341	4	41	Target	Win	True
396.341	0.3	Win2	0.5952000000000001	0.004	Yes	2.786	-0.004	3.0	GoodResponse	1	0.181	n/a	4	41	ButtonPress	Win	True
396.461	0.41	Win2	0.5952000000000001	n/a	Yes	2.786	n/a	n/a	GoodResponse	1	n/a	n/a	4	41	Blank	Win	True
396.862	1.45	Win2	0.5952000000000001	n/a	Yes	2.786	n/a	5.0	GoodResponse	1	0.034	395.896	4	41	Feedback	Win	True
398.317	2.786	Win2	0.5952000000000001	n/a	Yes	2.786	n/a	n/a	GoodResponse	1	0.0	n/a	4	41	ISIslide	Win	True
401.125	0.25	Control	0.5814	0.0	No	2.925	0.025	n/a	NoResponse	0	n/a	n/a	4	42	Cue	Neutral	True
401.376	3.85	Control	0.5814	0.0	No	2.925	0.001	n/a	NoResponse	0	n/a	n/a	4	42	Fixation	Neutral	True
405.221	0.3	Control	0.5814	0.004	No	2.925	-0.004	3.0	NoResponse	0	0.438	404.659	4	42	Target	Neutral	True
405.522	0.4	Control	0.5814	n/a	No	2.925	n/a	n/a	NoResponse	0	n/a	n/a	4	42	Blank	Neutral	True
405.659	0.3	Control	0.5814	0.004	No	2.925	-0.004	3.0	NoResponse	0	0.438	n/a	4	42	ButtonPress	Neutral	True
405.923	1.45	Control	0.5814	n/a	No	2.925	n/a	5.0	NoResponse	0	0.047	404.97	4	42	Feedback	Neutral	True
407.377	2.925	Control	0.5814	n/a	No	2.925	n/a	n/a	NoResponse	0	0.0	n/a	4	42	ISIslide	Neutral	True
410.319	0.25	Win2	0.5909	0.0	Yes	3.181	0.019	n/a	GoodResponse	1	n/a	n/a	5	43	Cue	Win	True
410.57	4.0	Win2	0.5909	0.0	Yes	3.181	0.001	n/a	GoodResponse	1	n/a	n/a	5	43	Fixation	Win	True
414.565	0.31	Win2	0.5909	0.004	Yes	3.181	-0.004	3.0	GoodResponse	1	0.182	413.747	5	43	Target	Win	True
414.747	0.3	Win2	0.5909	0.004	Yes	3.181	-0.004	3.0	GoodResponse	1	0.182	n/a	5	43	ButtonPress	Win	True
414.883	0.39	Win2	0.5909	n/a	Yes	3.181	n/a	n/a	GoodResponse	1	n/a	n/a	5	43	Blank	Win	True
415.267	1.45	Win2	0.5909	n/a	Yes	3.181	n/a	5.0	GoodResponse	1	0.02	414.287	5	43	Feedback	Win	True
416.722	3.181	Win2	0.5909	n/a	Yes	3.181	n/a	n/a	GoodResponse	1	0.0	n/a	5	43	ISIslide	Win	True
419.915	0.25	Win2	0.6	0.0	Yes	2.985	0.015	n/a	GoodResponse	1	n/a	n/a	6	44	Cue	Win	True
420.165	4.0	Win2	0.6	0.0	Yes	2.985	0.0	n/a	GoodResponse	1	n/a	n/a	6	44	Fixation	Win	True
424.161	0.32	Win2	0.6	0.004	Yes	2.985	-0.004	3.0	GoodResponse	1	0.205	423.366	6	44	Target	Win	True
424.366	0.3	Win2	0.6	0.004	Yes	2.985	-0.004	3.0	GoodResponse	1	0.205	n/a	6	44	ButtonPress	Win	True
424.495	0.38	Win2	0.6	n/a	Yes	2.985	n/a	n/a	GoodResponse	1	n/a	n/a	6	44	Blank	Win	True
424.863	1.45	Win2	0.6	n/a	Yes	2.985	n/a	5.0	GoodResponse	1	0.034	423.897	6	44	Feedback	Win	True
426.317	2.985	Win2	0.6	n/a	Yes	2.985	n/a	n/a	GoodResponse	1	0.0	n/a	6	44	ISIslide	Win	True
429.326	0.25	Control	0.6087	0.0	Yes	2.874	0.026	n/a	GoodResponse	0	n/a	n/a	6	45	Cue	Neutral	False
429.577	4.1	Control	0.6087	0.0	Yes	2.874	0.001	3.0	GoodResponse	0	3.393	431.97	6	45	Fixation	Neutral	False
432.97	0.3	Control	0.6087	0.0	Yes	2.874	0.001	3.0	GoodResponse	0	3.393	n/a	6	45	ButtonPress	Neutral	False
433.672	0.33	Control	0.6087	0.004	Yes	2.874	-0.004	3.0	GoodResponse	0	0.213	432.885	6	45	Target	Neutral	False
433.885	0.3	Control	0.6087	0.004	Yes	2.874	-0.004	3.0	GoodResponse	0	0.213	n/a	6	45	ButtonPress	Neutral	False
434.007	0.37	Control	0.6087	n/a	Yes	2.874	n/a	n/a	GoodResponse	0	n/a	n/a	6	45	Blank	Neutral	False
434.374	1.45	Control	0.6087	n/a	Yes	2.874	n/a	5.0	GoodResponse	0	0.035	433.409	6	45	Feedback	Neutral	False
435.829	2.874	Control	0.6087	n/a	Yes	2.874	n/a	n/a	GoodResponse	0	0.0	n/a	6	45	ISIslide	Neutral	False
438.721	0.25	Lose2	0.617	0.0	Yes	3.379	0.021	n/a	GoodResponse	0	n/a	n/a	6	46	Cue	AvoidedLoss	False
438.972	4.0	Lose2	0.617	0.0	Yes	3.379	0.001	3.0	GoodResponse	0	0.005	437.977	6	46	Fixation	AvoidedLoss	False
438.977	0.3	Lose2	0.617	0.0	Yes	3.379	0.001	3.0	GoodResponse	0	0.005	n/a	6	46	ButtonPress	AvoidedLoss	False
442.967	0.34	Lose2	0.617	0.004	Yes	3.379	-0.004	3.0	GoodResponse	0	0.23	442.197	6	46	Target	AvoidedLoss	False
443.197	0.3	Lose2	0.617	0.004	Yes	3.379	-0.004	3.0	GoodResponse	0	0.23	n/a	6	46	ButtonPress	AvoidedLoss	False
443.318	0.36	Lose2	0.617	n/a	Yes	3.379	n/a	n/a	GoodResponse	0	n/a	n/a	6	46	Blank	AvoidedLoss	False
443.669	1.45	Lose2	0.617	n/a	Yes	3.379	n/a	5.0	GoodResponse	0	0.007	442.676	6	46	Feedback	AvoidedLoss	False
445.123	3.379	Lose2	0.617	n/a	Yes	3.379	n/a	n/a	GoodResponse	0	0.0	n/a	6	46	ISIslide	AvoidedLoss	False
448.517	0.25	Lose2	0.625	0.0	Yes	2.683	0.017	n/a	GoodResponse	0	n/a	n/a	6	47	Cue	AvoidedLoss	True
448.767	4.0	Lose2	0.625	0.001	Yes	2.683	0.0	n/a	GoodResponse	0	n/a	n/a	6	47	Fixation	AvoidedLoss	True
452.763	0.35	Lose2	0.625	0.004	Yes	2.683	-0.004	3.0	GoodResponse	0	0.228	451.991	6	47	Target	AvoidedLoss	True
452.991	0.3	Lose2	0.625	0.004	Yes	2.683	-0.004	3.0	GoodResponse	0	0.228	n/a	6	47	ButtonPress	AvoidedLoss	True
453.114	0.35	Lose2	0.625	n/a	Yes	2.683	n/a	n/a	GoodResponse	0	n/a	n/a	6	47	Blank	AvoidedLoss	True
453.465	1.45	Lose2	0.625	n/a	Yes	2.683	n/a	5.0	GoodResponse	0	0.016	452.481	6	47	Feedback	AvoidedLoss	True
454.919	2.683	Lose2	0.625	n/a	Yes	2.683	n/a	n/a	GoodResponse	0	0.0	n/a	6	47	ISIslide	AvoidedLoss	True
457.627	0.25	Lose2	0.6327	0.0	Yes	3.023	0.027	n/a	GoodResponse	0	n/a	n/a	6	48	Cue	AvoidedLoss	True
457.878	3.95	Lose2	0.6327	0.0	Yes	3.023	0.001	n/a	GoodResponse	0	n/a	n/a	6	48	Fixation	AvoidedLoss	True
461.823	0.36	Lose2	0.6327	0.004	Yes	3.023	-0.004	3.0	GoodResponse	0	0.214	461.037	6	48	Target	AvoidedLoss	True
462.037	0.3	Lose2	0.6327	0.004	Yes	3.023	-0.004	3.0	GoodResponse	0	0.214	n/a	6	48	ButtonPress	AvoidedLoss	True
462.191	0.34	Lose2	0.6327	n/a	Yes	3.023	n/a	n/a	GoodResponse	0	n/a	n/a	6	48	Blank	AvoidedLoss	True
462.525	1.45	Lose2	0.6327	n/a	Yes	3.023	n/a	5.0	GoodResponse	0	0.03	461.555	6	48	Feedback	AvoidedLoss	True
463.98	3.023	Lose2	0.6327	n/a	Yes	3.023	n/a	n/a	GoodResponse	0	0.0	n/a	6	48	ISIslide	AvoidedLoss	True
467.022	0.25	Control	0.64	0.0	Yes	2.878	0.022	n/a	GoodResponse	0	n/a	n/a	6	49	Cue	Neutral	True
467.273	4.0	Control	0.64	0.0	Yes	2.878	0.001	n/a	GoodResponse	0	n/a	n/a	6	49	Fixation	Neutral	True
471.268	0.37	Control	0.64	0.004	Yes	2.878	-0.004	3.0	GoodResponse	0	0.354	470.622	6	49	Target	Neutral	True
471.622	0.3	Control	0.64	0.004	Yes	2.878	-0.004	3.0	GoodResponse	0	0.354	n/a	6	49	ButtonPress	Neutral	True
471.653	0.33	Control	0.64	n/a	Yes	2.878	n/a	n/a	GoodResponse	0	n/a	n/a	6	49	Blank	Neutral	True
471.97	1.45	Control	0.64	n/a	Yes	2.878	n/a	5.0	GoodResponse	0	0.048	471.018	6	49	Feedback	Neutral	True
473.425	2.878	Control	0.64	n/a	Yes	2.878	n/a	n/a	GoodResponse	0	0.0	n/a	6	49	ISIslide	Neutral	True
476.317	0.25	Control	0.6470999999999999	0.0	Yes	2.783	0.017	n/a	GoodResponse	0	n/a	n/a	6	50	Cue	Neutral	True
476.567	4.0	Control	0.6470999999999999	0.0	Yes	2.783	0.0	n/a	GoodResponse	0	n/a	n/a	6	50	Fixation	Neutral	True
480.563	0.38	Control	0.6470999999999999	0.004	Yes	2.783	-0.004	3.0	GoodResponse	0	0.22	479.783	6	50	Target	Neutral	True
480.783	0.3	Control	0.6470999999999999	0.004	Yes	2.783	-0.004	3.0	GoodResponse	0	0.22	n/a	6	50	ButtonPress	Neutral	True
480.947	0.32	Control	0.6470999999999999	n/a	Yes	2.783	n/a	n/a	GoodResponse	0	n/a	n/a	6	50	Blank	Neutral	True
481.265	1.45	Control	0.6470999999999999	n/a	Yes	2.783	n/a	5.0	GoodResponse	0	0.021	480.286	6	50	Feedback	Neutral	True
482.719	2.783	Control	0.6470999999999999	n/a	Yes	2.783	n/a	n/a	GoodResponse	0	0.0	n/a	6	50	ISIslide	Neutral	True
485.527	0.25	Control	0.6346	0.0	No	2.723	0.027	n/a	NoResponse	0	n/a	n/a	6	51	Cue	Neutral	False
485.778	3.95	Control	0.6346	0.0	No	2.723	0.001	3.0	NoResponse	0	3.857	488.635	6	51	Fixation	Neutral	False
489.635	0.3	Control	0.6346	0.0	No	2.723	0.001	3.0	NoResponse	0	3.857	n/a	6	51	ButtonPress	Neutral	False
489.723	0.39	Control	0.6346	0.004	No	2.723	-0.004	3.0	NoResponse	0	0.442	489.165	6	51	Target	Neutral	False
490.124	0.31	Control	0.6346	n/a	No	2.723	n/a	n/a	NoResponse	0	n/a	n/a	6	51	Blank	Neutral	False
490.165	0.3	Control	0.6346	0.004	No	2.723	-0.004	3.0	NoResponse	0	0.442	n/a	6	51	ButtonPress	Neutral	False
490.425	1.45	Control	0.6346	n/a	No	2.723	n/a	5.0	NoResponse	0	0.031	489.456	6	51	Feedback	Neutral	False
491.88	2.723	Control	0.6346	n/a	No	2.723	n/a	n/a	NoResponse	0	0.0	n/a	6	51	ISIslide	Neutral	False
494.621	0.25	Control	0.6415000000000001	0.0	Yes	2.629	0.021	n/a	GoodResponse	0	n/a	n/a	6	52	Cue	Neutral	True
494.872	4.05	Control	0.6415000000000001	0.0	Yes	2.629	0.001	n/a	GoodResponse	0	n/a	n/a	6	52	Fixation	Neutral	True
498.917	0.4	Control	0.6415000000000001	0.004	Yes	2.629	-0.004	3.0	GoodResponse	0	0.253	498.17	6	52	Target	Neutral	True
499.17	0.3	Control	0.6415000000000001	0.004	Yes	2.629	-0.004	3.0	GoodResponse	0	0.253	n/a	6	52	ButtonPress	Neutral	True
499.319	0.3	Control	0.6415000000000001	n/a	Yes	2.629	n/a	n/a	GoodResponse	0	n/a	n/a	6	52	Blank	Neutral	True
499.62	1.45	Control	0.6415000000000001	n/a	Yes	2.629	n/a	5.0	GoodResponse	0	0.007	498.627	6	52	Feedback	Neutral	True
501.074	2.629	Control	0.6415000000000001	n/a	Yes	2.629	n/a	n/a	GoodResponse	0	0.0	n/a	6	52	ISIslide	Neutral	True
503.715	0.25	Win2	0.6481	0.0	Yes	2.935	0.015	n/a	GoodResponse	1	n/a	n/a	7	53	Cue	Win	True
503.966	4.05	Win2	0.6481	0.0	Yes	2.935	0.001	n/a	GoodResponse	1	n/a	n/a	7	53	Fixation	Win	True
508.011	0.41	Win2	0.6481	0.004	Yes	2.935	-0.004	3.0	GoodResponse	1	0.18	507.191	7	53	Target	Win	True
508.191	0.3	Win2	0.6481	0.004	Yes	2.935	-0.004	3.0	GoodResponse	1	0.18	n/a	7	53	ButtonPress	Win	True
508.429	0.29	Win2	0.6481	n/a	Yes	2.935	n/a	n/a	GoodResponse	1	n/a	n/a	7	53	Blank	Win	True
508.713	1.45	Win2	0.6481	n/a	Yes	2.935	n/a	5.0	GoodResponse	1	0.036	507.749	7	53	Feedback	Win	True
510.168	2.935	Win2	0.6481	n/a	Yes	2.935	n/a	n/a	GoodResponse	1	0.0	n/a	7	53	ISIslide	Win	True
513.127	0.25	Win2	0.6545000000000001	0.0	Yes	2.723	0.027	n/a	GoodResponse	1	n/a	n/a	8	54	Cue	Win	True
513.377	3.95	Win2	0.6545000000000001	0.0	Yes	2.723	0.0	n/a	GoodResponse	1	n/a	n/a	8	54	Fixation	Win	True
517.322	0.42	Win2	0.6545000000000001	0.005	Yes	2.723	-0.005	3.0	GoodResponse	1	0.188	516.51	8	54	Target	Win	True
517.51	0.3	Win2	0.6545000000000001	0.005	Yes	2.723	-0.005	3.0	GoodResponse	1	0.188	n/a	8	54	ButtonPress	Win	True
517.757	0.28	Win2	0.6545000000000001	n/a	Yes	2.723	n/a	n/a	GoodResponse	1	n/a	n/a	8	54	Blank	Win	True
518.025	1.45	Win2	0.6545000000000001	n/a	Yes	2.723	n/a	5.0	GoodResponse	1	0.041	517.066	8	54	Feedback	Win	True
519.479	2.723	Win2	0.6545000000000001	n/a	Yes	2.723	n/a	n/a	GoodResponse	1	0.0	n/a	8	54	ISIslide	Win	True
522.22	0.25	Control	0.6607	0.001	Yes	3.03	0.02	n/a	GoodResponse	0	n/a	n/a	8	55	Cue	Neutral	True
522.471	3.95	Control	0.6607	0.0	Yes	3.03	0.001	n/a	GoodResponse	0	n/a	n/a	8	55	Fixation	Neutral	True
526.416	0.43	Control	0.6607	0.004	Yes	3.03	-0.004	3.0	GoodResponse	0	0.182	525.598	8	55	Target	Neutral	True
526.598	0.3	Control	0.6607	0.004	Yes	3.03	-0.004	3.0	GoodResponse	0	0.182	n/a	8	55	ButtonPress	Neutral	True
526.851	0.27	Control	0.6607	n/a	Yes	3.03	n/a	n/a	GoodResponse	0	n/a	n/a	8	55	Blank	Neutral	True
527.118	1.45	Control	0.6607	n/a	Yes	3.03	n/a	5.0	GoodResponse	0	0.021	526.139	8	55	Feedback	Neutral	True
528.573	3.03	Control	0.6607	n/a	Yes	3.03	n/a	n/a	GoodResponse	0	0.0	n/a	8	55	ISIslide	Neutral	True
531.615	0.25	Control	0.6667000000000001	0.0	Yes	2.835	0.015	n/a	GoodResponse	0	n/a	n/a	8	56	Cue	Neutral	True
531.866	3.95	Control	0.6667000000000001	0.0	Yes	2.835	0.001	n/a	GoodResponse	0	n/a	n/a	8	56	Fixation	Neutral	True
535.811	0.43	Control	0.6667000000000001	0.004	Yes	2.835	-0.004	3.0	GoodResponse	0	0.151	534.962	8	56	Target	Neutral	True
535.962	0.3	Control	0.6667000000000001	0.004	Yes	2.835	-0.004	3.0	GoodResponse	0	0.151	n/a	8	56	ButtonPress	Neutral	True
536.246	0.27	Control	0.6667000000000001	n/a	Yes	2.835	n/a	n/a	GoodResponse	0	n/a	n/a	8	56	Blank	Neutral	True
536.513	1.45	Control	0.6667000000000001	n/a	Yes	2.835	n/a	5.0	GoodResponse	0	0.04	535.553	8	56	Feedback	Neutral	True
537.968	2.835	Control	0.6667000000000001	n/a	Yes	2.835	n/a	n/a	GoodResponse	0	0.0	n/a	8	56	ISIslide	Neutral	True
540.826	0.25	Control	0.6724	0.0	Yes	3.474	0.026	n/a	GoodResponse	0	n/a	n/a	8	57	Cue	Neutral	True
541.077	4.0	Control	0.6724	0.0	Yes	3.474	0.001	n/a	GoodResponse	0	n/a	n/a	8	57	Fixation	Neutral	True
545.072	0.42	Control	0.6724	0.004	Yes	3.474	-0.004	3.0	GoodResponse	0	0.219	544.291	8	57	Target	Neutral	True
545.291	0.3	Control	0.6724	0.004	Yes	3.474	-0.004	3.0	GoodResponse	0	0.219	n/a	8	57	ButtonPress	Neutral	True
545.507	0.28	Control	0.6724	n/a	Yes	3.474	n/a	n/a	GoodResponse	0	n/a	n/a	8	57	Blank	Neutral	True
545.774	1.45	Control	0.6724	n/a	Yes	3.474	n/a	5.0	GoodResponse	0	0.048	544.822	8	57	Feedback	Neutral	True
547.229	3.474	Control	0.6724	n/a	Yes	3.474	n/a	n/a	GoodResponse	0	0.0	n/a	8	57	ISIslide	Neutral	True
550.722	0.25	Win2	0.6779999999999999	0.0	Yes	2.728	0.022	3.0	GoodResponse	1	0.246	549.968	9	58	Cue	Win	False
550.968	0.3	Win2	0.6779999999999999	0.0	Yes	2.728	0.022	3.0	GoodResponse	1	0.246	n/a	9	58	ButtonPress	Win	False
550.973	4.05	Win2	0.6779999999999999	0.0	Yes	2.728	0.001	n/a	GoodResponse	1	n/a	n/a	9	58	Fixation	Win	False
555.018	0.41	Win2	0.6779999999999999	0.004	Yes	2.728	-0.004	3.0	GoodResponse	1	0.203	554.221	9	58	Target	Win	False
555.221	0.3	Win2	0.6779999999999999	0.004	Yes	2.728	-0.004	3.0	GoodResponse	1	0.203	n/a	9	58	ButtonPress	Win	False
555.436	0.29	Win2	0.6779999999999999	n/a	Yes	2.728	n/a	n/a	GoodResponse	1	n/a	n/a	9	58	Blank	Win	False
555.721	1.45	Win2	0.6779999999999999	n/a	Yes	2.728	n/a	5.0	GoodResponse	1	0.005	554.726	9	58	Feedback	Win	False
557.175	2.728	Win2	0.6779999999999999	n/a	Yes	2.728	n/a	n/a	GoodResponse	1	0.0	n/a	9	58	ISIslide	Win	False
559.916	0.25	Lose2	0.6833	0.001	Yes	2.684	0.016	n/a	GoodResponse	0	n/a	n/a	9	59	Cue	AvoidedLoss	True
560.167	4.0	Lose2	0.6833	0.0	Yes	2.684	0.001	n/a	GoodResponse	0	n/a	n/a	9	59	Fixation	AvoidedLoss	True
564.163	0.4	Lose2	0.6833	0.003	Yes	2.684	-0.003	3.0	GoodResponse	0	0.215	563.378	9	59	Target	AvoidedLoss	True
564.378	0.3	Lose2	0.6833	0.003	Yes	2.684	-0.003	3.0	GoodResponse	0	0.215	n/a	9	59	ButtonPress	AvoidedLoss	True
564.564	0.3	Lose2	0.6833	n/a	Yes	2.684	n/a	n/a	GoodResponse	0	n/a	n/a	9	59	Blank	AvoidedLoss	True
564.865	1.45	Lose2	0.6833	n/a	Yes	2.684	n/a	5.0	GoodResponse	0	0.029	563.894	9	59	Feedback	AvoidedLoss	True
566.319	2.684	Lose2	0.6833	n/a	Yes	2.684	n/a	n/a	GoodResponse	0	0.0	n/a	9	59	ISIslide	AvoidedLoss	True
569.027	0.25	Control	0.6884999999999999	0.0	Yes	2.673	0.027	n/a	GoodResponse	0	n/a	n/a	9	60	Cue	Neutral	True
569.278	4.0	Control	0.6884999999999999	0.0	Yes	2.673	0.001	n/a	GoodResponse	0	n/a	n/a	9	60	Fixation	Neutral	True
573.273	0.39	Control	0.6884999999999999	0.004	Yes	2.673	-0.004	3.0	GoodResponse	0	0.221	572.494	9	60	Target	Neutral	True
573.494	0.3	Control	0.6884999999999999	0.004	Yes	2.673	-0.004	3.0	GoodResponse	0	0.221	n/a	9	60	ButtonPress	Neutral	True
573.674	0.31	Control	0.6884999999999999	n/a	Yes	2.673	n/a	n/a	GoodResponse	0	n/a	n/a	9	60	Blank	Neutral	True
573.975	1.45	Control	0.6884999999999999	n/a	Yes	2.673	n/a	5.0	GoodResponse	0	0.041	573.016	9	60	Feedback	Neutral	True
575.43	2.673	Control	0.6884999999999999	n/a	Yes	2.673	n/a	n/a	GoodResponse	0	0.0	n/a	9	60	ISIslide	Neutral	True
578.121	0.25	Lose2	0.6934999999999999	0.0	Yes	2.979	0.021	n/a	GoodResponse	0	n/a	n/a	9	61	Cue	AvoidedLoss	True
578.372	4.0	Lose2	0.6934999999999999	0.0	Yes	2.979	0.001	n/a	GoodResponse	0	n/a	n/a	9	61	Fixation	AvoidedLoss	True
582.367	0.38	Lose2	0.6934999999999999	0.004	Yes	2.979	-0.004	3.0	GoodResponse	0	0.215	581.582	9	61	Target	AvoidedLoss	True
582.582	0.3	Lose2	0.6934999999999999	0.004	Yes	2.979	-0.004	3.0	GoodResponse	0	0.215	n/a	9	61	ButtonPress	AvoidedLoss	True
582.751	0.32	Lose2	0.6934999999999999	n/a	Yes	2.979	n/a	n/a	GoodResponse	0	n/a	n/a	9	61	Blank	AvoidedLoss	True
583.069	1.45	Lose2	0.6934999999999999	n/a	Yes	2.979	n/a	5.0	GoodResponse	0	0.02	582.089	9	61	Feedback	AvoidedLoss	True
584.523	2.979	Lose2	0.6934999999999999	n/a	Yes	2.979	n/a	n/a	GoodResponse	0	0.0	n/a	9	61	ISIslide	AvoidedLoss	True
587.516	0.25	Lose2	0.6984	0.0	Yes	2.884	0.016	n/a	GoodResponse	0	n/a	n/a	9	62	Cue	AvoidedLoss	True
587.766	3.9	Lose2	0.6984	0.0	Yes	2.884	0.0	n/a	GoodResponse	0	n/a	n/a	9	62	Fixation	AvoidedLoss	True
591.678	0.37	Lose2	0.6984	0.0	Yes	2.884	0.012	3.0	GoodResponse	0	0.272	590.95	9	62	Target	AvoidedLoss	True
591.95	0.3	Lose2	0.6984	0.0	Yes	2.884	0.012	3.0	GoodResponse	0	0.272	n/a	9	62	ButtonPress	AvoidedLoss	True
592.046	0.33	Lose2	0.6984	n/a	Yes	2.884	n/a	n/a	GoodResponse	0	n/a	n/a	9	62	Blank	AvoidedLoss	True
592.363	1.45	Lose2	0.6984	n/a	Yes	2.884	n/a	5.0	GoodResponse	0	0.044	591.407	9	62	Feedback	AvoidedLoss	True
593.818	2.884	Lose2	0.6984	n/a	Yes	2.884	n/a	n/a	GoodResponse	0	0.0	n/a	9	62	ISIslide	AvoidedLoss	True
596.727	0.25	Lose2	0.7031000000000001	0.0	Yes	2.623	0.027	n/a	GoodResponse	0	n/a	n/a	9	63	Cue	AvoidedLoss	True
596.977	4.05	Lose2	0.7031000000000001	0.0	Yes	2.623	0.0	n/a	GoodResponse	0	n/a	n/a	9	63	Fixation	AvoidedLoss	True
601.023	0.36	Lose2	0.7031000000000001	0.004	Yes	2.623	-0.004	3.0	GoodResponse	0	0.235	600.258	9	63	Target	AvoidedLoss	True
601.258	0.3	Lose2	0.7031000000000001	0.004	Yes	2.623	-0.004	3.0	GoodResponse	0	0.235	n/a	9	63	ButtonPress	AvoidedLoss	True
601.39	0.34	Lose2	0.7031000000000001	n/a	Yes	2.623	n/a	n/a	GoodResponse	0	n/a	n/a	9	63	Blank	AvoidedLoss	True
601.725	1.45	Lose2	0.7031000000000001	n/a	Yes	2.623	n/a	5.0	GoodResponse	0	0.048	600.773	9	63	Feedback	AvoidedLoss	True
603.179	2.623	Lose2	0.7031000000000001	n/a	Yes	2.623	n/a	n/a	GoodResponse	0	0.0	n/a	9	63	ISIslide	AvoidedLoss	True
605.82	0.25	Win2	0.7077	0.0	Yes	3.13	0.02	n/a	GoodResponse	1	n/a	n/a	10	64	Cue	Win	True
606.071	4.15	Win2	0.7077	0.0	Yes	3.13	0.001	n/a	GoodResponse	1	n/a	n/a	10	64	Fixation	Win	True
610.217	0.35	Win2	0.7077	0.003	Yes	3.13	-0.003	3.0	GoodResponse	1	0.215	609.432	10	64	Target	Win	True
610.432	0.3	Win2	0.7077	0.003	Yes	3.13	-0.003	3.0	GoodResponse	1	0.215	n/a	10	64	ButtonPress	Win	True
610.568	0.35	Win2	0.7077	n/a	Yes	3.13	n/a	n/a	GoodResponse	1	n/a	n/a	10	64	Blank	Win	True
610.919	1.45	Win2	0.7077	n/a	Yes	3.13	n/a	5.0	GoodResponse	1	0.023	609.942	10	64	Feedback	Win	True
612.373	3.13	Win2	0.7077	n/a	Yes	3.13	n/a	n/a	GoodResponse	1	0.0	n/a	10	64	ISIslide	Win	True
615.516	0.25	Control	0.7121	0.0	Yes	2.784	0.016	n/a	GoodResponse	0	n/a	n/a	10	65	Cue	Neutral	True
615.767	4.0	Control	0.7121	0.0	Yes	2.784	0.001	n/a	GoodResponse	0	n/a	n/a	10	65	Fixation	Neutral	True
619.762	0.34	Control	0.7121	0.004	Yes	2.784	-0.004	3.0	GoodResponse	0	0.226	618.988	10	65	Target	Neutral	True
619.988	0.3	Control	0.7121	0.004	Yes	2.784	-0.004	3.0	GoodResponse	0	0.226	n/a	10	65	ButtonPress	Neutral	True
620.113	0.36	Control	0.7121	n/a	Yes	2.784	n/a	n/a	GoodResponse	0	n/a	n/a	10	65	Blank	Neutral	True
620.464	1.45	Control	0.7121	n/a	Yes	2.784	n/a	5.0	GoodResponse	0	0.04	619.504	10	65	Feedback	Neutral	True
621.919	2.784	Control	0.7121	n/a	Yes	2.784	n/a	n/a	GoodResponse	0	0.0	n/a	10	65	ISIslide	Neutral	True
624.727	0.25	Win2	0.7164	0.0	Yes	2.773	0.027	n/a	GoodResponse	1	n/a	n/a	11	66	Cue	Win	True
624.978	3.9	Win2	0.7164	0.0	Yes	2.773	0.001	n/a	GoodResponse	1	n/a	n/a	11	66	Fixation	Win	True
628.873	0.33	Win2	0.7164	0.004	Yes	2.773	-0.004	3.0	GoodResponse	1	0.203	628.076	11	66	Target	Win	True
629.076	0.3	Win2	0.7164	0.004	Yes	2.773	-0.004	3.0	GoodResponse	1	0.203	n/a	11	66	ButtonPress	Win	True
629.207	0.37	Win2	0.7164	n/a	Yes	2.773	n/a	n/a	GoodResponse	1	n/a	n/a	11	66	Blank	Win	True
629.575	1.45	Win2	0.7164	n/a	Yes	2.773	n/a	5.0	GoodResponse	1	0.002	628.577	11	66	Feedback	Win	True
631.029	2.773	Win2	0.7164	n/a	Yes	2.773	n/a	n/a	GoodResponse	1	0.0	n/a	11	66	ISIslide	Win	True
633.821	0.25	Control	0.7206	0.0	Yes	2.729	0.021	n/a	GoodResponse	0	n/a	n/a	11	67	Cue	Neutral	True
634.072	3.95	Control	0.7206	0.0	Yes	2.729	0.001	n/a	GoodResponse	0	n/a	n/a	11	67	Fixation	Neutral	True
638.017	0.32	Control	0.7206	0.004	Yes	2.729	-0.004	3.0	GoodResponse	0	0.235	637.252	11	67	Target	Neutral	True
638.252	0.3	Control	0.7206	0.004	Yes	2.729	-0.004	3.0	GoodResponse	0	0.235	n/a	11	67	ButtonPress	Neutral	True
638.351	0.38	Control	0.7206	n/a	Yes	2.729	n/a	n/a	GoodResponse	0	n/a	n/a	11	67	Blank	Neutral	True
638.719	1.45	Control	0.7206	n/a	Yes	2.729	n/a	5.0	GoodResponse	0	0.029	637.748	11	67	Feedback	Neutral	True
640.173	2.729	Control	0.7206	n/a	Yes	2.729	n/a	n/a	GoodResponse	0	0.0	n/a	11	67	ISIslide	Neutral	True
642.915	0.25	Win2	0.7245999999999999	0.0	Yes	3.085	0.015	n/a	GoodResponse	1	n/a	n/a	12	68	Cue	Win	True
643.165	4.0	Win2	0.7245999999999999	0.001	Yes	3.085	0.0	n/a	GoodResponse	1	n/a	n/a	12	68	Fixation	Win	True
647.161	0.31	Win2	0.7245999999999999	0.004	Yes	3.085	-0.004	3.0	GoodResponse	1	0.225	646.386	12	68	Target	Win	True
647.386	0.3	Win2	0.7245999999999999	0.004	Yes	3.085	-0.004	3.0	GoodResponse	1	0.225	n/a	12	68	ButtonPress	Win	True
647.478	0.39	Win2	0.7245999999999999	n/a	Yes	3.085	n/a	n/a	GoodResponse	1	n/a	n/a	12	68	Blank	Win	True
647.863	1.45	Win2	0.7245999999999999	n/a	Yes	3.085	n/a	5.0	GoodResponse	1	0.007	646.87	12	68	Feedback	Win	True
649.317	3.085	Win2	0.7245999999999999	n/a	Yes	3.085	n/a	n/a	GoodResponse	1	0.0	n/a	12	68	ISIslide	Win	True
652.426	0.25	Win2	0.7286	0.001	Yes	3.224	0.026	n/a	GoodResponse	1	n/a	n/a	13	69	Cue	Win	True
652.677	3.95	Win2	0.7286	0.0	Yes	3.224	0.001	n/a	GoodResponse	1	n/a	n/a	13	69	Fixation	Win	True
656.622	0.3	Win2	0.7286	0.004	Yes	3.224	-0.004	3.0	GoodResponse	1	0.273	655.895	13	69	Target	Win	True
656.895	0.3	Win2	0.7286	0.004	Yes	3.224	-0.004	3.0	GoodResponse	1	0.273	n/a	13	69	ButtonPress	Win	True
656.923	0.4	Win2	0.7286	n/a	Yes	3.224	n/a	n/a	GoodResponse	1	n/a	n/a	13	69	Blank	Win	True
657.324	1.45	Win2	0.7286	n/a	Yes	3.224	n/a	5.0	GoodResponse	1	0.008	656.332	13	69	Feedback	Win	True
658.779	3.224	Win2	0.7286	n/a	Yes	3.224	n/a	n/a	GoodResponse	1	0.0	n/a	13	69	ISIslide	Win	True
662.022	0.25	Lose2	0.7323999999999999	0.0	Yes	3.028	0.022	n/a	GoodResponse	0	n/a	n/a	13	70	Cue	AvoidedLoss	True
662.273	4.05	Lose2	0.7323999999999999	0.0	Yes	3.028	0.001	n/a	GoodResponse	0	n/a	n/a	13	70	Fixation	AvoidedLoss	True
666.318	0.29	Lose2	0.7323999999999999	0.004	Yes	3.028	-0.004	3.0	GoodResponse	0	0.217	665.535	13	70	Target	AvoidedLoss	True
666.535	0.3	Lose2	0.7323999999999999	0.004	Yes	3.028	-0.004	3.0	GoodResponse	0	0.217	n/a	13	70	ButtonPress	AvoidedLoss	True
666.619	0.41	Lose2	0.7323999999999999	n/a	Yes	3.028	n/a	n/a	GoodResponse	0	n/a	n/a	13	70	Blank	AvoidedLoss	True
667.02	1.45	Lose2	0.7323999999999999	n/a	Yes	3.028	n/a	5.0	GoodResponse	0	0.02	666.04	13	70	Feedback	AvoidedLoss	True
668.474	3.028	Lose2	0.7323999999999999	n/a	Yes	3.028	n/a	n/a	GoodResponse	0	0.0	n/a	13	70	ISIslide	AvoidedLoss	True
671.517	0.25	Win2	0.7222	0.0	No	2.733	0.017	n/a	NoResponse	0	n/a	n/a	13	71	Cue	MissedWin	True
671.768	4.05	Win2	0.7222	0.0	No	2.733	0.001	n/a	NoResponse	0	n/a	n/a	13	71	Fixation	MissedWin	True
675.813	0.28	Win2	0.7222	0.004	No	2.733	-0.004	3.0	NoResponse	0	0.351	675.164	13	71	Target	MissedWin	True
676.097	0.42	Win2	0.7222	n/a	No	2.733	n/a	n/a	NoResponse	0	n/a	n/a	13	71	Blank	MissedWin	True
676.164	0.3	Win2	0.7222	0.004	No	2.733	-0.004	3.0	NoResponse	0	0.351	n/a	13	71	ButtonPress	MissedWin	True
676.515	1.45	Win2	0.7222	n/a	No	2.733	n/a	5.0	NoResponse	0	0.037	675.552	13	71	Feedback	MissedWin	True
677.969	2.733	Win2	0.7222	n/a	No	2.733	n/a	n/a	NoResponse	0	0.0	n/a	13	71	ISIslide	MissedWin	True
680.728	0.25	Win2	0.726	0.0	Yes	2.772	0.028	n/a	GoodResponse	1	n/a	n/a	14	72	Cue	Win	True
680.978	4.1	Win2	0.726	0.001	Yes	2.772	0.0	n/a	GoodResponse	1	n/a	n/a	14	72	Fixation	Win	True
685.074	0.27	Win2	0.726	0.004	Yes	2.772	-0.004	3.0	GoodResponse	1	0.205	684.279	14	72	Target	Win	True
685.279	0.3	Win2	0.726	0.004	Yes	2.772	-0.004	3.0	GoodResponse	1	0.205	n/a	14	72	ButtonPress	Win	True
685.358	0.43	Win2	0.726	n/a	Yes	2.772	n/a	n/a	GoodResponse	1	n/a	n/a	14	72	Blank	Win	True
685.776	1.45	Win2	0.726	n/a	Yes	2.772	n/a	5.0	GoodResponse	1	0.044	684.82	14	72	Feedback	Win	True
687.23	2.772	Win2	0.726	n/a	Yes	2.772	n/a	n/a	GoodResponse	1	0.0	n/a	14	72	ISIslide	Win	True
690.022	0.25	Win2	0.7297	0.0	Yes	2.678	0.022	n/a	GoodResponse	1	n/a	n/a	15	73	Cue	Win	False
690.273	4.0	Win2	0.7297	0.0	Yes	2.678	0.001	3.0	GoodResponse	1	3.55	692.823	15	73	Fixation	Win	False
693.823	0.3	Win2	0.7297	0.0	Yes	2.678	0.001	3.0	GoodResponse	1	3.55	n/a	15	73	ButtonPress	Win	False
694.268	0.26	Win2	0.7297	0.004	Yes	2.678	-0.004	3.0	GoodResponse	1	0.164	693.432	15	73	Target	Win	False
694.432	0.3	Win2	0.7297	0.004	Yes	2.678	-0.004	3.0	GoodResponse	1	0.164	n/a	15	73	ButtonPress	Win	False
694.536	0.44	Win2	0.7297	n/a	Yes	2.678	n/a	n/a	GoodResponse	1	n/a	n/a	15	73	Blank	Win	False
694.97	1.45	Win2	0.7297	n/a	Yes	2.678	n/a	5.0	GoodResponse	1	0.02	693.99	15	73	Feedback	Win	False
696.425	2.678	Win2	0.7297	n/a	Yes	2.678	n/a	n/a	GoodResponse	1	0.0	n/a	15	73	ISIslide	Win	False
699.116	0.25	Lose2	0.7333	0.0	Yes	2.634	0.016	n/a	GoodResponse	0	n/a	n/a	15	74	Cue	AvoidedLoss	True
699.367	4.05	Lose2	0.7333	0.0	Yes	2.634	0.001	n/a	GoodResponse	0	n/a	n/a	15	74	Fixation	AvoidedLoss	True
703.412	0.25	Lose2	0.7333	0.004	Yes	2.634	-0.004	3.0	GoodResponse	0	0.187	702.599	15	74	Target	AvoidedLoss	True
703.599	0.3	Lose2	0.7333	0.004	Yes	2.634	-0.004	3.0	GoodResponse	0	0.187	n/a	15	74	ButtonPress	AvoidedLoss	True
703.663	0.45	Lose2	0.7333	n/a	Yes	2.634	n/a	n/a	GoodResponse	0	n/a	n/a	15	74	Blank	AvoidedLoss	True
704.114	1.45	Lose2	0.7333	n/a	Yes	2.634	n/a	5.0	GoodResponse	0	0.047	703.161	15	74	Feedback	AvoidedLoss	True
705.569	2.634	Lose2	0.7333	n/a	Yes	2.634	n/a	n/a	GoodResponse	0	0.0	n/a	15	74	ISIslide	AvoidedLoss	True
708.227	0.25	Lose2	0.7368000000000001	0.0	Yes	2.923	0.027	n/a	GoodResponse	0	n/a	n/a	15	75	Cue	AvoidedLoss	True
708.477	3.95	Lose2	0.7368000000000001	0.0	Yes	2.923	0.0	n/a	GoodResponse	0	n/a	n/a	15	75	Fixation	AvoidedLoss	True
712.439	0.24	Lose2	0.7368000000000001	0.0	Yes	2.923	0.012	3.0	GoodResponse	0	0.191	711.63	15	75	Target	AvoidedLoss	True
712.63	0.3	Lose2	0.7368000000000001	0.0	Yes	2.923	0.012	3.0	GoodResponse	0	0.191	n/a	15	75	ButtonPress	AvoidedLoss	True
712.673	0.46	Lose2	0.7368000000000001	n/a	Yes	2.923	n/a	n/a	GoodResponse	0	n/a	n/a	15	75	Blank	AvoidedLoss	True
713.125	1.45	Lose2	0.7368000000000001	n/a	Yes	2.923	n/a	5.0	GoodResponse	0	0.012	712.137	15	75	Feedback	AvoidedLoss	True
714.579	2.923	Lose2	0.7368000000000001	n/a	Yes	2.923	n/a	n/a	GoodResponse	0	0.0	n/a	15	75	ISIslide	AvoidedLoss	True
717.521	0.25	Control	0.7273000000000001	0.0	No	3.229	0.021	n/a	NoResponse	0	n/a	n/a	15	76	Cue	Neutral	True
717.772	4.05	Control	0.7273000000000001	0.0	No	3.229	0.001	n/a	NoResponse	0	n/a	n/a	15	76	Fixation	Neutral	True
721.817	0.23	Control	0.7273000000000001	0.004	No	3.229	-0.004	3.0	NoResponse	0	0.298	721.115	15	76	Target	Neutral	True
722.051	0.47	Control	0.7273000000000001	n/a	No	3.229	n/a	n/a	NoResponse	0	n/a	n/a	15	76	Blank	Neutral	True
722.115	0.3	Control	0.7273000000000001	0.004	No	3.229	-0.004	3.0	NoResponse	0	0.298	n/a	15	76	ButtonPress	Neutral	True
722.519	1.45	Control	0.7273000000000001	n/a	No	3.229	n/a	5.0	NoResponse	0	0.032	721.551	15	76	Feedback	Neutral	True
723.974	3.229	Control	0.7273000000000001	n/a	No	3.229	n/a	n/a	NoResponse	0	0.0	n/a	15	76	ISIslide	Neutral	True
727.217	0.25	Lose2	0.7179000000000001	0.0	No	2.583	0.017	n/a	NoResponse	-1	n/a	n/a	14	77	Cue	Loss	True
727.467	3.95	Lose2	0.7179000000000001	0.001	No	2.583	0.0	n/a	NoResponse	-1	n/a	n/a	14	77	Fixation	Loss	True
731.413	0.22	Lose2	0.7179000000000001	0.004	No	2.583	-0.004	3.0	NoResponse	-1	0.252	730.665	14	77	Target	Loss	True
731.647	0.48	Lose2	0.7179000000000001	n/a	No	2.583	n/a	n/a	NoResponse	-1	n/a	n/a	14	77	Blank	Loss	True
731.665	0.3	Lose2	0.7179000000000001	0.004	No	2.583	-0.004	3.0	NoResponse	-1	0.252	n/a	14	77	ButtonPress	Loss	True
732.115	1.45	Lose2	0.7179000000000001	n/a	No	2.583	n/a	5.0	NoResponse	-1	0.046	731.161	14	77	Feedback	Loss	True
733.569	2.583	Lose2	0.7179000000000001	n/a	No	2.583	n/a	n/a	NoResponse	-1	0.0	n/a	14	77	ISIslide	Loss	True
