onset	duration	cue_type	current_mean_accuracy	duration_error	is_hit	isi_adjusted	onset_delay	response	response_type	reward	rt	rt_time	total_reward	trial_number	trial_phase	trial_type	one_press
11.1	0.25	Control	1.0	0.0	Yes	2.95	0.0	n/a	GoodResponse	0	n/a	n/a	0	0	Cue	Neutral	True
11.351	3.85	Control	1.0	0.0	Yes	2.95	0.001	n/a	GoodResponse	0	n/a	n/a	0	0	Fixation	Neutral	True
15.212	0.4	Control	1.0	0.0	Yes	2.95	0.012	2.0	GoodResponse	0	0.193	14.405	0	0	Target	Neutral	True
15.405	0.3	Control	1.0	0.0	Yes	2.95	0.012	2.0	GoodResponse	0	0.193	n/a	0	0	ButtonPress	Neutral	True
15.597	0.3	Control	1.0	n/a	Yes	2.95	n/a	n/a	GoodResponse	0	n/a	n/a	0	0	Blank	Neutral	True
15.897	1.45	Control	1.0	n/a	Yes	2.95	n/a	5.0	GoodResponse	0	0.012	14.909	0	0	Feedback	Neutral	True
17.352	2.95	Control	1.0	n/a	Yes	2.95	n/a	n/a	GoodResponse	0	0.0	n/a	0	0	ISIslide	Neutral	True
20.327	0.25	Lose2	1.0	0.0	Yes	2.773	0.027	n/a	GoodResponse	0	n/a	n/a	0	1	Cue	AvoidedLoss	True
20.578	4.0	Lose2	1.0	0.001	Yes	2.773	0.001	n/a	GoodResponse	0	n/a	n/a	0	1	Fixation	AvoidedLoss	True
24.573	0.39	Lose2	1.0	0.004	Yes	2.773	-0.004	2.0	GoodResponse	0	0.198	23.771	0	1	Target	AvoidedLoss	True
24.771	0.3	Lose2	1.0	0.004	Yes	2.773	-0.004	2.0	GoodResponse	0	0.198	n/a	0	1	ButtonPress	AvoidedLoss	True
24.975	0.31	Lose2	1.0	n/a	Yes	2.773	n/a	n/a	GoodResponse	0	n/a	n/a	0	1	Blank	AvoidedLoss	True
25.276	1.45	Lose2	1.0	n/a	Yes	2.773	n/a	5.0	GoodResponse	0	0.042	24.318	0	1	Feedback	AvoidedLoss	True
26.73	2.773	Lose2	1.0	n/a	Yes	2.773	n/a	n/a	GoodResponse	0	0.0	n/a	0	1	ISIslide	AvoidedLoss	True
29.522	0.25	Control	1.0	0.0	Yes	2.578	0.022	n/a	GoodResponse	0	n/a	n/a	0	2	Cue	Neutral	True
29.772	4.1	Control	1.0	0.0	Yes	2.578	0.0	n/a	GoodResponse	0	n/a	n/a	0	2	Fixation	Neutral	True
33.868	0.38	Control	1.0	0.004	Yes	2.578	-0.004	2.0	GoodResponse	0	0.241	33.109	0	2	Target	Neutral	True
34.109	0.3	Control	1.0	0.004	Yes	2.578	-0.004	2.0	GoodResponse	0	0.241	n/a	0	2	ButtonPress	Neutral	True
34.252	0.32	Control	1.0	n/a	Yes	2.578	n/a	n/a	GoodResponse	0	n/a	n/a	0	2	Blank	Neutral	True
34.57	1.45	Control	1.0	n/a	Yes	2.578	n/a	5.0	GoodResponse	0	0.021	33.591	0	2	Feedback	Neutral	True
36.024	2.578	Control	1.0	n/a	Yes	2.578	n/a	n/a	GoodResponse	0	0.0	n/a	0	2	ISIslide	Neutral	True
38.616	0.25	Win2	1.0	0.0	Yes	2.834	0.016	n/a	GoodResponse	1	n/a	n/a	1	3	Cue	Win	True
38.866	3.95	Win2	1.0	0.0	Yes	2.834	0.0	n/a	GoodResponse	1	n/a	n/a	1	3	Fixation	Win	True
42.811	0.37	Win2	1.0	0.005	Yes	2.834	-0.005	2.0	GoodResponse	1	0.147	41.958	1	3	Target	Win	True
42.958	0.3	Win2	1.0	0.005	Yes	2.834	-0.005	2.0	GoodResponse	1	0.147	n/a	1	3	ButtonPress	Win	True
43.196	0.33	Win2	1.0	n/a	Yes	2.834	n/a	n/a	GoodResponse	1	n/a	n/a	1	3	Blank	Win	True
43.514	1.45	Win2	1.0	n/a	Yes	2.834	n/a	5.0	GoodResponse	1	0.031	42.545	1	3	Feedback	Win	True
44.968	2.834	Win2	1.0	n/a	Yes	2.834	n/a	n/a	GoodResponse	1	0.0	n/a	1	3	ISIslide	Win	True
47.826	0.25	Win2	1.0	0.001	Yes	3.274	0.026	n/a	GoodResponse	1	n/a	n/a	2	4	Cue	Win	True
48.077	4.0	Win2	1.0	0.0	Yes	3.274	0.001	n/a	GoodResponse	1	n/a	n/a	2	4	Fixation	Win	True
52.073	0.36	Win2	1.0	0.003	Yes	3.274	-0.003	2.0	GoodResponse	1	0.234	51.307	2	4	Target	Win	True
52.307	0.3	Win2	1.0	0.003	Yes	3.274	-0.003	2.0	GoodResponse	1	0.234	n/a	2	4	ButtonPress	Win	True
52.44	0.34	Win2	1.0	n/a	Yes	3.274	n/a	n/a	GoodResponse	1	n/a	n/a	2	4	Blank	Win	True
52.775	1.45	Win2	1.0	n/a	Yes	3.274	n/a	5.0	GoodResponse	1	0.042	51.817	2	4	Feedback	Win	True
54.229	3.274	Win2	1.0	n/a	Yes	3.274	n/a	n/a	GoodResponse	1	0.0	n/a	2	4	ISIslide	Win	True
57.522	0.25	Win2	1.0	0.0	Yes	2.778	0.022	n/a	GoodResponse	1	n/a	n/a	3	5	Cue	Win	True
57.773	4.0	Win2	1.0	0.0	Yes	2.778	0.001	n/a	GoodResponse	1	n/a	n/a	3	5	Fixation	Win	True
61.768	0.35	Win2	1.0	0.004	Yes	2.778	-0.004	2.0	GoodResponse	1	0.246	61.014	3	5	Target	Win	True
62.014	0.3	Win2	1.0	0.004	Yes	2.778	-0.004	2.0	GoodResponse	1	0.246	n/a	3	5	ButtonPress	Win	True
62.119	0.35	Win2	1.0	n/a	Yes	2.778	n/a	n/a	GoodResponse	1	n/a	n/a	3	5	Blank	Win	True
62.47	1.45	Win2	1.0	n/a	Yes	2.778	n/a	5.0	GoodResponse	1	0.029	61.499	3	5	Feedback	Win	True
63.925	2.778	Win2	1.0	n/a	Yes	2.778	n/a	n/a	GoodResponse	1	0.0	n/a	3	5	ISIslide	Win	True
66.716	0.25	Lose2	1.0	0.0	Yes	2.734	0.016	n/a	GoodResponse	0	n/a	n/a	3	6	Cue	AvoidedLoss	True
66.967	3.95	Lose2	1.0	0.0	Yes	2.734	0.001	n/a	GoodResponse	0	n/a	n/a	3	6	Fixation	AvoidedLoss	True
70.912	0.34	Lose2	1.0	0.004	Yes	2.734	-0.004	2.0	GoodResponse	0	0.228	70.14	3	6	Target	AvoidedLoss	True
71.14	0.3	Lose2	1.0	0.004	Yes	2.734	-0.004	2.0	GoodResponse	0	0.228	n/a	3	6	ButtonPress	AvoidedLoss	True
71.263	0.36	Lose2	1.0	n/a	Yes	2.734	n/a	n/a	GoodResponse	0	n/a	n/a	3	6	Blank	AvoidedLoss	True
71.614	1.45	Lose2	1.0	n/a	Yes	2.734	n/a	5.0	GoodResponse	0	0.022	70.636	3	6	Feedback	AvoidedLoss	True
73.069	2.734	Lose2	1.0	n/a	Yes	2.734	n/a	n/a	GoodResponse	0	0.0	n/a	3	6	ISIslide	AvoidedLoss	True
75.827	0.25	Lose2	1.0	0.0	Yes	4.023	0.027	n/a	GoodResponse	0	n/a	n/a	3	7	Cue	AvoidedLoss	True
76.078	4.05	Lose2	1.0	0.0	Yes	4.023	0.001	n/a	GoodResponse	0	n/a	n/a	3	7	Fixation	AvoidedLoss	True
80.123	0.33	Lose2	1.0	0.004	Yes	4.023	-0.004	2.0	GoodResponse	0	0.181	79.304	3	7	Target	AvoidedLoss	True
80.304	0.3	Lose2	1.0	0.004	Yes	4.023	-0.004	2.0	GoodResponse	0	0.181	n/a	3	7	ButtonPress	AvoidedLoss	True
80.458	0.37	Lose2	1.0	n/a	Yes	4.023	n/a	n/a	GoodResponse	0	n/a	n/a	3	7	Blank	AvoidedLoss	True
80.825	1.45	Lose2	1.0	n/a	Yes	4.023	n/a	5.0	GoodResponse	0	0.038	79.863	3	7	Feedback	AvoidedLoss	True
82.28	4.023	Lose2	1.0	n/a	Yes	4.023	n/a	n/a	GoodResponse	0	0.0	n/a	3	7	ISIslide	AvoidedLoss	True
86.325	0.25	Lose2	1.0	0.0	Yes	3.025	0.025	n/a	GoodResponse	0	n/a	n/a	3	8	Cue	AvoidedLoss	True
86.576	3.95	Lose2	1.0	0.0	Yes	3.025	0.001	n/a	GoodResponse	0	n/a	n/a	3	8	Fixation	AvoidedLoss	True
90.521	0.32	Lose2	1.0	0.004	Yes	3.025	-0.004	2.0	GoodResponse	0	0.221	89.742	3	8	Target	AvoidedLoss	True
90.742	0.3	Lose2	1.0	0.004	Yes	3.025	-0.004	2.0	GoodResponse	0	0.221	n/a	3	8	ButtonPress	AvoidedLoss	True
90.855	0.38	Lose2	1.0	n/a	Yes	3.025	n/a	n/a	GoodResponse	0	n/a	n/a	3	8	Blank	AvoidedLoss	True
91.223	1.45	Lose2	1.0	n/a	Yes	3.025	n/a	5.0	GoodResponse	0	0.005	90.228	3	8	Feedback	AvoidedLoss	True
92.678	3.025	Lose2	1.0	n/a	Yes	3.025	n/a	n/a	GoodResponse	0	0.0	n/a	3	8	ISIslide	AvoidedLoss	True
95.72	0.25	Lose2	1.0	0.0	Yes	3.13	0.02	n/a	GoodResponse	0	n/a	n/a	3	9	Cue	AvoidedLoss	True
95.971	3.95	Lose2	1.0	0.0	Yes	3.13	0.001	n/a	GoodResponse	0	n/a	n/a	3	9	Fixation	AvoidedLoss	True
99.916	0.31	Lose2	1.0	0.004	Yes	3.13	-0.004	2.0	GoodResponse	0	0.243	99.159	3	9	Target	AvoidedLoss	True
100.159	0.3	Lose2	1.0	0.004	Yes	3.13	-0.004	2.0	GoodResponse	0	0.243	n/a	3	9	ButtonPress	AvoidedLoss	True
100.233	0.39	Lose2	1.0	n/a	Yes	3.13	n/a	n/a	GoodResponse	0	n/a	n/a	3	9	Blank	AvoidedLoss	True
100.618	1.45	Lose2	1.0	n/a	Yes	3.13	n/a	5.0	GoodResponse	0	0.017	99.635	3	9	Feedback	AvoidedLoss	True
102.072	3.13	Lose2	1.0	n/a	Yes	3.13	n/a	n/a	GoodResponse	0	0.0	n/a	3	9	ISIslide	AvoidedLoss	True
105.215	0.25	Control	1.0	0.0	Yes	3.285	0.015	n/a	GoodResponse	0	n/a	n/a	3	10	Cue	Neutral	True
105.466	4.0	Control	1.0	0.0	Yes	3.285	0.001	n/a	GoodResponse	0	n/a	n/a	3	10	Fixation	Neutral	True
109.461	0.3	Control	1.0	0.004	Yes	3.285	-0.004	2.0	GoodResponse	0	0.175	108.636	3	10	Target	Neutral	True
109.636	0.3	Control	1.0	0.004	Yes	3.285	-0.004	2.0	GoodResponse	0	0.175	n/a	3	10	ButtonPress	Neutral	True
109.762	0.4	Control	1.0	n/a	Yes	3.285	n/a	n/a	GoodResponse	0	n/a	n/a	3	10	Blank	Neutral	True
110.163	1.45	Control	1.0	n/a	Yes	3.285	n/a	5.0	GoodResponse	0	0.018	109.181	3	10	Feedback	Neutral	True
111.618	3.285	Control	1.0	n/a	Yes	3.285	n/a	n/a	GoodResponse	0	0.0	n/a	3	10	ISIslide	Neutral	True
114.928	0.25	Lose2	1.0	0.0	Yes	2.722	0.028	n/a	GoodResponse	0	n/a	n/a	3	11	Cue	AvoidedLoss	True
115.178	4.05	Lose2	1.0	0.0	Yes	2.722	0.0	n/a	GoodResponse	0	n/a	n/a	3	11	Fixation	AvoidedLoss	True
119.224	0.29	Lose2	1.0	0.004	Yes	2.722	-0.004	2.0	GoodResponse	0	0.225	118.449	3	11	Target	AvoidedLoss	True
119.449	0.3	Lose2	1.0	0.004	Yes	2.722	-0.004	2.0	GoodResponse	0	0.225	n/a	3	11	ButtonPress	AvoidedLoss	True
119.525	0.41	Lose2	1.0	n/a	Yes	2.722	n/a	n/a	GoodResponse	0	n/a	n/a	3	11	Blank	AvoidedLoss	True
119.926	1.45	Lose2	1.0	n/a	Yes	2.722	n/a	5.0	GoodResponse	0	0.027	118.953	3	11	Feedback	AvoidedLoss	True
121.38	2.722	Lose2	1.0	n/a	Yes	2.722	n/a	n/a	GoodResponse	0	0.0	n/a	3	11	ISIslide	AvoidedLoss	True
124.122	0.25	Control	1.0	0.0	Yes	2.978	0.022	n/a	GoodResponse	0	n/a	n/a	3	12	Cue	Neutral	True
124.372	3.9	Control	1.0	0.001	Yes	2.978	0.0	n/a	GoodResponse	0	n/a	n/a	3	12	Fixation	Neutral	True
128.284	0.28	Control	1.0	0.0	Yes	2.978	0.012	2.0	GoodResponse	0	0.206	127.49	3	12	Target	Neutral	True
128.49	0.3	Control	1.0	0.0	Yes	2.978	0.012	2.0	GoodResponse	0	0.206	n/a	3	12	ButtonPress	Neutral	True
128.552	0.42	Control	1.0	n/a	Yes	2.978	n/a	n/a	GoodResponse	0	n/a	n/a	3	12	Blank	Neutral	True
128.97	1.45	Control	1.0	n/a	Yes	2.978	n/a	5.0	GoodResponse	0	0.029	127.999	3	12	Feedback	Neutral	True
130.424	2.978	Control	1.0	n/a	Yes	2.978	n/a	n/a	GoodResponse	0	0.0	n/a	3	12	ISIslide	Neutral	True
133.416	0.25	Control	1.0	0.0	Yes	2.784	0.016	n/a	GoodResponse	0	n/a	n/a	3	13	Cue	Neutral	True
133.667	4.0	Control	1.0	0.0	Yes	2.784	0.001	n/a	GoodResponse	0	n/a	n/a	3	13	Fixation	Neutral	True
137.662	0.27	Control	1.0	0.004	Yes	2.784	-0.004	2.0	GoodResponse	0	0.233	136.895	3	13	Target	Neutral	True
137.895	0.3	Control	1.0	0.004	Yes	2.784	-0.004	2.0	GoodResponse	0	0.233	n/a	3	13	ButtonPress	Neutral	True
137.946	0.43	Control	1.0	n/a	Yes	2.784	n/a	n/a	GoodResponse	0	n/a	n/a	3	13	Blank	Neutral	True
138.364	1.45	Control	1.0	n/a	Yes	2.784	n/a	5.0	GoodResponse	0	0.044	137.408	3	13	Feedback	Neutral	True
139.819	2.784	Control	1.0	n/a	Yes	2.784	n/a	n/a	GoodResponse	0	0.0	n/a	3	13	ISIslide	Neutral	True
142.627	0.25	Win2	1.0	0.0	Yes	2.673	0.027	n/a	GoodResponse	1	n/a	n/a	4	14	Cue	Win	True
142.878	4.1	Win2	1.0	0.0	Yes	2.673	0.001	n/a	GoodResponse	1	n/a	n/a	4	14	Fixation	Win	True
146.974	0.26	Win2	1.0	0.003	Yes	2.673	-0.003	2.0	GoodResponse	1	0.193	146.167	4	14	Target	Win	True
147.167	0.3	Win2	1.0	0.003	Yes	2.673	-0.003	2.0	GoodResponse	1	0.193	n/a	4	14	ButtonPress	Win	True
147.241	0.44	Win2	1.0	n/a	Yes	2.673	n/a	n/a	GoodResponse	1	n/a	n/a	4	14	Blank	Win	True
147.676	1.45	Win2	1.0	n/a	Yes	2.673	n/a	5.0	GoodResponse	1	0.005	146.681	4	14	Feedback	Win	True
149.13	2.673	Win2	1.0	n/a	Yes	2.673	n/a	n/a	GoodResponse	1	0.0	n/a	4	14	ISIslide	Win	True
151.821	0.25	Control	1.0	0.001	Yes	2.979	0.021	n/a	GoodResponse	0	n/a	n/a	4	15	Cue	Neutral	True
152.072	4.0	Control	1.0	0.0	Yes	2.979	0.001	n/a	GoodResponse	0	n/a	n/a	4	15	Fixation	Neutral	True
156.067	0.25	Control	1.0	0.004	Yes	2.979	-0.004	2.0	GoodResponse	0	0.204	155.271	4	15	Target	Neutral	True
156.271	0.3	Control	1.0	0.004	Yes	2.979	-0.004	2.0	GoodResponse	0	0.204	n/a	4	15	ButtonPress	Neutral	True
156.318	0.45	Control	1.0	n/a	Yes	2.979	n/a	n/a	GoodResponse	0	n/a	n/a	4	15	Blank	Neutral	True
156.77	1.45	Control	1.0	n/a	Yes	2.979	n/a	5.0	GoodResponse	0	0.005	155.775	4	15	Feedback	Neutral	True
158.224	2.979	Control	1.0	n/a	Yes	2.979	n/a	n/a	GoodResponse	0	0.0	n/a	4	15	ISIslide	Neutral	True
161.216	0.25	Win2	1.0	0.0	Yes	2.884	0.016	n/a	GoodResponse	1	n/a	n/a	5	16	Cue	Win	True
161.467	4.0	Win2	1.0	0.0	Yes	2.884	0.001	n/a	GoodResponse	1	n/a	n/a	5	16	Fixation	Win	True
165.462	0.24	Win2	1.0	0.004	Yes	2.884	-0.004	2.0	GoodResponse	1	0.192	164.654	5	16	Target	Win	True
165.654	0.3	Win2	1.0	0.004	Yes	2.884	-0.004	2.0	GoodResponse	1	0.192	n/a	5	16	ButtonPress	Win	True
165.713	0.46	Win2	1.0	n/a	Yes	2.884	n/a	n/a	GoodResponse	1	n/a	n/a	5	16	Blank	Win	True
166.164	1.45	Win2	1.0	n/a	Yes	2.884	n/a	5.0	GoodResponse	1	0.016	165.18	5	16	Feedback	Win	True
167.619	2.884	Win2	1.0	n/a	Yes	2.884	n/a	n/a	GoodResponse	1	0.0	n/a	5	16	ISIslide	Win	True
170.527	0.25	Lose2	0.9444	0.001	No	2.723	0.027	n/a	LatePress	-1	n/a	n/a	4	17	Cue	Loss	True
170.778	3.95	Lose2	0.9444	0.0	No	2.723	0.001	n/a	LatePress	-1	n/a	n/a	4	17	Fixation	Loss	True
174.723	0.23	Lose2	0.9444	0.004	No	2.723	-0.004	2.0	LatePress	-1	0.232	173.955	4	17	Target	Loss	True
174.955	0.3	Lose2	0.9444	0.004	No	2.723	-0.004	2.0	LatePress	-1	0.232	n/a	4	17	ButtonPress	Loss	True
174.957	0.47	Lose2	0.9444	n/a	No	2.723	n/a	n/a	LatePress	-1	n/a	n/a	4	17	Blank	Loss	True
175.425	1.45	Lose2	0.9444	n/a	No	2.723	n/a	5.0	LatePress	-1	0.028	174.453	4	17	Feedback	Loss	True
176.88	2.723	Lose2	0.9444	n/a	No	2.723	n/a	n/a	LatePress	-1	0.0	n/a	4	17	ISIslide	Loss	True
179.621	0.25	Lose2	0.9473999999999999	0.0	Yes	2.729	0.021	n/a	GoodResponse	0	n/a	n/a	4	18	Cue	AvoidedLoss	True
179.872	4.05	Lose2	0.9473999999999999	0.0	Yes	2.729	0.001	n/a	GoodResponse	0	n/a	n/a	4	18	Fixation	AvoidedLoss	True
183.918	0.22	Lose2	0.9473999999999999	0.003	Yes	2.729	-0.003	2.0	GoodResponse	0	0.18	183.098	4	18	Target	AvoidedLoss	True
184.098	0.3	Lose2	0.9473999999999999	0.003	Yes	2.729	-0.003	2.0	GoodResponse	0	0.18	n/a	4	18	ButtonPress	AvoidedLoss	True
184.152	0.48	Lose2	0.9473999999999999	n/a	Yes	2.729	n/a	n/a	GoodResponse	0	n/a	n/a	4	18	Blank	AvoidedLoss	True
184.62	1.45	Lose2	0.9473999999999999	n/a	Yes	2.729	n/a	5.0	GoodResponse	0	0.015	183.635	4	18	Feedback	AvoidedLoss	True
186.074	2.729	Lose2	0.9473999999999999	n/a	Yes	2.729	n/a	n/a	GoodResponse	0	0.0	n/a	4	18	ISIslide	AvoidedLoss	True
188.816	0.25	Control	0.9	0.0	No	2.934	0.016	n/a	NoResponse	0	n/a	n/a	4	19	Cue	Neutral	True
189.066	3.95	Control	0.9	0.0	No	2.934	0.0	n/a	NoResponse	0	n/a	n/a	4	19	Fixation	Neutral	True
193.011	0.21	Control	0.9	0.005	No	2.934	-0.005	2.0	NoResponse	0	0.227	192.238	4	19	Target	Neutral	True
193.229	0.49	Control	0.9	n/a	No	2.934	n/a	n/a	NoResponse	0	n/a	n/a	4	19	Blank	Neutral	True
193.238	0.3	Control	0.9	0.005	No	2.934	-0.005	2.0	NoResponse	0	0.227	n/a	4	19	ButtonPress	Neutral	True
193.714	1.45	Control	0.9	n/a	No	2.934	n/a	5.0	NoResponse	0	0.012	192.726	4	19	Feedback	Neutral	True
195.168	2.934	Control	0.9	n/a	No	2.934	n/a	n/a	NoResponse	0	0.0	n/a	4	19	ISIslide	Neutral	True
198.127	0.25	Control	0.9048	0.0	Yes	2.623	0.027	n/a	GoodResponse	0	n/a	n/a	4	20	Cue	Neutral	True
198.378	4.05	Control	0.9048	0.0	Yes	2.623	0.001	n/a	GoodResponse	0	n/a	n/a	4	20	Fixation	Neutral	True
202.423	0.2	Control	0.9048	0.004	Yes	2.623	-0.004	2.0	GoodResponse	0	0.172	201.595	4	20	Target	Neutral	True
202.595	0.3	Control	0.9048	0.004	Yes	2.623	-0.004	2.0	GoodResponse	0	0.172	n/a	4	20	ButtonPress	Neutral	True
202.624	0.5	Control	0.9048	n/a	Yes	2.623	n/a	n/a	GoodResponse	0	n/a	n/a	4	20	Blank	Neutral	True
203.125	1.45	Control	0.9048	n/a	Yes	2.623	n/a	5.0	GoodResponse	0	0.01	202.135	4	20	Feedback	Neutral	True
204.58	2.623	Control	0.9048	n/a	Yes	2.623	n/a	n/a	GoodResponse	0	0.0	n/a	4	20	ISIslide	Neutral	True
207.221	0.25	Control	0.8636	0.0	No	2.779	0.021	n/a	NoResponse	0	n/a	n/a	4	21	Cue	Neutral	True
207.471	4.1	Control	0.8636	0.001	No	2.779	0.0	n/a	NoResponse	0	n/a	n/a	4	21	Fixation	Neutral	True
211.567	0.19	Control	0.8636	0.004	No	2.779	-0.004	2.0	NoResponse	0	0.207	210.774	4	21	Target	Neutral	True
211.768	0.51	Control	0.8636	n/a	No	2.779	n/a	n/a	NoResponse	0	n/a	n/a	4	21	Blank	Neutral	True
211.774	0.3	Control	0.8636	0.004	No	2.779	-0.004	2.0	NoResponse	0	0.207	n/a	4	21	ButtonPress	Neutral	True
212.269	1.45	Control	0.8636	n/a	No	2.779	n/a	5.0	NoResponse	0	0.005	211.274	4	21	Feedback	Neutral	True
213.724	2.779	Control	0.8636	n/a	No	2.779	n/a	n/a	NoResponse	0	0.0	n/a	4	21	ISIslide	Neutral	True
216.515	0.25	Control	0.8261	0.0	No	2.785	0.015	n/a	NoResponse	0	n/a	n/a	4	22	Cue	Neutral	True
216.766	4.0	Control	0.8261	0.0	No	2.785	0.001	n/a	NoResponse	0	n/a	n/a	4	22	Fixation	Neutral	True
220.761	0.18	Control	0.8261	0.004	No	2.785	-0.004	2.0	NoResponse	0	0.196	219.957	4	22	Target	Neutral	True
220.945	0.52	Control	0.8261	n/a	No	2.785	n/a	n/a	NoResponse	0	n/a	n/a	4	22	Blank	Neutral	True
220.957	0.3	Control	0.8261	0.004	No	2.785	-0.004	2.0	NoResponse	0	0.196	n/a	4	22	ButtonPress	Neutral	True
221.463	1.45	Control	0.8261	n/a	No	2.785	n/a	5.0	NoResponse	0	0.035	220.498	4	22	Feedback	Neutral	True
222.918	2.785	Control	0.8261	n/a	No	2.785	n/a	n/a	NoResponse	0	0.0	n/a	4	22	ISIslide	Neutral	True
225.726	0.25	Control	0.7917000000000001	0.0	No	2.774	0.026	n/a	NoResponse	0	n/a	n/a	4	23	Cue	Neutral	True
225.977	3.9	Control	0.7917000000000001	0.0	No	2.774	0.001	n/a	NoResponse	0	n/a	n/a	4	23	Fixation	Neutral	True
229.872	0.17	Control	0.7917000000000001	0.004	No	2.774	-0.004	2.0	NoResponse	0	0.193	229.065	4	23	Target	Neutral	True
230.056	0.53	Control	0.7917000000000001	n/a	No	2.774	n/a	n/a	NoResponse	0	n/a	n/a	4	23	Blank	Neutral	True
230.065	0.3	Control	0.7917000000000001	0.004	No	2.774	-0.004	2.0	NoResponse	0	0.193	n/a	4	23	ButtonPress	Neutral	True
230.574	1.45	Control	0.7917000000000001	n/a	No	2.774	n/a	5.0	NoResponse	0	0.015	229.589	4	23	Feedback	Neutral	True
232.028	2.774	Control	0.7917000000000001	n/a	No	2.774	n/a	n/a	NoResponse	0	0.0	n/a	4	23	ISIslide	Neutral	True
234.82	0.25	Win2	0.76	0.0	No	3.13	0.02	n/a	NoResponse	0	n/a	n/a	4	24	Cue	MissedWin	True
235.071	3.95	Win2	0.76	0.0	No	3.13	0.001	2.0	NoResponse	0	3.207	237.278	4	24	Fixation	MissedWin	True
238.278	0.3	Win2	0.76	0.0	No	3.13	0.001	2.0	NoResponse	0	3.207	n/a	4	24	ButtonPress	MissedWin	True
239.016	0.16	Win2	0.76	0.004	No	3.13	-0.004	n/a	NoResponse	0	n/a	n/a	4	24	Target	MissedWin	True
239.183	0.54	Win2	0.76	n/a	No	3.13	n/a	n/a	NoResponse	0	n/a	n/a	4	24	Blank	MissedWin	True
239.718	1.45	Win2	0.76	n/a	No	3.13	n/a	5.0	NoResponse	0	0.007	238.725	4	24	Feedback	MissedWin	True
241.172	3.13	Win2	0.76	n/a	No	3.13	n/a	n/a	NoResponse	0	0.0	n/a	4	24	ISIslide	MissedWin	True
244.315	0.25	Win2	0.7308	0.0	No	3.085	0.015	n/a	NoResponse	0	n/a	n/a	4	25	Cue	MissedWin	True
244.566	4.0	Win2	0.7308	0.0	No	3.085	0.001	n/a	NoResponse	0	n/a	n/a	4	25	Fixation	MissedWin	True
248.561	0.15	Win2	0.7308	0.004	No	3.085	-0.004	2.0	NoResponse	0	0.194	247.755	4	25	Target	MissedWin	True
248.712	0.55	Win2	0.7308	n/a	No	3.085	n/a	n/a	NoResponse	0	n/a	n/a	4	25	Blank	MissedWin	True
248.755	0.3	Win2	0.7308	0.004	No	3.085	-0.004	2.0	NoResponse	0	0.194	n/a	4	25	ButtonPress	MissedWin	True
249.263	1.45	Win2	0.7308	n/a	No	3.085	n/a	5.0	NoResponse	0	0.008	248.271	4	25	Feedback	MissedWin	True
250.718	3.085	Win2	0.7308	n/a	No	3.085	n/a	n/a	NoResponse	0	0.0	n/a	4	25	ISIslide	MissedWin	True
253.827	0.25	Win2	0.7037	0.0	No	2.923	0.027	n/a	NoResponse	0	n/a	n/a	4	26	Cue	MissedWin	True
254.078	3.95	Win2	0.7037	0.0	No	2.923	0.001	n/a	NoResponse	0	n/a	n/a	4	26	Fixation	MissedWin	True
258.023	0.15	Win2	0.7037	0.004	No	2.923	-0.004	2.0	NoResponse	0	0.208	257.231	4	26	Target	MissedWin	True
258.173	0.55	Win2	0.7037	n/a	No	2.923	n/a	n/a	NoResponse	0	n/a	n/a	4	26	Blank	MissedWin	True
258.231	0.3	Win2	0.7037	0.004	No	2.923	-0.004	2.0	NoResponse	0	0.208	n/a	4	26	ButtonPress	MissedWin	True
258.725	1.45	Win2	0.7037	n/a	No	2.923	n/a	5.0	NoResponse	0	0.001	257.726	4	26	Feedback	MissedWin	True
260.179	2.923	Win2	0.7037	n/a	No	2.923	n/a	n/a	NoResponse	0	0.0	n/a	4	26	ISIslide	MissedWin	True
263.122	0.25	Lose2	0.6786	0.0	No	2.828	0.022	n/a	NoResponse	-1	n/a	n/a	3	27	Cue	Loss	True
263.372	4.05	Lose2	0.6786	0.0	No	2.828	0.0	n/a	NoResponse	-1	n/a	n/a	3	27	Fixation	Loss	True
267.418	0.15	Lose2	0.6786	0.004	No	2.828	-0.004	2.0	NoResponse	-1	0.195	266.613	3	27	Target	Loss	True
267.568	0.55	Lose2	0.6786	n/a	No	2.828	n/a	n/a	NoResponse	-1	n/a	n/a	3	27	Blank	Loss	True
267.613	0.3	Lose2	0.6786	0.004	No	2.828	-0.004	2.0	NoResponse	-1	0.195	n/a	3	27	ButtonPress	Loss	True
268.12	1.45	Lose2	0.6786	n/a	No	2.828	n/a	5.0	NoResponse	-1	0.015	267.135	3	27	Feedback	Loss	True
269.574	2.828	Lose2	0.6786	n/a	No	2.828	n/a	n/a	NoResponse	-1	0.0	n/a	3	27	ISIslide	Loss	True
272.416	0.25	Control	0.6552	0.0	No	2.834	0.016	n/a	NoResponse	0	n/a	n/a	3	28	Cue	Neutral	False
272.667	4.05	Control	0.6552	0.0	No	2.834	0.001	2.0	NoResponse	0	2.027	273.694	3	28	Fixation	Neutral	False
274.694	0.3	Control	0.6552	0.0	No	2.834	0.001	2.0	NoResponse	0	2.027	n/a	3	28	ButtonPress	Neutral	False
276.712	0.15	Control	0.6552	0.004	No	2.834	-0.004	2.0	NoResponse	0	0.201	275.913	3	28	Target	Neutral	False
276.863	0.55	Control	0.6552	n/a	No	2.834	n/a	n/a	NoResponse	0	n/a	n/a	3	28	Blank	Neutral	False
276.913	0.3	Control	0.6552	0.004	No	2.834	-0.004	2.0	NoResponse	0	0.201	n/a	3	28	ButtonPress	Neutral	False
277.414	1.45	Control	0.6552	n/a	No	2.834	n/a	5.0	NoResponse	0	0.039	276.453	3	28	Feedback	Neutral	False
278.869	2.834	Control	0.6552	n/a	No	2.834	n/a	n/a	NoResponse	0	0.0	n/a	3	28	ISIslide	Neutral	False
281.727	0.25	Lose2	0.6333	0.0	No	2.823	0.027	n/a	NoResponse	-1	n/a	n/a	2	29	Cue	Loss	True
281.978	3.95	Lose2	0.6333	0.0	No	2.823	0.001	n/a	NoResponse	-1	n/a	n/a	2	29	Fixation	Loss	True
285.923	0.15	Lose2	0.6333	0.004	No	2.823	-0.004	2.0	NoResponse	-1	0.201	285.124	2	29	Target	Loss	True
286.074	0.55	Lose2	0.6333	n/a	No	2.823	n/a	n/a	NoResponse	-1	n/a	n/a	2	29	Blank	Loss	True
286.124	0.3	Lose2	0.6333	0.004	No	2.823	-0.004	2.0	NoResponse	-1	0.201	n/a	2	29	ButtonPress	Loss	True
286.625	1.45	Lose2	0.6333	n/a	No	2.823	n/a	5.0	NoResponse	-1	0.009	285.634	2	29	Feedback	Loss	True
288.08	2.823	Lose2	0.6333	n/a	No	2.823	n/a	n/a	NoResponse	-1	0.0	n/a	2	29	ISIslide	Loss	True
290.922	0.25	Win2	0.6129	0.0	No	2.778	0.022	n/a	NoResponse	0	n/a	n/a	2	30	Cue	MissedWin	True
291.172	3.9	Win2	0.6129	0.0	No	2.778	0.0	2.0	NoResponse	0	3.773	293.945	2	30	Fixation	MissedWin	True
294.945	0.3	Win2	0.6129	0.0	No	2.778	0.0	2.0	NoResponse	0	3.773	n/a	2	30	ButtonPress	MissedWin	True
295.084	0.16	Win2	0.6129	0.0	No	2.778	0.012	n/a	NoResponse	0	n/a	n/a	2	30	Target	MissedWin	True
295.234	0.54	Win2	0.6129	n/a	No	2.778	n/a	n/a	NoResponse	0	n/a	n/a	2	30	Blank	MissedWin	True
295.769	1.45	Win2	0.6129	n/a	No	2.778	n/a	5.0	NoResponse	0	0.001	294.77	2	30	Feedback	MissedWin	True
297.224	2.778	Win2	0.6129	n/a	No	2.778	n/a	n/a	NoResponse	0	0.0	n/a	2	30	ISIslide	MissedWin	True
300.015	0.25	Lose2	0.5938	0.001	No	2.835	0.015	n/a	NoResponse	-1	n/a	n/a	1	31	Cue	Loss	True
300.266	4.05	Lose2	0.5938	0.0	No	2.835	0.001	n/a	NoResponse	-1	n/a	n/a	1	31	Fixation	Loss	True
304.312	0.17	Lose2	0.5938	0.003	No	2.835	-0.003	2.0	NoResponse	-1	0.191	303.503	1	31	Target	Loss	True
304.496	0.53	Lose2	0.5938	n/a	No	2.835	n/a	n/a	NoResponse	-1	n/a	n/a	1	31	Blank	Loss	True
304.503	0.3	Lose2	0.5938	0.003	No	2.835	-0.003	2.0	NoResponse	-1	0.191	n/a	1	31	ButtonPress	Loss	True
305.014	1.45	Lose2	0.5938	n/a	No	2.835	n/a	5.0	NoResponse	-1	0.029	304.043	1	31	Feedback	Loss	True
306.468	2.835	Lose2	0.5938	n/a	No	2.835	n/a	n/a	NoResponse	-1	0.0	n/a	1	31	ISIslide	Loss	True
309.327	0.25	Lose2	0.5758	0.0	No	2.623	0.027	n/a	NoResponse	-1	n/a	n/a	0	32	Cue	Loss	True
309.577	4.15	Lose2	0.5758	0.001	No	2.623	0.0	n/a	NoResponse	-1	n/a	n/a	0	32	Fixation	Loss	True
313.723	0.18	Lose2	0.5758	0.004	No	2.623	-0.004	2.0	NoResponse	-1	0.185	312.908	0	32	Target	Loss	True
313.907	0.52	Lose2	0.5758	n/a	No	2.623	n/a	n/a	NoResponse	-1	n/a	n/a	0	32	Blank	Loss	True
313.908	0.3	Lose2	0.5758	0.004	No	2.623	-0.004	2.0	NoResponse	-1	0.185	n/a	0	32	ButtonPress	Loss	True
314.425	1.45	Lose2	0.5758	n/a	No	2.623	n/a	5.0	NoResponse	-1	0.027	313.452	0	32	Feedback	Loss	True
315.88	2.623	Lose2	0.5758	n/a	No	2.623	n/a	n/a	NoResponse	-1	0.0	n/a	0	32	ISIslide	Loss	True
318.521	0.25	Win2	0.5588000000000001	0.0	No	2.679	0.021	n/a	NoResponse	0	n/a	n/a	0	33	Cue	MissedWin	True
318.772	4.0	Win2	0.5588000000000001	0.0	No	2.679	0.001	2.0	NoResponse	0	3.845	321.617	0	33	Fixation	MissedWin	True
322.617	0.3	Win2	0.5588000000000001	0.0	No	2.679	0.001	2.0	NoResponse	0	3.845	n/a	0	33	ButtonPress	MissedWin	True
322.767	0.19	Win2	0.5588000000000001	0.004	No	2.679	-0.004	n/a	NoResponse	0	n/a	n/a	0	33	Target	MissedWin	True
322.968	0.51	Win2	0.5588000000000001	n/a	No	2.679	n/a	n/a	NoResponse	0	n/a	n/a	0	33	Blank	MissedWin	True
323.469	1.45	Win2	0.5588000000000001	n/a	No	2.679	n/a	5.0	NoResponse	0	0.029	322.498	0	33	Feedback	MissedWin	True
324.923	2.679	Win2	0.5588000000000001	n/a	No	2.679	n/a	n/a	NoResponse	0	0.0	n/a	0	33	ISIslide	MissedWin	True
327.615	0.25	Lose2	0.5714	0.0	Yes	2.635	0.015	n/a	GoodResponse	0	n/a	n/a	0	34	Cue	AvoidedLoss	True
327.866	4.05	Lose2	0.5714	0.0	Yes	2.635	0.001	n/a	GoodResponse	0	n/a	n/a	0	34	Fixation	AvoidedLoss	True
331.911	0.2	Lose2	0.5714	0.004	Yes	2.635	-0.004	2.0	GoodResponse	0	0.184	331.095	0	34	Target	AvoidedLoss	True
332.095	0.3	Lose2	0.5714	0.004	Yes	2.635	-0.004	2.0	GoodResponse	0	0.184	n/a	0	34	ButtonPress	AvoidedLoss	True
332.112	0.5	Lose2	0.5714	n/a	Yes	2.635	n/a	n/a	GoodResponse	0	n/a	n/a	0	34	Blank	AvoidedLoss	True
332.613	1.45	Lose2	0.5714	n/a	Yes	2.635	n/a	5.0	GoodResponse	0	0.021	331.634	0	34	Feedback	AvoidedLoss	True
334.067	2.635	Lose2	0.5714	n/a	Yes	2.635	n/a	n/a	GoodResponse	0	0.0	n/a	0	34	ISIslide	AvoidedLoss	True
336.725	0.25	Lose2	0.5832999999999999	0.001	Yes	2.675	0.025	n/a	GoodResponse	0	n/a	n/a	0	35	Cue	AvoidedLoss	True
336.976	4.0	Lose2	0.5832999999999999	0.0	Yes	2.675	0.001	n/a	GoodResponse	0	n/a	n/a	0	35	Fixation	AvoidedLoss	True
340.972	0.21	Lose2	0.5832999999999999	0.003	Yes	2.675	-0.003	2.0	GoodResponse	0	0.152	340.124	0	35	Target	AvoidedLoss	True
341.124	0.3	Lose2	0.5832999999999999	0.003	Yes	2.675	-0.003	2.0	GoodResponse	0	0.152	n/a	0	35	ButtonPress	AvoidedLoss	True
341.189	0.49	Lose2	0.5832999999999999	n/a	Yes	2.675	n/a	n/a	GoodResponse	0	n/a	n/a	0	35	Blank	AvoidedLoss	True
341.674	1.45	Lose2	0.5832999999999999	n/a	Yes	2.675	n/a	5.0	GoodResponse	0	0.005	340.679	0	35	Feedback	AvoidedLoss	True
343.128	2.675	Lose2	0.5832999999999999	n/a	Yes	2.675	n/a	n/a	GoodResponse	0	0.0	n/a	0	35	ISIslide	AvoidedLoss	True
345.819	0.25	Control	0.5946	0.0	Yes	2.681	0.019	n/a	GoodResponse	0	n/a	n/a	0	36	Cue	Neutral	True
346.07	4.0	Control	0.5946	0.0	Yes	2.681	0.001	n/a	GoodResponse	0	n/a	n/a	0	36	Fixation	Neutral	True
350.065	0.22	Control	0.5946	0.004	Yes	2.681	-0.004	2.0	GoodResponse	0	0.195	349.26	0	36	Target	Neutral	True
350.26	0.3	Control	0.5946	0.004	Yes	2.681	-0.004	2.0	GoodResponse	0	0.195	n/a	0	36	ButtonPress	Neutral	True
350.299	0.48	Control	0.5946	n/a	Yes	2.681	n/a	n/a	GoodResponse	0	n/a	n/a	0	36	Blank	Neutral	True
350.768	1.45	Control	0.5946	n/a	Yes	2.681	n/a	5.0	GoodResponse	0	0.004	349.772	0	36	Feedback	Neutral	True
352.222	2.681	Control	0.5946	n/a	Yes	2.681	n/a	n/a	GoodResponse	0	0.0	n/a	0	36	ISIslide	Neutral	True
354.93	0.25	Win2	0.6053000000000001	0.0	Yes	2.87	0.03	n/a	GoodResponse	1	n/a	n/a	1	37	Cue	Win	True
355.181	4.0	Win2	0.6053000000000001	0.0	Yes	2.87	0.001	n/a	GoodResponse	1	n/a	n/a	1	37	Fixation	Win	True
359.176	0.23	Win2	0.6053000000000001	0.004	Yes	2.87	-0.004	2.0	GoodResponse	1	0.185	358.361	1	37	Target	Win	True
359.361	0.3	Win2	0.6053000000000001	0.004	Yes	2.87	-0.004	2.0	GoodResponse	1	0.185	n/a	1	37	ButtonPress	Win	True
359.41	0.47	Win2	0.6053000000000001	n/a	Yes	2.87	n/a	n/a	GoodResponse	1	n/a	n/a	1	37	Blank	Win	True
359.878	1.45	Win2	0.6053000000000001	n/a	Yes	2.87	n/a	5.0	GoodResponse	1	0.028	358.906	1	37	Feedback	Win	True
361.333	2.87	Win2	0.6053000000000001	n/a	Yes	2.87	n/a	n/a	GoodResponse	1	0.0	n/a	1	37	ISIslide	Win	True
364.225	0.25	Lose2	0.6154	0.0	Yes	2.825	0.025	n/a	GoodResponse	0	n/a	n/a	1	38	Cue	AvoidedLoss	True
364.475	3.95	Lose2	0.6154	0.0	Yes	2.825	0.0	n/a	GoodResponse	0	n/a	n/a	1	38	Fixation	AvoidedLoss	True
368.437	0.24	Lose2	0.6154	0.0	Yes	2.825	0.012	2.0	GoodResponse	0	0.156	367.593	1	38	Target	AvoidedLoss	True
368.593	0.3	Lose2	0.6154	0.0	Yes	2.825	0.012	2.0	GoodResponse	0	0.156	n/a	1	38	ButtonPress	AvoidedLoss	True
368.671	0.46	Lose2	0.6154	n/a	Yes	2.825	n/a	n/a	GoodResponse	0	n/a	n/a	1	38	Blank	AvoidedLoss	True
369.123	1.45	Lose2	0.6154	n/a	Yes	2.825	n/a	5.0	GoodResponse	0	0.011	368.134	1	38	Feedback	AvoidedLoss	True
370.577	2.825	Lose2	0.6154	n/a	Yes	2.825	n/a	n/a	GoodResponse	0	0.0	n/a	1	38	ISIslide	AvoidedLoss	True
373.419	0.25	Win2	0.625	0.0	Yes	2.981	0.019	n/a	GoodResponse	1	n/a	n/a	2	39	Cue	Win	True
373.669	4.1	Win2	0.625	0.001	Yes	2.981	0.0	n/a	GoodResponse	1	n/a	n/a	2	39	Fixation	Win	True
377.765	0.25	Win2	0.625	0.004	Yes	2.981	-0.004	2.0	GoodResponse	1	0.221	376.986	2	39	Target	Win	True
377.986	0.3	Win2	0.625	0.004	Yes	2.981	-0.004	2.0	GoodResponse	1	0.221	n/a	2	39	ButtonPress	Win	True
378.016	0.45	Win2	0.625	n/a	Yes	2.981	n/a	n/a	GoodResponse	1	n/a	n/a	2	39	Blank	Win	True
378.467	1.45	Win2	0.625	n/a	Yes	2.981	n/a	5.0	GoodResponse	1	0.03	377.497	2	39	Feedback	Win	True
379.922	2.981	Win2	0.625	n/a	Yes	2.981	n/a	n/a	GoodResponse	1	0.0	n/a	2	39	ISIslide	Win	True
382.931	0.25	Win2	0.6341	0.0	Yes	2.719	0.031	n/a	GoodResponse	1	n/a	n/a	3	40	Cue	Win	True
383.181	3.95	Win2	0.6341	0.0	Yes	2.719	0.0	n/a	GoodResponse	1	n/a	n/a	3	40	Fixation	Win	True
387.143	0.26	Win2	0.6341	0.0	Yes	2.719	0.012	2.0	GoodResponse	1	0.202	386.345	3	40	Target	Win	True
387.345	0.3	Win2	0.6341	0.0	Yes	2.719	0.012	2.0	GoodResponse	1	0.202	n/a	3	40	ButtonPress	Win	True
387.394	0.44	Win2	0.6341	n/a	Yes	2.719	n/a	n/a	GoodResponse	1	n/a	n/a	3	40	Blank	Win	True
387.829	1.45	Win2	0.6341	n/a	Yes	2.719	n/a	5.0	GoodResponse	1	0.032	386.861	3	40	Feedback	Win	True
389.283	2.719	Win2	0.6341	n/a	Yes	2.719	n/a	n/a	GoodResponse	1	0.0	n/a	3	40	ISIslide	Win	True
392.024	0.25	Win2	0.6429	0.001	Yes	2.776	0.024	n/a	GoodResponse	1	n/a	n/a	4	41	Cue	Win	True
392.275	3.9	Win2	0.6429	0.0	Yes	2.776	0.001	n/a	GoodResponse	1	n/a	n/a	4	41	Fixation	Win	True
396.17	0.27	Win2	0.6429	0.004	Yes	2.776	-0.004	2.0	GoodResponse	1	0.203	395.373	4	41	Target	Win	True
396.373	0.3	Win2	0.6429	0.004	Yes	2.776	-0.004	2.0	GoodResponse	1	0.203	n/a	4	41	ButtonPress	Win	True
396.454	0.43	Win2	0.6429	n/a	Yes	2.776	n/a	n/a	GoodResponse	1	n/a	n/a	4	41	Blank	Win	True
396.872	1.45	Win2	0.6429	n/a	Yes	2.776	n/a	5.0	GoodResponse	1	0.035	395.907	4	41	Feedback	Win	True
398.327	2.776	Win2	0.6429	n/a	Yes	2.776	n/a	n/a	GoodResponse	1	0.0	n/a	4	41	ISIslide	Win	True
401.118	0.25	Control	0.6512	0.0	Yes	2.932	0.018	n/a	GoodResponse	0	n/a	n/a	4	42	Cue	Neutral	True
401.369	3.85	Control	0.6512	0.0	Yes	2.932	0.001	n/a	GoodResponse	0	n/a	n/a	4	42	Fixation	Neutral	True
405.214	0.28	Control	0.6512	0.004	Yes	2.932	-0.004	2.0	GoodResponse	0	0.184	404.398	4	42	Target	Neutral	True
405.398	0.3	Control	0.6512	0.004	Yes	2.932	-0.004	2.0	GoodResponse	0	0.184	n/a	4	42	ButtonPress	Neutral	True
405.498	0.42	Control	0.6512	n/a	Yes	2.932	n/a	n/a	GoodResponse	0	n/a	n/a	4	42	Blank	Neutral	True
405.916	1.45	Control	0.6512	n/a	Yes	2.932	n/a	5.0	GoodResponse	0	0.035	404.951	4	42	Feedback	Neutral	True
407.37	2.932	Control	0.6512	n/a	Yes	2.932	n/a	n/a	GoodResponse	0	0.0	n/a	4	42	ISIslide	Neutral	True
410.329	0.25	Win2	0.6591	0.0	Yes	3.171	0.029	n/a	GoodResponse	1	n/a	n/a	5	43	Cue	Win	True
410.58	4.0	Win2	0.6591	0.0	Yes	3.171	0.001	n/a	GoodResponse	1	n/a	n/a	5	43	Fixation	Win	True
414.575	0.29	Win2	0.6591	0.004	Yes	3.171	-0.004	2.0	GoodResponse	1	0.192	413.767	5	43	Target	Win	True
414.767	0.3	Win2	0.6591	0.004	Yes	3.171	-0.004	2.0	GoodResponse	1	0.192	n/a	5	43	ButtonPress	Win	True
414.876	0.41	Win2	0.6591	n/a	Yes	3.171	n/a	n/a	GoodResponse	1	n/a	n/a	5	43	Blank	Win	True
415.277	1.45	Win2	0.6591	n/a	Yes	3.171	n/a	5.0	GoodResponse	1	0.038	414.315	5	43	Feedback	Win	True
416.732	3.171	Win2	0.6591	n/a	Yes	3.171	n/a	n/a	GoodResponse	1	0.0	n/a	5	43	ISIslide	Win	True
419.925	0.25	Win2	0.6667000000000001	0.0	Yes	2.975	0.025	n/a	GoodResponse	1	n/a	n/a	6	44	Cue	Win	True
420.176	4.0	Win2	0.6667000000000001	0.0	Yes	2.975	0.001	n/a	GoodResponse	1	n/a	n/a	6	44	Fixation	Win	True
424.171	0.29	Win2	0.6667000000000001	0.004	Yes	2.975	-0.004	2.0	GoodResponse	1	0.217	423.388	6	44	Target	Win	True
424.388	0.3	Win2	0.6667000000000001	0.004	Yes	2.975	-0.004	2.0	GoodResponse	1	0.217	n/a	6	44	ButtonPress	Win	True
424.472	0.41	Win2	0.6667000000000001	n/a	Yes	2.975	n/a	n/a	GoodResponse	1	n/a	n/a	6	44	Blank	Win	True
424.873	1.45	Win2	0.6667000000000001	n/a	Yes	2.975	n/a	5.0	GoodResponse	1	0.033	423.906	6	44	Feedback	Win	True
426.327	2.975	Win2	0.6667000000000001	n/a	Yes	2.975	n/a	n/a	GoodResponse	1	0.0	n/a	6	44	ISIslide	Win	True
429.32	0.25	Control	0.6739	0.0	Yes	2.88	0.02	n/a	GoodResponse	0	n/a	n/a	6	45	Cue	Neutral	True
429.57	4.1	Control	0.6739	0.0	Yes	2.88	0.0	n/a	GoodResponse	0	n/a	n/a	6	45	Fixation	Neutral	True
433.666	0.28	Control	0.6739	0.004	Yes	2.88	-0.004	2.0	GoodResponse	0	0.199	432.865	6	45	Target	Neutral	True
433.865	0.3	Control	0.6739	0.004	Yes	2.88	-0.004	2.0	GoodResponse	0	0.199	n/a	6	45	ButtonPress	Neutral	True
433.95	0.42	Control	0.6739	n/a	Yes	2.88	n/a	n/a	GoodResponse	0	n/a	n/a	6	45	Blank	Neutral	True
434.368	1.45	Control	0.6739	n/a	Yes	2.88	n/a	5.0	GoodResponse	0	0.038	433.406	6	45	Feedback	Neutral	True
435.822	2.88	Control	0.6739	n/a	Yes	2.88	n/a	n/a	GoodResponse	0	0.0	n/a	6	45	ISIslide	Neutral	True
438.714	0.25	Lose2	0.6596	0.0	No	3.386	0.014	n/a	PrematurePress	-1	n/a	n/a	5	46	Cue	Loss	True
438.965	4.0	Lose2	0.6596	0.0	No	3.386	0.001	n/a	PrematurePress	-1	n/a	n/a	5	46	Fixation	Loss	True
442.96	0.27	Lose2	0.6596	0.004	No	3.386	-0.004	2.0	PrematurePress	-1	0.031	441.991	5	46	Target	Loss	True
442.991	0.3	Lose2	0.6596	0.004	No	3.386	-0.004	2.0	PrematurePress	-1	0.031	n/a	5	46	ButtonPress	Loss	True
443.245	0.43	Lose2	0.6596	n/a	No	3.386	n/a	n/a	PrematurePress	-1	n/a	n/a	5	46	Blank	Loss	True
443.663	1.45	Lose2	0.6596	n/a	No	3.386	n/a	5.0	PrematurePress	-1	0.016	442.679	5	46	Feedback	Loss	True
445.117	3.386	Lose2	0.6596	n/a	No	3.386	n/a	n/a	PrematurePress	-1	0.0	n/a	5	46	ISIslide	Loss	True
448.527	0.25	Lose2	0.6667000000000001	0.0	Yes	2.673	0.027	n/a	GoodResponse	0	n/a	n/a	5	47	Cue	AvoidedLoss	True
448.778	4.0	Lose2	0.6667000000000001	0.0	Yes	2.673	0.001	n/a	GoodResponse	0	n/a	n/a	5	47	Fixation	AvoidedLoss	True
452.773	0.27	Lose2	0.6667000000000001	0.004	Yes	2.673	-0.004	2.0	GoodResponse	0	0.214	451.987	5	47	Target	AvoidedLoss	True
452.987	0.3	Lose2	0.6667000000000001	0.004	Yes	2.673	-0.004	2.0	GoodResponse	0	0.214	n/a	5	47	ButtonPress	AvoidedLoss	True
453.057	0.43	Lose2	0.6667000000000001	n/a	Yes	2.673	n/a	n/a	GoodResponse	0	n/a	n/a	5	47	Blank	AvoidedLoss	True
453.475	1.45	Lose2	0.6667000000000001	n/a	Yes	2.673	n/a	5.0	GoodResponse	0	0.022	452.497	5	47	Feedback	AvoidedLoss	True
454.93	2.673	Lose2	0.6667000000000001	n/a	Yes	2.673	n/a	n/a	GoodResponse	0	0.0	n/a	5	47	ISIslide	AvoidedLoss	True
457.621	0.25	Lose2	0.6531	0.0	No	3.029	0.021	n/a	NoResponse	-1	n/a	n/a	4	48	Cue	Loss	True
457.872	3.95	Lose2	0.6531	0.0	No	3.029	0.001	2.0	NoResponse	-1	3.818	460.69	4	48	Fixation	Loss	True
461.69	0.3	Lose2	0.6531	0.0	No	3.029	0.001	2.0	NoResponse	-1	3.818	n/a	4	48	ButtonPress	Loss	True
461.817	0.26	Lose2	0.6531	0.004	No	3.029	-0.004	n/a	NoResponse	-1	n/a	n/a	4	48	Target	Loss	True
462.084	0.44	Lose2	0.6531	n/a	No	3.029	n/a	n/a	NoResponse	-1	n/a	n/a	4	48	Blank	Loss	True
462.519	1.45	Lose2	0.6531	n/a	No	3.029	n/a	5.0	NoResponse	-1	0.023	461.542	4	48	Feedback	Loss	True
463.973	3.029	Lose2	0.6531	n/a	No	3.029	n/a	n/a	NoResponse	-1	0.0	n/a	4	48	ISIslide	Loss	True
467.016	0.25	Control	0.66	0.0	Yes	2.884	0.016	n/a	GoodResponse	0	n/a	n/a	4	49	Cue	Neutral	True
467.267	4.0	Control	0.66	0.0	Yes	2.884	0.001	n/a	GoodResponse	0	n/a	n/a	4	49	Fixation	Neutral	True
471.262	0.27	Control	0.66	0.004	Yes	2.884	-0.004	2.0	GoodResponse	0	0.21	470.472	4	49	Target	Neutral	True
471.472	0.3	Control	0.66	0.004	Yes	2.884	-0.004	2.0	GoodResponse	0	0.21	n/a	4	49	ButtonPress	Neutral	True
471.546	0.43	Control	0.66	n/a	Yes	2.884	n/a	n/a	GoodResponse	0	n/a	n/a	4	49	Blank	Neutral	True
471.964	1.45	Control	0.66	n/a	Yes	2.884	n/a	5.0	GoodResponse	0	0.032	470.996	4	49	Feedback	Neutral	True
473.418	2.884	Control	0.66	n/a	Yes	2.884	n/a	n/a	GoodResponse	0	0.0	n/a	4	49	ISIslide	Neutral	True
476.327	0.25	Control	0.6667000000000001	0.0	Yes	2.773	0.027	n/a	GoodResponse	0	n/a	n/a	4	50	Cue	Neutral	True
476.578	4.0	Control	0.6667000000000001	0.0	Yes	2.773	0.001	n/a	GoodResponse	0	n/a	n/a	4	50	Fixation	Neutral	True
480.573	0.27	Control	0.6667000000000001	0.004	Yes	2.773	-0.004	2.0	GoodResponse	0	0.198	479.771	4	50	Target	Neutral	True
480.771	0.3	Control	0.6667000000000001	0.004	Yes	2.773	-0.004	2.0	GoodResponse	0	0.198	n/a	4	50	ButtonPress	Neutral	True
480.857	0.43	Control	0.6667000000000001	n/a	Yes	2.773	n/a	n/a	GoodResponse	0	n/a	n/a	4	50	Blank	Neutral	True
481.275	1.45	Control	0.6667000000000001	n/a	Yes	2.773	n/a	5.0	GoodResponse	0	0.04	480.315	4	50	Feedback	Neutral	True
482.73	2.773	Control	0.6667000000000001	n/a	Yes	2.773	n/a	n/a	GoodResponse	0	0.0	n/a	4	50	ISIslide	Neutral	True
485.521	0.25	Control	0.6731	0.0	Yes	2.729	0.021	n/a	GoodResponse	0	n/a	n/a	4	51	Cue	Neutral	True
485.772	3.95	Control	0.6731	0.0	Yes	2.729	0.001	n/a	GoodResponse	0	n/a	n/a	4	51	Fixation	Neutral	True
489.717	0.26	Control	0.6731	0.004	Yes	2.729	-0.004	2.0	GoodResponse	0	0.208	488.925	4	51	Target	Neutral	True
489.925	0.3	Control	0.6731	0.004	Yes	2.729	-0.004	2.0	GoodResponse	0	0.208	n/a	4	51	ButtonPress	Neutral	True
489.985	0.44	Control	0.6731	n/a	Yes	2.729	n/a	n/a	GoodResponse	0	n/a	n/a	4	51	Blank	Neutral	True
490.419	1.45	Control	0.6731	n/a	Yes	2.729	n/a	5.0	GoodResponse	0	0.032	489.451	4	51	Feedback	Neutral	True
491.874	2.729	Control	0.6731	n/a	Yes	2.729	n/a	n/a	GoodResponse	0	0.0	n/a	4	51	ISIslide	Neutral	True
494.615	0.25	Control	0.6792	0.0	Yes	2.635	0.015	n/a	GoodResponse	0	n/a	n/a	4	52	Cue	Neutral	True
494.866	4.05	Control	0.6792	0.0	Yes	2.635	0.001	n/a	GoodResponse	0	n/a	n/a	4	52	Fixation	Neutral	True
498.911	0.25	Control	0.6792	0.004	Yes	2.635	-0.004	2.0	GoodResponse	0	0.223	498.134	4	52	Target	Neutral	True
499.134	0.3	Control	0.6792	0.004	Yes	2.635	-0.004	2.0	GoodResponse	0	0.223	n/a	4	52	ButtonPress	Neutral	True
499.162	0.45	Control	0.6792	n/a	Yes	2.635	n/a	n/a	GoodResponse	0	n/a	n/a	4	52	Blank	Neutral	True
499.614	1.45	Control	0.6792	n/a	Yes	2.635	n/a	5.0	GoodResponse	0	0.019	498.633	4	52	Feedback	Neutral	True
501.068	2.635	Control	0.6792	n/a	Yes	2.635	n/a	n/a	GoodResponse	0	0.0	n/a	4	52	ISIslide	Neutral	True
503.726	0.25	Win2	0.6851999999999999	0.0	Yes	2.924	0.026	n/a	GoodResponse	1	n/a	n/a	5	53	Cue	Win	True
503.977	4.05	Win2	0.6851999999999999	0.0	Yes	2.924	0.001	n/a	GoodResponse	1	n/a	n/a	5	53	Fixation	Win	True
508.022	0.24	Win2	0.6851999999999999	0.004	Yes	2.924	-0.004	2.0	GoodResponse	1	0.199	507.221	5	53	Target	Win	True
508.221	0.3	Win2	0.6851999999999999	0.004	Yes	2.924	-0.004	2.0	GoodResponse	1	0.199	n/a	5	53	ButtonPress	Win	True
508.273	0.46	Win2	0.6851999999999999	n/a	Yes	2.924	n/a	n/a	GoodResponse	1	n/a	n/a	5	53	Blank	Win	True
508.724	1.45	Win2	0.6851999999999999	n/a	Yes	2.924	n/a	5.0	GoodResponse	1	0.046	507.77	5	53	Feedback	Win	True
510.179	2.924	Win2	0.6851999999999999	n/a	Yes	2.924	n/a	n/a	GoodResponse	1	0.0	n/a	5	53	ISIslide	Win	True
513.121	0.25	Win2	0.6909000000000001	0.0	Yes	2.729	0.021	n/a	GoodResponse	1	n/a	n/a	6	54	Cue	Win	True
513.371	3.95	Win2	0.6909000000000001	0.0	Yes	2.729	0.0	n/a	GoodResponse	1	n/a	n/a	6	54	Fixation	Win	True
517.317	0.23	Win2	0.6909000000000001	0.004	Yes	2.729	-0.004	2.0	GoodResponse	1	0.192	516.509	6	54	Target	Win	True
517.509	0.3	Win2	0.6909000000000001	0.004	Yes	2.729	-0.004	2.0	GoodResponse	1	0.192	n/a	6	54	ButtonPress	Win	True
517.551	0.47	Win2	0.6909000000000001	n/a	Yes	2.729	n/a	n/a	GoodResponse	1	n/a	n/a	6	54	Blank	Win	True
518.019	1.45	Win2	0.6909000000000001	n/a	Yes	2.729	n/a	5.0	GoodResponse	1	0.022	517.041	6	54	Feedback	Win	True
519.473	2.729	Win2	0.6909000000000001	n/a	Yes	2.729	n/a	n/a	GoodResponse	1	0.0	n/a	6	54	ISIslide	Win	True
522.215	0.25	Control	0.6964	0.0	Yes	3.035	0.015	n/a	GoodResponse	0	n/a	n/a	6	55	Cue	Neutral	True
522.465	3.95	Control	0.6964	0.0	Yes	3.035	0.0	n/a	GoodResponse	0	n/a	n/a	6	55	Fixation	Neutral	True
526.427	0.22	Control	0.6964	0.0	Yes	3.035	0.012	2.0	GoodResponse	0	0.187	525.614	6	55	Target	Neutral	True
526.614	0.3	Control	0.6964	0.0	Yes	3.035	0.012	2.0	GoodResponse	0	0.187	n/a	6	55	ButtonPress	Neutral	True
526.645	0.48	Control	0.6964	n/a	Yes	3.035	n/a	n/a	GoodResponse	0	n/a	n/a	6	55	Blank	Neutral	True
527.113	1.45	Control	0.6964	n/a	Yes	3.035	n/a	5.0	GoodResponse	0	0.019	526.132	6	55	Feedback	Neutral	True
528.567	3.035	Control	0.6964	n/a	Yes	3.035	n/a	n/a	GoodResponse	0	0.0	n/a	6	55	ISIslide	Neutral	True
531.626	0.25	Control	0.6842	0.0	No	2.824	0.026	n/a	LatePress	0	n/a	n/a	6	56	Cue	Neutral	True
531.877	3.95	Control	0.6842	0.0	No	2.824	0.001	n/a	LatePress	0	n/a	n/a	6	56	Fixation	Neutral	True
535.822	0.21	Control	0.6842	0.004	No	2.824	-0.004	2.0	LatePress	0	0.21	535.032	6	56	Target	Neutral	True
536.032	0.3	Control	0.6842	0.004	No	2.824	-0.004	2.0	LatePress	0	0.21	n/a	6	56	ButtonPress	Neutral	True
536.039	0.49	Control	0.6842	n/a	No	2.824	n/a	n/a	LatePress	0	n/a	n/a	6	56	Blank	Neutral	True
536.524	1.45	Control	0.6842	n/a	No	2.824	n/a	5.0	LatePress	0	0.018	535.542	6	56	Feedback	Neutral	True
537.978	2.824	Control	0.6842	n/a	No	2.824	n/a	n/a	LatePress	0	0.0	n/a	6	56	ISIslide	Neutral	True
540.82	0.25	Control	0.6724	0.0	No	3.48	0.02	n/a	NoResponse	0	n/a	n/a	6	57	Cue	Neutral	True
541.071	4.0	Control	0.6724	0.0	No	3.48	0.001	n/a	NoResponse	0	n/a	n/a	6	57	Fixation	Neutral	True
545.066	0.2	Control	0.6724	0.004	No	3.48	-0.004	2.0	NoResponse	0	0.248	544.314	6	57	Target	Neutral	True
545.267	0.5	Control	0.6724	n/a	No	3.48	n/a	n/a	NoResponse	0	n/a	n/a	6	57	Blank	Neutral	True
545.314	0.3	Control	0.6724	0.004	No	3.48	-0.004	2.0	NoResponse	0	0.248	n/a	6	57	ButtonPress	Neutral	True
545.768	1.45	Control	0.6724	n/a	No	3.48	n/a	5.0	NoResponse	0	0.001	544.769	6	57	Feedback	Neutral	True
547.223	3.48	Control	0.6724	n/a	No	3.48	n/a	n/a	NoResponse	0	0.0	n/a	6	57	ISIslide	Neutral	True
550.717	0.25	Win2	0.6779999999999999	0.0	Yes	2.733	0.017	n/a	GoodResponse	1	n/a	n/a	7	58	Cue	Win	True
550.967	4.05	Win2	0.6779999999999999	0.0	Yes	2.733	0.0	n/a	GoodResponse	1	n/a	n/a	7	58	Fixation	Win	True
555.013	0.19	Win2	0.6779999999999999	0.004	Yes	2.733	-0.004	2.0	GoodResponse	1	0.139	554.152	7	58	Target	Win	True
555.152	0.3	Win2	0.6779999999999999	0.004	Yes	2.733	-0.004	2.0	GoodResponse	1	0.139	n/a	7	58	ButtonPress	Win	True
555.213	0.51	Win2	0.6779999999999999	n/a	Yes	2.733	n/a	n/a	GoodResponse	1	n/a	n/a	7	58	Blank	Win	True
555.715	1.45	Win2	0.6779999999999999	n/a	Yes	2.733	n/a	5.0	GoodResponse	1	0.009	554.724	7	58	Feedback	Win	True
557.169	2.733	Win2	0.6779999999999999	n/a	Yes	2.733	n/a	n/a	GoodResponse	1	0.0	n/a	7	58	ISIslide	Win	True
559.928	0.25	Lose2	0.6667000000000001	0.0	No	2.672	0.028	n/a	NoResponse	-1	n/a	n/a	6	59	Cue	Loss	True
560.178	4.0	Lose2	0.6667000000000001	0.0	No	2.672	0.0	n/a	NoResponse	-1	n/a	n/a	6	59	Fixation	Loss	True
564.174	0.18	Lose2	0.6667000000000001	0.004	No	2.672	-0.004	2.0	NoResponse	-1	0.19	563.364	6	59	Target	Loss	True
564.358	0.52	Lose2	0.6667000000000001	n/a	No	2.672	n/a	n/a	NoResponse	-1	n/a	n/a	6	59	Blank	Loss	True
564.364	0.3	Lose2	0.6667000000000001	0.004	No	2.672	-0.004	2.0	NoResponse	-1	0.19	n/a	6	59	ButtonPress	Loss	True
564.876	1.45	Lose2	0.6667000000000001	n/a	No	2.672	n/a	5.0	NoResponse	-1	0.03	563.906	6	59	Feedback	Loss	True
566.33	2.672	Lose2	0.6667000000000001	n/a	No	2.672	n/a	n/a	NoResponse	-1	0.0	n/a	6	59	ISIslide	Loss	True
569.022	0.25	Control	0.6557	0.0	No	2.678	0.022	n/a	NoResponse	0	n/a	n/a	6	60	Cue	Neutral	True
569.272	4.0	Control	0.6557	0.0	No	2.678	0.0	n/a	NoResponse	0	n/a	n/a	6	60	Fixation	Neutral	True
573.268	0.17	Control	0.6557	0.004	No	2.678	-0.004	2.0	NoResponse	0	0.227	572.495	6	60	Target	Neutral	True
573.451	0.53	Control	0.6557	n/a	No	2.678	n/a	n/a	NoResponse	0	n/a	n/a	6	60	Blank	Neutral	True
573.495	0.3	Control	0.6557	0.004	No	2.678	-0.004	2.0	NoResponse	0	0.227	n/a	6	60	ButtonPress	Neutral	True
573.97	1.45	Control	0.6557	n/a	No	2.678	n/a	5.0	NoResponse	0	0.027	572.997	6	60	Feedback	Neutral	True
575.424	2.678	Control	0.6557	n/a	No	2.678	n/a	n/a	NoResponse	0	0.0	n/a	6	60	ISIslide	Neutral	True
578.115	0.25	Lose2	0.6452	0.001	No	2.985	0.015	n/a	NoResponse	-1	n/a	n/a	5	61	Cue	Loss	True
578.366	4.0	Lose2	0.6452	0.0	No	2.985	0.001	n/a	NoResponse	-1	n/a	n/a	5	61	Fixation	Loss	True
582.361	0.17	Lose2	0.6452	0.004	No	2.985	-0.004	2.0	NoResponse	-1	0.203	581.564	5	61	Target	Loss	True
582.545	0.53	Lose2	0.6452	n/a	No	2.985	n/a	n/a	NoResponse	-1	n/a	n/a	5	61	Blank	Loss	True
582.564	0.3	Lose2	0.6452	0.004	No	2.985	-0.004	2.0	NoResponse	-1	0.203	n/a	5	61	ButtonPress	Loss	True
583.064	1.45	Lose2	0.6452	n/a	No	2.985	n/a	5.0	NoResponse	-1	0.023	582.087	5	61	Feedback	Loss	True
584.518	2.985	Lose2	0.6452	n/a	No	2.985	n/a	n/a	NoResponse	-1	0.0	n/a	5	61	ISIslide	Loss	True
587.527	0.25	Lose2	0.6349	0.0	No	2.873	0.027	n/a	NoResponse	-1	n/a	n/a	4	62	Cue	Loss	True
587.778	3.9	Lose2	0.6349	0.0	No	2.873	0.001	2.0	NoResponse	-1	3.889	590.667	4	62	Fixation	Loss	True
591.667	0.3	Lose2	0.6349	0.0	No	2.873	0.001	2.0	NoResponse	-1	3.889	n/a	4	62	ButtonPress	Loss	True
591.673	0.18	Lose2	0.6349	0.004	No	2.873	-0.004	n/a	NoResponse	-1	n/a	n/a	4	62	Target	Loss	True
591.857	0.52	Lose2	0.6349	n/a	No	2.873	n/a	n/a	NoResponse	-1	n/a	n/a	4	62	Blank	Loss	True
592.375	1.45	Lose2	0.6349	n/a	No	2.873	n/a	5.0	NoResponse	-1	0.03	591.405	4	62	Feedback	Loss	True
593.829	2.873	Lose2	0.6349	n/a	No	2.873	n/a	n/a	NoResponse	-1	0.0	n/a	4	62	ISIslide	Loss	True
596.721	0.25	Lose2	0.625	0.0	No	2.629	0.021	n/a	NoResponse	-1	n/a	n/a	3	63	Cue	Loss	True
596.972	4.05	Lose2	0.625	0.0	No	2.629	0.001	n/a	NoResponse	-1	n/a	n/a	3	63	Fixation	Loss	True
601.017	0.19	Lose2	0.625	0.004	No	2.629	-0.004	2.0	NoResponse	-1	0.21	600.227	3	63	Target	Loss	True
601.218	0.51	Lose2	0.625	n/a	No	2.629	n/a	n/a	NoResponse	-1	n/a	n/a	3	63	Blank	Loss	True
601.227	0.3	Lose2	0.625	0.004	No	2.629	-0.004	2.0	NoResponse	-1	0.21	n/a	3	63	ButtonPress	Loss	True
601.719	1.45	Lose2	0.625	n/a	No	2.629	n/a	5.0	NoResponse	-1	0.005	600.724	3	63	Feedback	Loss	True
603.174	2.629	Lose2	0.625	n/a	No	2.629	n/a	n/a	NoResponse	-1	0.0	n/a	3	63	ISIslide	Loss	True
605.815	0.25	Win2	0.6308	0.0	Yes	3.135	0.015	n/a	GoodResponse	1	n/a	n/a	4	64	Cue	Win	True
606.066	4.15	Win2	0.6308	0.0	Yes	3.135	0.001	n/a	GoodResponse	1	n/a	n/a	4	64	Fixation	Win	True
610.212	0.2	Win2	0.6308	0.003	Yes	3.135	-0.003	2.0	GoodResponse	1	0.196	609.408	4	64	Target	Win	True
610.408	0.3	Win2	0.6308	0.003	Yes	3.135	-0.003	2.0	GoodResponse	1	0.196	n/a	4	64	ButtonPress	Win	True
610.412	0.5	Win2	0.6308	n/a	Yes	3.135	n/a	n/a	GoodResponse	1	n/a	n/a	4	64	Blank	Win	True
610.914	1.45	Win2	0.6308	n/a	Yes	3.135	n/a	5.0	GoodResponse	1	0.036	609.95	4	64	Feedback	Win	True
612.368	3.135	Win2	0.6308	n/a	Yes	3.135	n/a	n/a	GoodResponse	1	0.0	n/a	4	64	ISIslide	Win	True
615.528	0.25	Control	0.6364	0.0	Yes	2.772	0.028	n/a	GoodResponse	0	n/a	n/a	4	65	Cue	Neutral	True
615.778	4.0	Control	0.6364	0.0	Yes	2.772	0.0	n/a	GoodResponse	0	n/a	n/a	4	65	Fixation	Neutral	True
619.774	0.21	Control	0.6364	0.004	Yes	2.772	-0.004	2.0	GoodResponse	0	0.199	618.973	4	65	Target	Neutral	True
619.973	0.3	Control	0.6364	0.004	Yes	2.772	-0.004	2.0	GoodResponse	0	0.199	n/a	4	65	ButtonPress	Neutral	True
619.991	0.49	Control	0.6364	n/a	Yes	2.772	n/a	n/a	GoodResponse	0	n/a	n/a	4	65	Blank	Neutral	True
620.476	1.45	Control	0.6364	n/a	Yes	2.772	n/a	5.0	GoodResponse	0	0.02	619.496	4	65	Feedback	Neutral	True
621.93	2.772	Control	0.6364	n/a	Yes	2.772	n/a	n/a	GoodResponse	0	0.0	n/a	4	65	ISIslide	Neutral	True
624.722	0.25	Win2	0.6418	0.0	Yes	2.778	0.022	n/a	GoodResponse	1	n/a	n/a	5	66	Cue	Win	True
624.972	3.9	Win2	0.6418	0.001	Yes	2.778	0.0	n/a	GoodResponse	1	n/a	n/a	5	66	Fixation	Win	True
628.884	0.22	Win2	0.6418	0.0	Yes	2.778	0.012	2.0	GoodResponse	1	0.199	628.083	5	66	Target	Win	True
629.083	0.3	Win2	0.6418	0.0	Yes	2.778	0.012	2.0	GoodResponse	1	0.199	n/a	5	66	ButtonPress	Win	True
629.102	0.48	Win2	0.6418	n/a	Yes	2.778	n/a	n/a	GoodResponse	1	n/a	n/a	5	66	Blank	Win	True
629.57	1.45	Win2	0.6418	n/a	Yes	2.778	n/a	5.0	GoodResponse	1	0.017	628.587	5	66	Feedback	Win	True
631.024	2.778	Win2	0.6418	n/a	Yes	2.778	n/a	n/a	GoodResponse	1	0.0	n/a	5	66	ISIslide	Win	True
633.816	0.25	Control	0.6470999999999999	0.0	Yes	2.734	0.016	n/a	GoodResponse	0	n/a	n/a	5	67	Cue	Neutral	True
634.066	3.95	Control	0.6470999999999999	0.0	Yes	2.734	0.0	n/a	GoodResponse	0	n/a	n/a	5	67	Fixation	Neutral	True
638.012	0.23	Control	0.6470999999999999	0.004	Yes	2.734	-0.004	2.0	GoodResponse	0	0.172	637.184	5	67	Target	Neutral	True
638.184	0.3	Control	0.6470999999999999	0.004	Yes	2.734	-0.004	2.0	GoodResponse	0	0.172	n/a	5	67	ButtonPress	Neutral	True
638.246	0.47	Control	0.6470999999999999	n/a	Yes	2.734	n/a	n/a	GoodResponse	0	n/a	n/a	5	67	Blank	Neutral	True
638.714	1.45	Control	0.6470999999999999	n/a	Yes	2.734	n/a	5.0	GoodResponse	0	0.008	637.722	5	67	Feedback	Neutral	True
640.168	2.734	Control	0.6470999999999999	n/a	Yes	2.734	n/a	n/a	GoodResponse	0	0.0	n/a	5	67	ISIslide	Neutral	True
642.926	0.25	Win2	0.6522	0.0	Yes	3.074	0.026	n/a	GoodResponse	1	n/a	n/a	6	68	Cue	Win	True
643.177	4.0	Win2	0.6522	0.0	Yes	3.074	0.001	n/a	GoodResponse	1	n/a	n/a	6	68	Fixation	Win	True
647.172	0.24	Win2	0.6522	0.004	Yes	3.074	-0.004	2.0	GoodResponse	1	0.198	646.37	6	68	Target	Win	True
647.37	0.3	Win2	0.6522	0.004	Yes	3.074	-0.004	2.0	GoodResponse	1	0.198	n/a	6	68	ButtonPress	Win	True
647.423	0.46	Win2	0.6522	n/a	Yes	3.074	n/a	n/a	GoodResponse	1	n/a	n/a	6	68	Blank	Win	True
647.874	1.45	Win2	0.6522	n/a	Yes	3.074	n/a	5.0	GoodResponse	1	0.03	646.904	6	68	Feedback	Win	True
649.329	3.074	Win2	0.6522	n/a	Yes	3.074	n/a	n/a	GoodResponse	1	0.0	n/a	6	68	ISIslide	Win	True
652.421	0.25	Win2	0.6570999999999999	0.0	Yes	3.229	0.021	n/a	GoodResponse	1	n/a	n/a	7	69	Cue	Win	True
652.672	3.95	Win2	0.6570999999999999	0.0	Yes	3.229	0.001	n/a	GoodResponse	1	n/a	n/a	7	69	Fixation	Win	True
656.617	0.25	Win2	0.6570999999999999	0.004	Yes	3.229	-0.004	2.0	GoodResponse	1	0.192	655.809	7	69	Target	Win	True
656.809	0.3	Win2	0.6570999999999999	0.004	Yes	3.229	-0.004	2.0	GoodResponse	1	0.192	n/a	7	69	ButtonPress	Win	True
656.868	0.45	Win2	0.6570999999999999	n/a	Yes	3.229	n/a	n/a	GoodResponse	1	n/a	n/a	7	69	Blank	Win	True
657.319	1.45	Win2	0.6570999999999999	n/a	Yes	3.229	n/a	5.0	GoodResponse	1	0.04	656.359	7	69	Feedback	Win	True
658.774	3.229	Win2	0.6570999999999999	n/a	Yes	3.229	n/a	n/a	GoodResponse	1	0.0	n/a	7	69	ISIslide	Win	True
662.017	0.25	Lose2	0.662	0.0	Yes	3.033	0.017	n/a	GoodResponse	0	n/a	n/a	7	70	Cue	AvoidedLoss	True
662.268	4.05	Lose2	0.662	0.0	Yes	3.033	0.001	n/a	GoodResponse	0	n/a	n/a	7	70	Fixation	AvoidedLoss	True
666.313	0.25	Lose2	0.662	0.004	Yes	3.033	-0.004	2.0	GoodResponse	0	0.191	665.504	7	70	Target	AvoidedLoss	True
666.504	0.3	Lose2	0.662	0.004	Yes	3.033	-0.004	2.0	GoodResponse	0	0.191	n/a	7	70	ButtonPress	AvoidedLoss	True
666.564	0.45	Lose2	0.662	n/a	Yes	3.033	n/a	n/a	GoodResponse	0	n/a	n/a	7	70	Blank	AvoidedLoss	True
667.015	1.45	Lose2	0.662	n/a	Yes	3.033	n/a	5.0	GoodResponse	0	0.026	666.041	7	70	Feedback	AvoidedLoss	True
668.469	3.033	Lose2	0.662	n/a	Yes	3.033	n/a	n/a	GoodResponse	0	0.0	n/a	7	70	ISIslide	AvoidedLoss	True
671.529	0.25	Win2	0.6667000000000001	0.0	Yes	2.721	0.029	n/a	GoodResponse	1	n/a	n/a	8	71	Cue	Win	True
671.779	4.05	Win2	0.6667000000000001	0.0	Yes	2.721	0.0	n/a	GoodResponse	1	n/a	n/a	8	71	Fixation	Win	True
675.825	0.25	Win2	0.6667000000000001	0.004	Yes	2.721	-0.004	2.0	GoodResponse	1	0.159	674.984	8	71	Target	Win	True
675.984	0.3	Win2	0.6667000000000001	0.004	Yes	2.721	-0.004	2.0	GoodResponse	1	0.159	n/a	8	71	ButtonPress	Win	True
676.076	0.45	Win2	0.6667000000000001	n/a	Yes	2.721	n/a	n/a	GoodResponse	1	n/a	n/a	8	71	Blank	Win	True
676.527	1.45	Win2	0.6667000000000001	n/a	Yes	2.721	n/a	5.0	GoodResponse	1	0.014	675.541	8	71	Feedback	Win	True
677.981	2.721	Win2	0.6667000000000001	n/a	Yes	2.721	n/a	n/a	GoodResponse	1	0.0	n/a	8	71	ISIslide	Win	True
680.723	0.25	Win2	0.6712	0.0	Yes	2.777	0.023	n/a	GoodResponse	1	n/a	n/a	9	72	Cue	Win	True
680.974	4.1	Win2	0.6712	0.0	Yes	2.777	0.001	n/a	GoodResponse	1	n/a	n/a	9	72	Fixation	Win	True
685.069	0.24	Win2	0.6712	0.004	Yes	2.777	-0.004	2.0	GoodResponse	1	0.198	684.267	9	72	Target	Win	True
685.267	0.3	Win2	0.6712	0.004	Yes	2.777	-0.004	2.0	GoodResponse	1	0.198	n/a	9	72	ButtonPress	Win	True
685.32	0.46	Win2	0.6712	n/a	Yes	2.777	n/a	n/a	GoodResponse	1	n/a	n/a	9	72	Blank	Win	True
685.771	1.45	Win2	0.6712	n/a	Yes	2.777	n/a	5.0	GoodResponse	1	0.043	684.814	9	72	Feedback	Win	True
687.226	2.777	Win2	0.6712	n/a	Yes	2.777	n/a	n/a	GoodResponse	1	0.0	n/a	9	72	ISIslide	Win	True
690.017	0.25	Win2	0.6757	0.0	Yes	2.683	0.017	n/a	GoodResponse	1	n/a	n/a	10	73	Cue	Win	True
690.268	4.0	Win2	0.6757	0.0	Yes	2.683	0.001	n/a	GoodResponse	1	n/a	n/a	10	73	Fixation	Win	True
694.263	0.23	Win2	0.6757	0.004	Yes	2.683	-0.004	2.0	GoodResponse	1	0.161	693.424	10	73	Target	Win	True
694.424	0.3	Win2	0.6757	0.004	Yes	2.683	-0.004	2.0	GoodResponse	1	0.161	n/a	10	73	ButtonPress	Win	True
694.497	0.47	Win2	0.6757	n/a	Yes	2.683	n/a	n/a	GoodResponse	1	n/a	n/a	10	73	Blank	Win	True
694.966	1.45	Win2	0.6757	n/a	Yes	2.683	n/a	5.0	GoodResponse	1	0.03	693.996	10	73	Feedback	Win	True
696.42	2.683	Win2	0.6757	n/a	Yes	2.683	n/a	n/a	GoodResponse	1	0.0	n/a	10	73	ISIslide	Win	True
699.128	0.25	Lose2	0.6667000000000001	0.0	No	2.622	0.028	n/a	LatePress	-1	n/a	n/a	9	74	Cue	Loss	True
699.379	4.05	Lose2	0.6667000000000001	0.0	No	2.622	0.001	n/a	LatePress	-1	n/a	n/a	9	74	Fixation	Loss	True
703.424	0.22	Lose2	0.6667000000000001	0.004	No	2.622	-0.004	2.0	LatePress	-1	0.221	702.645	9	74	Target	Loss	True
703.645	0.3	Lose2	0.6667000000000001	0.004	No	2.622	-0.004	2.0	LatePress	-1	0.221	n/a	9	74	ButtonPress	Loss	True
703.658	0.48	Lose2	0.6667000000000001	n/a	No	2.622	n/a	n/a	LatePress	-1	n/a	n/a	9	74	Blank	Loss	True
704.126	1.45	Lose2	0.6667000000000001	n/a	No	2.622	n/a	5.0	LatePress	-1	0.005	703.131	9	74	Feedback	Loss	True
705.581	2.622	Lose2	0.6667000000000001	n/a	No	2.622	n/a	n/a	LatePress	-1	0.0	n/a	9	74	ISIslide	Loss	True
708.222	0.25	Lose2	0.6711	0.0	Yes	2.928	0.022	n/a	GoodResponse	0	n/a	n/a	9	75	Cue	AvoidedLoss	True
708.473	3.95	Lose2	0.6711	0.0	Yes	2.928	0.001	n/a	GoodResponse	0	n/a	n/a	9	75	Fixation	AvoidedLoss	True
712.418	0.21	Lose2	0.6711	0.004	Yes	2.928	-0.004	2.0	GoodResponse	0	0.179	711.597	9	75	Target	AvoidedLoss	True
712.597	0.3	Lose2	0.6711	0.004	Yes	2.928	-0.004	2.0	GoodResponse	0	0.179	n/a	9	75	ButtonPress	AvoidedLoss	True
712.635	0.49	Lose2	0.6711	n/a	Yes	2.928	n/a	n/a	GoodResponse	0	n/a	n/a	9	75	Blank	AvoidedLoss	True
713.12	1.45	Lose2	0.6711	n/a	Yes	2.928	n/a	5.0	GoodResponse	0	0.011	712.131	9	75	Feedback	AvoidedLoss	True
714.574	2.928	Lose2	0.6711	n/a	Yes	2.928	n/a	n/a	GoodResponse	0	0.0	n/a	9	75	ISIslide	AvoidedLoss	True
717.516	0.25	Control	0.6753	0.001	Yes	3.234	0.016	n/a	GoodResponse	0	n/a	n/a	9	76	Cue	Neutral	True
717.767	4.05	Control	0.6753	0.0	Yes	3.234	0.001	n/a	GoodResponse	0	n/a	n/a	9	76	Fixation	Neutral	True
721.813	0.2	Control	0.6753	0.003	Yes	3.234	-0.003	2.0	GoodResponse	0	0.189	721.002	9	76	Target	Neutral	True
722.002	0.3	Control	0.6753	0.003	Yes	3.234	-0.003	2.0	GoodResponse	0	0.189	n/a	9	76	ButtonPress	Neutral	True
722.013	0.5	Control	0.6753	n/a	Yes	3.234	n/a	n/a	GoodResponse	0	n/a	n/a	9	76	Blank	Neutral	True
722.515	1.45	Control	0.6753	n/a	Yes	3.234	n/a	5.0	GoodResponse	0	0.026	721.541	9	76	Feedback	Neutral	True
723.969	3.234	Control	0.6753	n/a	Yes	3.234	n/a	n/a	GoodResponse	0	0.0	n/a	9	76	ISIslide	Neutral	True
727.229	0.25	Lose2	0.6795	0.0	Yes	2.571	0.029	n/a	GoodResponse	0	n/a	n/a	9	77	Cue	AvoidedLoss	True
727.48	3.95	Lose2	0.6795	0.0	Yes	2.571	0.001	n/a	GoodResponse	0	n/a	n/a	9	77	Fixation	AvoidedLoss	True
731.425	0.19	Lose2	0.6795	0.004	Yes	2.571	-0.004	2.0	GoodResponse	0	0.182	730.607	9	77	Target	AvoidedLoss	True
731.607	0.3	Lose2	0.6795	0.004	Yes	2.571	-0.004	2.0	GoodResponse	0	0.182	n/a	9	77	ButtonPress	AvoidedLoss	True
731.625	0.51	Lose2	0.6795	n/a	Yes	2.571	n/a	n/a	GoodResponse	0	n/a	n/a	9	77	Blank	AvoidedLoss	True
732.127	1.45	Lose2	0.6795	n/a	Yes	2.571	n/a	5.0	GoodResponse	0	0.005	731.132	9	77	Feedback	AvoidedLoss	True
733.581	2.571	Lose2	0.6795	n/a	Yes	2.571	n/a	n/a	GoodResponse	0	0.0	n/a	9	77	ISIslide	AvoidedLoss	True
