onset	duration	cue_type	current_mean_accuracy	duration_error	is_hit	isi_adjusted	onset_delay	response	response_type	reward	rt	rt_time	total_reward	trial_number	trial_phase	trial_type	one_press
11.11	0.25	Control	1.0	0.0	Yes	2.94	0.01	n/a	GoodResponse	0	n/a	n/a	0	0	Cue	Neutral	True
11.361	3.85	Control	1.0	0.0	Yes	2.94	0.001	n/a	GoodResponse	0	n/a	n/a	0	0	Fixation	Neutral	True
15.206	0.4	Control	1.0	0.004	Yes	2.94	-0.004	4.0	GoodResponse	0	0.223	14.429	0	0	Target	Neutral	True
15.429	0.3	Control	1.0	0.004	Yes	2.94	-0.004	4.0	GoodResponse	0	0.223	n/a	0	0	ButtonPress	Neutral	True
15.607	0.3	Control	1.0	n/a	Yes	2.94	n/a	n/a	GoodResponse	0	n/a	n/a	0	0	Blank	Neutral	True
15.908	1.45	Control	1.0	n/a	Yes	2.94	n/a	5.0	GoodResponse	0	0.018	14.926	0	0	Feedback	Neutral	True
17.362	2.94	Control	1.0	n/a	Yes	2.94	n/a	n/a	GoodResponse	0	0.0	n/a	0	0	ISIslide	Neutral	True
20.321	0.25	Lose2	1.0	0.0	Yes	2.779	0.021	n/a	GoodResponse	0	n/a	n/a	0	1	Cue	AvoidedLoss	True
20.572	4.0	Lose2	1.0	0.0	Yes	2.779	0.001	n/a	GoodResponse	0	n/a	n/a	0	1	Fixation	AvoidedLoss	True
24.567	0.39	Lose2	1.0	0.004	Yes	2.779	-0.004	4.0	GoodResponse	0	0.254	23.821	0	1	Target	AvoidedLoss	True
24.821	0.3	Lose2	1.0	0.004	Yes	2.779	-0.004	4.0	GoodResponse	0	0.254	n/a	0	1	ButtonPress	AvoidedLoss	True
24.969	0.31	Lose2	1.0	n/a	Yes	2.779	n/a	n/a	GoodResponse	0	n/a	n/a	0	1	Blank	AvoidedLoss	True
25.269	1.45	Lose2	1.0	n/a	Yes	2.779	n/a	5.0	GoodResponse	0	0.023	24.292	0	1	Feedback	AvoidedLoss	True
26.724	2.779	Lose2	1.0	n/a	Yes	2.779	n/a	n/a	GoodResponse	0	0.0	n/a	0	1	ISIslide	AvoidedLoss	True
29.515	0.25	Control	1.0	0.001	Yes	2.585	0.015	n/a	GoodResponse	0	n/a	n/a	0	2	Cue	Neutral	True
29.766	4.1	Control	1.0	0.0	Yes	2.585	0.001	n/a	GoodResponse	0	n/a	n/a	0	2	Fixation	Neutral	True
33.862	0.38	Control	1.0	0.003	Yes	2.585	-0.003	4.0	GoodResponse	0	0.197	33.059	0	2	Target	Neutral	True
34.059	0.3	Control	1.0	0.003	Yes	2.585	-0.003	4.0	GoodResponse	0	0.197	n/a	0	2	ButtonPress	Neutral	True
34.246	0.32	Control	1.0	n/a	Yes	2.585	n/a	n/a	GoodResponse	0	n/a	n/a	0	2	Blank	Neutral	True
34.564	1.45	Control	1.0	n/a	Yes	2.585	n/a	5.0	GoodResponse	0	0.045	33.609	0	2	Feedback	Neutral	True
36.018	2.585	Control	1.0	n/a	Yes	2.585	n/a	4.0	GoodResponse	0	1.808	n/a	0	2	ISIslide	Neutral	True
38.609	0.25	Win2	0.75	0.001	No	2.841	0.009	n/a	NoResponse	0	n/a	n/a	0	3	Cue	MissedWin	False
38.86	3.95	Win2	0.75	0.0	No	2.841	0.001	4.0	NoResponse	0	3.769	41.629	0	3	Fixation	MissedWin	False
42.629	0.3	Win2	0.75	0.0	No	2.841	0.001	4.0	NoResponse	0	3.769	n/a	0	3	ButtonPress	MissedWin	False
42.805	0.37	Win2	0.75	0.004	No	2.841	-0.004	4.0	NoResponse	0	0.542	42.347	0	3	Target	MissedWin	False
43.19	0.33	Win2	0.75	n/a	No	2.841	n/a	n/a	NoResponse	0	n/a	n/a	0	3	Blank	MissedWin	False
43.347	0.3	Win2	0.75	0.004	No	2.841	-0.004	4.0	NoResponse	0	0.542	n/a	0	3	ButtonPress	MissedWin	False
43.507	1.45	Win2	0.75	n/a	No	2.841	n/a	5.0	NoResponse	0	0.029	42.536	0	3	Feedback	MissedWin	False
44.962	2.841	Win2	0.75	n/a	No	2.841	n/a	n/a	NoResponse	0	0.0	n/a	0	3	ISIslide	MissedWin	False
47.82	0.25	Win2	0.8	0.0	Yes	3.28	0.02	n/a	GoodResponse	1	n/a	n/a	1	4	Cue	Win	True
48.071	4.0	Win2	0.8	0.0	Yes	3.28	0.001	n/a	GoodResponse	1	n/a	n/a	1	4	Fixation	Win	True
52.066	0.36	Win2	0.8	0.004	Yes	3.28	-0.004	4.0	GoodResponse	1	0.348	51.414	1	4	Target	Win	True
52.414	0.3	Win2	0.8	0.004	Yes	3.28	-0.004	4.0	GoodResponse	1	0.348	n/a	1	4	ButtonPress	Win	True
52.434	0.34	Win2	0.8	n/a	Yes	3.28	n/a	n/a	GoodResponse	1	n/a	n/a	1	4	Blank	Win	True
52.769	1.45	Win2	0.8	n/a	Yes	3.28	n/a	5.0	GoodResponse	1	0.035	51.804	1	4	Feedback	Win	True
54.223	3.28	Win2	0.8	n/a	Yes	3.28	n/a	n/a	GoodResponse	1	0.0	n/a	1	4	ISIslide	Win	True
57.516	0.25	Win2	0.8332999999999999	0.0	Yes	2.784	0.016	n/a	GoodResponse	1	n/a	n/a	2	5	Cue	Win	True
57.767	4.0	Win2	0.8332999999999999	0.0	Yes	2.784	0.001	n/a	GoodResponse	1	n/a	n/a	2	5	Fixation	Win	True
61.762	0.35	Win2	0.8332999999999999	0.004	Yes	2.784	-0.004	4.0	GoodResponse	1	0.194	60.956	2	5	Target	Win	True
61.956	0.3	Win2	0.8332999999999999	0.004	Yes	2.784	-0.004	4.0	GoodResponse	1	0.194	n/a	2	5	ButtonPress	Win	True
62.113	0.35	Win2	0.8332999999999999	n/a	Yes	2.784	n/a	n/a	GoodResponse	1	n/a	n/a	2	5	Blank	Win	True
62.464	1.45	Win2	0.8332999999999999	n/a	Yes	2.784	n/a	5.0	GoodResponse	1	0.047	61.511	2	5	Feedback	Win	True
63.919	2.784	Win2	0.8332999999999999	n/a	Yes	2.784	n/a	n/a	GoodResponse	1	0.0	n/a	2	5	ISIslide	Win	True
66.727	0.25	Lose2	0.8571	0.0	Yes	2.723	0.027	n/a	GoodResponse	0	n/a	n/a	2	6	Cue	AvoidedLoss	True
66.978	3.95	Lose2	0.8571	0.0	Yes	2.723	0.001	n/a	GoodResponse	0	n/a	n/a	2	6	Fixation	AvoidedLoss	True
70.923	0.34	Lose2	0.8571	0.004	Yes	2.723	-0.004	4.0	GoodResponse	0	0.297	70.22	2	6	Target	AvoidedLoss	True
71.22	0.3	Lose2	0.8571	0.004	Yes	2.723	-0.004	4.0	GoodResponse	0	0.297	n/a	2	6	ButtonPress	AvoidedLoss	True
71.274	0.36	Lose2	0.8571	n/a	Yes	2.723	n/a	n/a	GoodResponse	0	n/a	n/a	2	6	Blank	AvoidedLoss	True
71.625	1.45	Lose2	0.8571	n/a	Yes	2.723	n/a	5.0	GoodResponse	0	0.008	70.633	2	6	Feedback	AvoidedLoss	True
73.079	2.723	Lose2	0.8571	n/a	Yes	2.723	n/a	n/a	GoodResponse	0	0.0	n/a	2	6	ISIslide	AvoidedLoss	True
75.821	0.25	Lose2	0.875	0.0	Yes	4.029	0.021	n/a	GoodResponse	0	n/a	n/a	2	7	Cue	AvoidedLoss	True
76.072	4.05	Lose2	0.875	0.0	Yes	4.029	0.001	n/a	GoodResponse	0	n/a	n/a	2	7	Fixation	AvoidedLoss	True
80.117	0.33	Lose2	0.875	0.004	Yes	4.029	-0.004	4.0	GoodResponse	0	0.251	79.368	2	7	Target	AvoidedLoss	True
80.368	0.3	Lose2	0.875	0.004	Yes	4.029	-0.004	4.0	GoodResponse	0	0.251	n/a	2	7	ButtonPress	AvoidedLoss	True
80.452	0.37	Lose2	0.875	n/a	Yes	4.029	n/a	n/a	GoodResponse	0	n/a	n/a	2	7	Blank	AvoidedLoss	True
80.819	1.45	Lose2	0.875	n/a	Yes	4.029	n/a	5.0	GoodResponse	0	0.034	79.853	2	7	Feedback	AvoidedLoss	True
82.274	4.029	Lose2	0.875	n/a	Yes	4.029	n/a	n/a	GoodResponse	0	0.0	n/a	2	7	ISIslide	AvoidedLoss	True
86.319	0.25	Lose2	0.8889	0.0	Yes	3.031	0.019	n/a	GoodResponse	0	n/a	n/a	2	8	Cue	AvoidedLoss	True
86.57	3.95	Lose2	0.8889	0.0	Yes	3.031	0.001	n/a	GoodResponse	0	n/a	n/a	2	8	Fixation	AvoidedLoss	True
90.515	0.32	Lose2	0.8889	0.004	Yes	3.031	-0.004	4.0	GoodResponse	0	0.274	89.789	2	8	Target	AvoidedLoss	True
90.789	0.3	Lose2	0.8889	0.004	Yes	3.031	-0.004	4.0	GoodResponse	0	0.274	n/a	2	8	ButtonPress	AvoidedLoss	True
90.849	0.38	Lose2	0.8889	n/a	Yes	3.031	n/a	n/a	GoodResponse	0	n/a	n/a	2	8	Blank	AvoidedLoss	True
91.217	1.45	Lose2	0.8889	n/a	Yes	3.031	n/a	5.0	GoodResponse	0	0.027	90.244	2	8	Feedback	AvoidedLoss	True
92.672	3.031	Lose2	0.8889	n/a	Yes	3.031	n/a	n/a	GoodResponse	0	0.0	n/a	2	8	ISIslide	AvoidedLoss	True
95.731	0.25	Lose2	0.9	0.0	Yes	3.119	0.031	n/a	GoodResponse	0	n/a	n/a	2	9	Cue	AvoidedLoss	True
95.982	3.95	Lose2	0.9	0.0	Yes	3.119	0.001	n/a	GoodResponse	0	n/a	n/a	2	9	Fixation	AvoidedLoss	True
99.927	0.31	Lose2	0.9	0.004	Yes	3.119	-0.004	4.0	GoodResponse	0	0.299	99.226	2	9	Target	AvoidedLoss	True
100.226	0.3	Lose2	0.9	0.004	Yes	3.119	-0.004	4.0	GoodResponse	0	0.299	n/a	2	9	ButtonPress	AvoidedLoss	True
100.244	0.39	Lose2	0.9	n/a	Yes	3.119	n/a	n/a	GoodResponse	0	n/a	n/a	2	9	Blank	AvoidedLoss	True
100.629	1.45	Lose2	0.9	n/a	Yes	3.119	n/a	5.0	GoodResponse	0	0.029	99.658	2	9	Feedback	AvoidedLoss	True
102.083	3.119	Lose2	0.9	n/a	Yes	3.119	n/a	n/a	GoodResponse	0	0.0	n/a	2	9	ISIslide	AvoidedLoss	True
105.226	0.25	Control	0.9091	0.0	Yes	3.274	0.026	n/a	GoodResponse	0	n/a	n/a	2	10	Cue	Neutral	True
105.477	4.0	Control	0.9091	0.0	Yes	3.274	0.001	n/a	GoodResponse	0	n/a	n/a	2	10	Fixation	Neutral	True
109.472	0.3	Control	0.9091	0.004	Yes	3.274	-0.004	4.0	GoodResponse	0	0.221	108.693	2	10	Target	Neutral	True
109.693	0.3	Control	0.9091	0.004	Yes	3.274	-0.004	4.0	GoodResponse	0	0.221	n/a	2	10	ButtonPress	Neutral	True
109.773	0.4	Control	0.9091	n/a	Yes	3.274	n/a	n/a	GoodResponse	0	n/a	n/a	2	10	Blank	Neutral	True
110.174	1.45	Control	0.9091	n/a	Yes	3.274	n/a	5.0	GoodResponse	0	0.044	109.218	2	10	Feedback	Neutral	True
111.628	3.274	Control	0.9091	n/a	Yes	3.274	n/a	n/a	GoodResponse	0	0.0	n/a	2	10	ISIslide	Neutral	True
114.922	0.25	Lose2	0.9167000000000001	0.0	Yes	2.728	0.022	n/a	GoodResponse	0	n/a	n/a	2	11	Cue	AvoidedLoss	True
115.172	4.05	Lose2	0.9167000000000001	0.001	Yes	2.728	0.0	n/a	GoodResponse	0	n/a	n/a	2	11	Fixation	AvoidedLoss	True
119.218	0.29	Lose2	0.9167000000000001	0.004	Yes	2.728	-0.004	4.0	GoodResponse	0	0.247	118.465	2	11	Target	AvoidedLoss	True
119.465	0.3	Lose2	0.9167000000000001	0.004	Yes	2.728	-0.004	4.0	GoodResponse	0	0.247	n/a	2	11	ButtonPress	AvoidedLoss	True
119.519	0.41	Lose2	0.9167000000000001	n/a	Yes	2.728	n/a	n/a	GoodResponse	0	n/a	n/a	2	11	Blank	AvoidedLoss	True
119.92	1.45	Lose2	0.9167000000000001	n/a	Yes	2.728	n/a	5.0	GoodResponse	0	0.007	118.927	2	11	Feedback	AvoidedLoss	True
121.374	2.728	Lose2	0.9167000000000001	n/a	Yes	2.728	n/a	n/a	GoodResponse	0	0.0	n/a	2	11	ISIslide	AvoidedLoss	True
124.116	0.25	Control	0.8462000000000001	0.0	No	2.984	0.016	n/a	NoResponse	0	n/a	n/a	2	12	Cue	Neutral	True
124.367	3.9	Control	0.8462000000000001	0.0	No	2.984	0.001	n/a	NoResponse	0	n/a	n/a	2	12	Fixation	Neutral	True
128.262	0.28	Control	0.8462000000000001	0.004	No	2.984	-0.004	4.0	NoResponse	0	0.423	127.685	2	12	Target	Neutral	True
128.546	0.42	Control	0.8462000000000001	n/a	No	2.984	n/a	n/a	NoResponse	0	n/a	n/a	2	12	Blank	Neutral	True
128.685	0.3	Control	0.8462000000000001	0.004	No	2.984	-0.004	4.0	NoResponse	0	0.423	n/a	2	12	ButtonPress	Neutral	True
128.964	1.45	Control	0.8462000000000001	n/a	No	2.984	n/a	5.0	NoResponse	0	0.035	127.999	2	12	Feedback	Neutral	True
130.418	2.984	Control	0.8462000000000001	n/a	No	2.984	n/a	n/a	NoResponse	0	0.0	n/a	2	12	ISIslide	Neutral	True
133.427	0.25	Control	0.8571	0.0	Yes	2.773	0.027	n/a	GoodResponse	0	n/a	n/a	2	13	Cue	Neutral	True
133.678	4.0	Control	0.8571	0.0	Yes	2.773	0.001	n/a	GoodResponse	0	n/a	n/a	2	13	Fixation	Neutral	True
137.673	0.27	Control	0.8571	0.004	Yes	2.773	-0.004	4.0	GoodResponse	0	0.231	136.904	2	13	Target	Neutral	True
137.904	0.3	Control	0.8571	0.004	Yes	2.773	-0.004	4.0	GoodResponse	0	0.231	n/a	2	13	ButtonPress	Neutral	True
137.957	0.43	Control	0.8571	n/a	Yes	2.773	n/a	n/a	GoodResponse	0	n/a	n/a	2	13	Blank	Neutral	True
138.375	1.45	Control	0.8571	n/a	Yes	2.773	n/a	5.0	GoodResponse	0	0.039	137.414	2	13	Feedback	Neutral	True
139.83	2.773	Control	0.8571	n/a	Yes	2.773	n/a	n/a	GoodResponse	0	0.0	n/a	2	13	ISIslide	Neutral	True
142.621	0.25	Win2	0.8667	0.001	Yes	2.679	0.021	n/a	GoodResponse	1	n/a	n/a	3	14	Cue	Win	True
142.872	4.1	Win2	0.8667	0.0	Yes	2.679	0.001	n/a	GoodResponse	1	n/a	n/a	3	14	Fixation	Win	True
146.968	0.26	Win2	0.8667	0.003	Yes	2.679	-0.003	4.0	GoodResponse	1	0.234	146.202	3	14	Target	Win	True
147.202	0.3	Win2	0.8667	0.003	Yes	2.679	-0.003	4.0	GoodResponse	1	0.234	n/a	3	14	ButtonPress	Win	True
147.235	0.44	Win2	0.8667	n/a	Yes	2.679	n/a	n/a	GoodResponse	1	n/a	n/a	3	14	Blank	Win	True
147.67	1.45	Win2	0.8667	n/a	Yes	2.679	n/a	5.0	GoodResponse	1	0.012	146.682	3	14	Feedback	Win	True
149.124	2.679	Win2	0.8667	n/a	Yes	2.679	n/a	n/a	GoodResponse	1	0.0	n/a	3	14	ISIslide	Win	True
151.816	0.25	Control	0.875	0.0	Yes	2.984	0.016	n/a	GoodResponse	0	n/a	n/a	3	15	Cue	Neutral	True
152.066	4.0	Control	0.875	0.001	Yes	2.984	0.0	n/a	GoodResponse	0	n/a	n/a	3	15	Fixation	Neutral	True
156.062	0.25	Control	0.875	0.004	Yes	2.984	-0.004	4.0	GoodResponse	0	0.232	155.294	3	15	Target	Neutral	True
156.294	0.3	Control	0.875	0.004	Yes	2.984	-0.004	4.0	GoodResponse	0	0.232	n/a	3	15	ButtonPress	Neutral	True
156.313	0.45	Control	0.875	n/a	Yes	2.984	n/a	n/a	GoodResponse	0	n/a	n/a	3	15	Blank	Neutral	True
156.764	1.45	Control	0.875	n/a	Yes	2.984	n/a	5.0	GoodResponse	0	0.04	155.804	3	15	Feedback	Neutral	True
158.218	2.984	Control	0.875	n/a	Yes	2.984	n/a	n/a	GoodResponse	0	0.0	n/a	3	15	ISIslide	Neutral	True
161.227	0.25	Win2	0.8234999999999999	0.0	No	2.873	0.027	n/a	LatePress	0	n/a	n/a	3	16	Cue	MissedWin	True
161.478	4.0	Win2	0.8234999999999999	0.0	No	2.873	0.001	n/a	LatePress	0	n/a	n/a	3	16	Fixation	MissedWin	True
165.473	0.24	Win2	0.8234999999999999	0.004	No	2.873	-0.004	4.0	LatePress	0	0.248	164.721	3	16	Target	MissedWin	True
165.721	0.3	Win2	0.8234999999999999	0.004	No	2.873	-0.004	4.0	LatePress	0	0.248	n/a	3	16	ButtonPress	MissedWin	True
165.724	0.46	Win2	0.8234999999999999	n/a	No	2.873	n/a	n/a	LatePress	0	n/a	n/a	3	16	Blank	MissedWin	True
166.175	1.45	Win2	0.8234999999999999	n/a	No	2.873	n/a	5.0	LatePress	0	0.044	165.219	3	16	Feedback	MissedWin	True
167.63	2.873	Win2	0.8234999999999999	n/a	No	2.873	n/a	n/a	LatePress	0	0.0	n/a	3	16	ISIslide	MissedWin	True
170.522	0.25	Lose2	0.8332999999999999	0.0	Yes	2.728	0.022	n/a	GoodResponse	0	n/a	n/a	3	17	Cue	AvoidedLoss	True
170.773	3.95	Lose2	0.8332999999999999	0.0	Yes	2.728	0.001	n/a	GoodResponse	0	n/a	n/a	3	17	Fixation	AvoidedLoss	True
174.718	0.23	Lose2	0.8332999999999999	0.004	Yes	2.728	-0.004	4.0	GoodResponse	0	0.176	173.894	3	17	Target	AvoidedLoss	True
174.894	0.3	Lose2	0.8332999999999999	0.004	Yes	2.728	-0.004	4.0	GoodResponse	0	0.176	n/a	3	17	ButtonPress	AvoidedLoss	True
174.952	0.47	Lose2	0.8332999999999999	n/a	Yes	2.728	n/a	n/a	GoodResponse	0	n/a	n/a	3	17	Blank	AvoidedLoss	True
175.42	1.45	Lose2	0.8332999999999999	n/a	Yes	2.728	n/a	5.0	GoodResponse	0	0.019	174.439	3	17	Feedback	AvoidedLoss	True
176.874	2.728	Lose2	0.8332999999999999	n/a	Yes	2.728	n/a	n/a	GoodResponse	0	0.0	n/a	3	17	ISIslide	AvoidedLoss	True
179.616	0.25	Lose2	0.7895	0.0	No	2.734	0.016	n/a	NoResponse	-1	n/a	n/a	2	18	Cue	Loss	True
179.867	4.05	Lose2	0.7895	0.0	No	2.734	0.001	n/a	NoResponse	-1	n/a	n/a	2	18	Fixation	Loss	True
183.912	0.22	Lose2	0.7895	0.004	No	2.734	-0.004	4.0	NoResponse	-1	0.241	183.153	2	18	Target	Loss	True
184.146	0.48	Lose2	0.7895	n/a	No	2.734	n/a	n/a	NoResponse	-1	n/a	n/a	2	18	Blank	Loss	True
184.153	0.3	Lose2	0.7895	0.004	No	2.734	-0.004	4.0	NoResponse	-1	0.241	n/a	2	18	ButtonPress	Loss	True
184.614	1.45	Lose2	0.7895	n/a	No	2.734	n/a	5.0	NoResponse	-1	0.044	183.658	2	18	Feedback	Loss	True
186.068	2.734	Lose2	0.7895	n/a	No	2.734	n/a	n/a	NoResponse	-1	0.0	n/a	2	18	ISIslide	Loss	True
188.827	0.25	Control	0.8	0.0	Yes	2.923	0.027	n/a	GoodResponse	0	n/a	n/a	2	19	Cue	Neutral	True
189.077	3.95	Control	0.8	0.001	Yes	2.923	0.0	n/a	GoodResponse	0	n/a	n/a	2	19	Fixation	Neutral	True
193.023	0.21	Control	0.8	0.004	Yes	2.923	-0.004	4.0	GoodResponse	0	0.208	192.231	2	19	Target	Neutral	True
193.231	0.3	Control	0.8	0.004	Yes	2.923	-0.004	4.0	GoodResponse	0	0.208	n/a	2	19	ButtonPress	Neutral	True
193.24	0.49	Control	0.8	n/a	Yes	2.923	n/a	n/a	GoodResponse	0	n/a	n/a	2	19	Blank	Neutral	True
193.725	1.45	Control	0.8	n/a	Yes	2.923	n/a	5.0	GoodResponse	0	0.006	192.731	2	19	Feedback	Neutral	True
195.179	2.923	Control	0.8	n/a	Yes	2.923	n/a	n/a	GoodResponse	0	0.0	n/a	2	19	ISIslide	Neutral	True
198.121	0.25	Control	0.7619	0.0	No	2.629	0.021	n/a	NoResponse	0	n/a	n/a	2	20	Cue	Neutral	False
198.372	4.05	Control	0.7619	0.0	No	2.629	0.001	4.0	NoResponse	0	3.041	200.413	2	20	Fixation	Neutral	False
201.413	0.3	Control	0.7619	0.0	No	2.629	0.001	4.0	NoResponse	0	3.041	n/a	2	20	ButtonPress	Neutral	False
202.417	0.2	Control	0.7619	0.004	No	2.629	-0.004	4.0	NoResponse	0	0.204	201.621	2	20	Target	Neutral	False
202.618	0.5	Control	0.7619	n/a	No	2.629	n/a	n/a	NoResponse	0	n/a	n/a	2	20	Blank	Neutral	False
202.621	0.3	Control	0.7619	0.004	No	2.629	-0.004	4.0	NoResponse	0	0.204	n/a	2	20	ButtonPress	Neutral	False
203.12	1.45	Control	0.7619	n/a	No	2.629	n/a	5.0	NoResponse	0	0.025	202.145	2	20	Feedback	Neutral	False
204.574	2.629	Control	0.7619	n/a	No	2.629	n/a	n/a	NoResponse	0	0.0	n/a	2	20	ISIslide	Neutral	False
207.215	0.25	Control	0.7273000000000001	0.0	No	2.785	0.015	n/a	NoResponse	0	n/a	n/a	2	21	Cue	Neutral	True
207.466	4.1	Control	0.7273000000000001	0.0	No	2.785	0.001	n/a	NoResponse	0	n/a	n/a	2	21	Fixation	Neutral	True
211.562	0.19	Control	0.7273000000000001	0.003	No	2.785	-0.003	4.0	NoResponse	0	0.242	210.804	2	21	Target	Neutral	True
211.762	0.51	Control	0.7273000000000001	n/a	No	2.785	n/a	n/a	NoResponse	0	n/a	n/a	2	21	Blank	Neutral	True
211.804	0.3	Control	0.7273000000000001	0.003	No	2.785	-0.003	4.0	NoResponse	0	0.242	n/a	2	21	ButtonPress	Neutral	True
212.264	1.45	Control	0.7273000000000001	n/a	No	2.785	n/a	5.0	NoResponse	0	0.005	211.269	2	21	Feedback	Neutral	True
213.718	2.785	Control	0.7273000000000001	n/a	No	2.785	n/a	n/a	NoResponse	0	0.0	n/a	2	21	ISIslide	Neutral	True
216.526	0.25	Control	0.6957	0.001	No	2.774	0.026	n/a	NoResponse	0	n/a	n/a	2	22	Cue	Neutral	True
216.777	4.0	Control	0.6957	0.0	No	2.774	0.001	n/a	NoResponse	0	n/a	n/a	2	22	Fixation	Neutral	True
220.773	0.18	Control	0.6957	0.003	No	2.774	-0.003	4.0	NoResponse	0	0.214	219.987	2	22	Target	Neutral	True
220.956	0.52	Control	0.6957	n/a	No	2.774	n/a	n/a	NoResponse	0	n/a	n/a	2	22	Blank	Neutral	True
220.987	0.3	Control	0.6957	0.003	No	2.774	-0.003	4.0	NoResponse	0	0.214	n/a	2	22	ButtonPress	Neutral	True
221.475	1.45	Control	0.6957	n/a	No	2.774	n/a	5.0	NoResponse	0	0.012	220.487	2	22	Feedback	Neutral	True
222.929	2.774	Control	0.6957	n/a	No	2.774	n/a	n/a	NoResponse	0	0.0	n/a	2	22	ISIslide	Neutral	True
225.721	0.25	Control	0.6667000000000001	0.0	No	2.779	0.021	n/a	NoResponse	0	n/a	n/a	2	23	Cue	Neutral	True
225.971	3.9	Control	0.6667000000000001	0.001	No	2.779	0.0	n/a	NoResponse	0	n/a	n/a	2	23	Fixation	Neutral	True
229.866	0.17	Control	0.6667000000000001	0.005	No	2.779	-0.005	4.0	NoResponse	0	0.263	229.129	2	23	Target	Neutral	True
230.05	0.53	Control	0.6667000000000001	n/a	No	2.779	n/a	n/a	NoResponse	0	n/a	n/a	2	23	Blank	Neutral	True
230.129	0.3	Control	0.6667000000000001	0.005	No	2.779	-0.005	4.0	NoResponse	0	0.263	n/a	2	23	ButtonPress	Neutral	True
230.569	1.45	Control	0.6667000000000001	n/a	No	2.779	n/a	5.0	NoResponse	0	0.04	229.609	2	23	Feedback	Neutral	True
232.023	2.779	Control	0.6667000000000001	n/a	No	2.779	n/a	n/a	NoResponse	0	0.0	n/a	2	23	ISIslide	Neutral	True
234.815	0.25	Win2	0.64	0.0	No	3.135	0.015	n/a	NoResponse	0	n/a	n/a	2	24	Cue	MissedWin	True
235.065	3.95	Win2	0.64	0.0	No	3.135	0.0	n/a	NoResponse	0	n/a	n/a	2	24	Fixation	MissedWin	True
239.011	0.16	Win2	0.64	0.004	No	3.135	-0.004	4.0	NoResponse	0	0.23	238.241	2	24	Target	MissedWin	True
239.178	0.54	Win2	0.64	n/a	No	3.135	n/a	n/a	NoResponse	0	n/a	n/a	2	24	Blank	MissedWin	True
239.241	0.3	Win2	0.64	0.004	No	3.135	-0.004	4.0	NoResponse	0	0.23	n/a	2	24	ButtonPress	MissedWin	True
239.713	1.45	Win2	0.64	n/a	No	3.135	n/a	5.0	NoResponse	0	0.018	238.731	2	24	Feedback	MissedWin	True
241.167	3.135	Win2	0.64	n/a	No	3.135	n/a	n/a	NoResponse	0	0.0	n/a	2	24	ISIslide	MissedWin	True
244.327	0.25	Win2	0.6154	0.0	No	3.073	0.027	n/a	NoResponse	0	n/a	n/a	2	25	Cue	MissedWin	True
244.577	4.0	Win2	0.6154	0.0	No	3.073	0.0	n/a	NoResponse	0	n/a	n/a	2	25	Fixation	MissedWin	True
248.573	0.17	Win2	0.6154	0.004	No	3.073	-0.004	4.0	NoResponse	0	0.198	247.771	2	25	Target	MissedWin	True
248.756	0.53	Win2	0.6154	n/a	No	3.073	n/a	n/a	NoResponse	0	n/a	n/a	2	25	Blank	MissedWin	True
248.771	0.3	Win2	0.6154	0.004	No	3.073	-0.004	4.0	NoResponse	0	0.198	n/a	2	25	ButtonPress	MissedWin	True
249.275	1.45	Win2	0.6154	n/a	No	3.073	n/a	5.0	NoResponse	0	0.017	248.292	2	25	Feedback	MissedWin	True
250.729	3.073	Win2	0.6154	n/a	No	3.073	n/a	n/a	NoResponse	0	0.0	n/a	2	25	ISIslide	MissedWin	True
253.822	0.25	Win2	0.5926	0.0	No	2.928	0.022	n/a	NoResponse	0	n/a	n/a	2	26	Cue	MissedWin	True
254.072	3.95	Win2	0.5926	0.001	No	2.928	0.0	n/a	NoResponse	0	n/a	n/a	2	26	Fixation	MissedWin	True
258.018	0.18	Win2	0.5926	0.004	No	2.928	-0.004	4.0	NoResponse	0	0.207	257.225	2	26	Target	MissedWin	True
258.201	0.52	Win2	0.5926	n/a	No	2.928	n/a	n/a	NoResponse	0	n/a	n/a	2	26	Blank	MissedWin	True
258.225	0.3	Win2	0.5926	0.004	No	2.928	-0.004	4.0	NoResponse	0	0.207	n/a	2	26	ButtonPress	MissedWin	True
258.72	1.45	Win2	0.5926	n/a	No	2.928	n/a	5.0	NoResponse	0	0.035	257.755	2	26	Feedback	MissedWin	True
260.174	2.928	Win2	0.5926	n/a	No	2.928	n/a	n/a	NoResponse	0	0.0	n/a	2	26	ISIslide	MissedWin	True
263.116	0.25	Lose2	0.5714	0.0	No	2.834	0.016	n/a	NoResponse	-1	n/a	n/a	1	27	Cue	Loss	True
263.367	4.05	Lose2	0.5714	0.0	No	2.834	0.001	n/a	NoResponse	-1	n/a	n/a	1	27	Fixation	Loss	True
267.412	0.19	Lose2	0.5714	0.004	No	2.834	-0.004	4.0	NoResponse	-1	0.23	266.642	1	27	Target	Loss	True
267.613	0.51	Lose2	0.5714	n/a	No	2.834	n/a	n/a	NoResponse	-1	n/a	n/a	1	27	Blank	Loss	True
267.642	0.3	Lose2	0.5714	0.004	No	2.834	-0.004	4.0	NoResponse	-1	0.23	n/a	1	27	ButtonPress	Loss	True
268.115	1.45	Lose2	0.5714	n/a	No	2.834	n/a	5.0	NoResponse	-1	0.006	267.121	1	27	Feedback	Loss	True
269.569	2.834	Lose2	0.5714	n/a	No	2.834	n/a	n/a	NoResponse	-1	0.0	n/a	1	27	ISIslide	Loss	True
272.428	0.25	Control	0.5861999999999999	0.0	Yes	2.822	0.028	n/a	GoodResponse	0	n/a	n/a	1	28	Cue	Neutral	True
272.678	4.05	Control	0.5861999999999999	0.0	Yes	2.822	0.0	n/a	GoodResponse	0	n/a	n/a	1	28	Fixation	Neutral	True
276.724	0.2	Control	0.5861999999999999	0.004	Yes	2.822	-0.004	4.0	GoodResponse	0	0.175	275.899	1	28	Target	Neutral	True
276.899	0.3	Control	0.5861999999999999	0.004	Yes	2.822	-0.004	4.0	GoodResponse	0	0.175	n/a	1	28	ButtonPress	Neutral	True
276.924	0.5	Control	0.5861999999999999	n/a	Yes	2.822	n/a	n/a	GoodResponse	0	n/a	n/a	1	28	Blank	Neutral	True
277.426	1.45	Control	0.5861999999999999	n/a	Yes	2.822	n/a	5.0	GoodResponse	0	0.012	276.438	1	28	Feedback	Neutral	True
278.88	2.822	Control	0.5861999999999999	n/a	Yes	2.822	n/a	n/a	GoodResponse	0	0.0	n/a	1	28	ISIslide	Neutral	True
281.722	0.25	Lose2	0.5667	0.0	No	2.828	0.022	n/a	NoResponse	-1	n/a	n/a	0	29	Cue	Loss	True
281.973	3.95	Lose2	0.5667	0.0	No	2.828	0.001	n/a	NoResponse	-1	n/a	n/a	0	29	Fixation	Loss	True
285.918	0.21	Lose2	0.5667	0.004	No	2.828	-0.004	4.0	NoResponse	-1	0.3	285.218	0	29	Target	Loss	True
286.135	0.49	Lose2	0.5667	n/a	No	2.828	n/a	n/a	NoResponse	-1	n/a	n/a	0	29	Blank	Loss	True
286.218	0.3	Lose2	0.5667	0.004	No	2.828	-0.004	4.0	NoResponse	-1	0.3	n/a	0	29	ButtonPress	Loss	True
286.62	1.45	Lose2	0.5667	n/a	No	2.828	n/a	5.0	NoResponse	-1	0.038	285.658	0	29	Feedback	Loss	True
288.074	2.828	Lose2	0.5667	n/a	No	2.828	n/a	n/a	NoResponse	-1	0.0	n/a	0	29	ISIslide	Loss	True
290.916	0.25	Win2	0.5806	0.0	Yes	2.784	0.016	n/a	GoodResponse	1	n/a	n/a	1	30	Cue	Win	True
291.167	3.9	Win2	0.5806	0.0	Yes	2.784	0.001	n/a	GoodResponse	1	n/a	n/a	1	30	Fixation	Win	True
295.062	0.22	Win2	0.5806	0.004	Yes	2.784	-0.004	4.0	GoodResponse	1	0.209	294.271	1	30	Target	Win	True
295.271	0.3	Win2	0.5806	0.004	Yes	2.784	-0.004	4.0	GoodResponse	1	0.209	n/a	1	30	ButtonPress	Win	True
295.296	0.48	Win2	0.5806	n/a	Yes	2.784	n/a	n/a	GoodResponse	1	n/a	n/a	1	30	Blank	Win	True
295.764	1.45	Win2	0.5806	n/a	Yes	2.784	n/a	5.0	GoodResponse	1	0.016	294.78	1	30	Feedback	Win	True
297.219	2.784	Win2	0.5806	n/a	Yes	2.784	n/a	n/a	GoodResponse	1	0.0	n/a	1	30	ISIslide	Win	True
300.027	0.25	Lose2	0.5938	0.0	Yes	2.823	0.027	n/a	GoodResponse	0	n/a	n/a	1	31	Cue	AvoidedLoss	True
300.278	4.05	Lose2	0.5938	0.0	Yes	2.823	0.001	n/a	GoodResponse	0	n/a	n/a	1	31	Fixation	AvoidedLoss	True
304.323	0.23	Lose2	0.5938	0.004	Yes	2.823	-0.004	4.0	GoodResponse	0	0.19	303.513	1	31	Target	AvoidedLoss	True
304.513	0.3	Lose2	0.5938	0.004	Yes	2.823	-0.004	4.0	GoodResponse	0	0.19	n/a	1	31	ButtonPress	AvoidedLoss	True
304.557	0.47	Lose2	0.5938	n/a	Yes	2.823	n/a	n/a	GoodResponse	0	n/a	n/a	1	31	Blank	AvoidedLoss	True
305.025	1.45	Lose2	0.5938	n/a	Yes	2.823	n/a	5.0	GoodResponse	0	0.023	304.048	1	31	Feedback	AvoidedLoss	True
306.48	2.823	Lose2	0.5938	n/a	Yes	2.823	n/a	n/a	GoodResponse	0	0.0	n/a	1	31	ISIslide	AvoidedLoss	True
309.322	0.25	Lose2	0.6061	0.0	Yes	2.628	0.022	n/a	GoodResponse	0	n/a	n/a	1	32	Cue	AvoidedLoss	True
309.572	4.15	Lose2	0.6061	0.0	Yes	2.628	0.0	n/a	GoodResponse	0	n/a	n/a	1	32	Fixation	AvoidedLoss	True
313.718	0.24	Lose2	0.6061	0.004	Yes	2.628	-0.004	4.0	GoodResponse	0	0.185	312.903	1	32	Target	AvoidedLoss	True
313.903	0.3	Lose2	0.6061	0.004	Yes	2.628	-0.004	4.0	GoodResponse	0	0.185	n/a	1	32	ButtonPress	AvoidedLoss	True
313.969	0.46	Lose2	0.6061	n/a	Yes	2.628	n/a	n/a	GoodResponse	0	n/a	n/a	1	32	Blank	AvoidedLoss	True
314.42	1.45	Lose2	0.6061	n/a	Yes	2.628	n/a	5.0	GoodResponse	0	0.043	313.463	1	32	Feedback	AvoidedLoss	True
315.875	2.628	Lose2	0.6061	n/a	Yes	2.628	n/a	n/a	GoodResponse	0	0.0	n/a	1	32	ISIslide	AvoidedLoss	True
318.516	0.25	Win2	0.5882000000000001	0.0	No	2.684	0.016	n/a	NoResponse	0	n/a	n/a	1	33	Cue	MissedWin	False
318.767	4.0	Win2	0.5882000000000001	0.0	No	2.684	0.001	4.0	NoResponse	0	3.388	321.155	1	33	Fixation	MissedWin	False
322.155	0.3	Win2	0.5882000000000001	0.0	No	2.684	0.001	4.0	NoResponse	0	3.388	n/a	1	33	ButtonPress	MissedWin	False
322.762	0.25	Win2	0.5882000000000001	0.004	No	2.684	-0.004	4.0	NoResponse	0	0.271	322.033	1	33	Target	MissedWin	False
323.013	0.45	Win2	0.5882000000000001	n/a	No	2.684	n/a	n/a	NoResponse	0	n/a	n/a	1	33	Blank	MissedWin	False
323.033	0.3	Win2	0.5882000000000001	0.004	No	2.684	-0.004	4.0	NoResponse	0	0.271	n/a	1	33	ButtonPress	MissedWin	False
323.464	1.45	Win2	0.5882000000000001	n/a	No	2.684	n/a	5.0	NoResponse	0	0.023	322.487	1	33	Feedback	MissedWin	False
324.918	2.684	Win2	0.5882000000000001	n/a	No	2.684	n/a	n/a	NoResponse	0	0.0	n/a	1	33	ISIslide	MissedWin	False
327.626	0.25	Lose2	0.6	0.0	Yes	2.624	0.026	n/a	GoodResponse	0	n/a	n/a	1	34	Cue	AvoidedLoss	True
327.877	4.05	Lose2	0.6	0.0	Yes	2.624	0.001	n/a	GoodResponse	0	n/a	n/a	1	34	Fixation	AvoidedLoss	True
331.923	0.26	Lose2	0.6	0.003	Yes	2.624	-0.003	4.0	GoodResponse	0	0.205	331.128	1	34	Target	AvoidedLoss	True
332.128	0.3	Lose2	0.6	0.003	Yes	2.624	-0.003	4.0	GoodResponse	0	0.205	n/a	1	34	ButtonPress	AvoidedLoss	True
332.19	0.44	Lose2	0.6	n/a	Yes	2.624	n/a	n/a	GoodResponse	0	n/a	n/a	1	34	Blank	AvoidedLoss	True
332.625	1.45	Lose2	0.6	n/a	Yes	2.624	n/a	5.0	GoodResponse	0	0.032	331.657	1	34	Feedback	AvoidedLoss	True
334.079	2.624	Lose2	0.6	n/a	Yes	2.624	n/a	n/a	GoodResponse	0	0.0	n/a	1	34	ISIslide	AvoidedLoss	True
336.72	0.25	Lose2	0.6111	0.0	Yes	2.68	0.02	n/a	GoodResponse	0	n/a	n/a	1	35	Cue	AvoidedLoss	True
336.971	4.0	Lose2	0.6111	0.0	Yes	2.68	0.001	n/a	GoodResponse	0	n/a	n/a	1	35	Fixation	AvoidedLoss	True
340.966	0.27	Lose2	0.6111	0.004	Yes	2.68	-0.004	4.0	GoodResponse	0	0.204	340.17	1	35	Target	AvoidedLoss	True
341.17	0.3	Lose2	0.6111	0.004	Yes	2.68	-0.004	4.0	GoodResponse	0	0.204	n/a	1	35	ButtonPress	AvoidedLoss	True
341.251	0.43	Lose2	0.6111	n/a	Yes	2.68	n/a	n/a	GoodResponse	0	n/a	n/a	1	35	Blank	AvoidedLoss	True
341.669	1.45	Lose2	0.6111	n/a	Yes	2.68	n/a	5.0	GoodResponse	0	0.013	340.682	1	35	Feedback	AvoidedLoss	True
343.123	2.68	Lose2	0.6111	n/a	Yes	2.68	n/a	n/a	GoodResponse	0	0.0	n/a	1	35	ISIslide	AvoidedLoss	True
345.814	0.25	Control	0.6215999999999999	0.0	Yes	2.686	0.014	n/a	GoodResponse	0	n/a	n/a	1	36	Cue	Neutral	True
346.065	4.0	Control	0.6215999999999999	0.0	Yes	2.686	0.001	n/a	GoodResponse	0	n/a	n/a	1	36	Fixation	Neutral	True
350.06	0.28	Control	0.6215999999999999	0.004	Yes	2.686	-0.004	4.0	GoodResponse	0	0.198	349.258	1	36	Target	Neutral	True
350.258	0.3	Control	0.6215999999999999	0.004	Yes	2.686	-0.004	4.0	GoodResponse	0	0.198	n/a	1	36	ButtonPress	Neutral	True
350.345	0.42	Control	0.6215999999999999	n/a	Yes	2.686	n/a	n/a	GoodResponse	0	n/a	n/a	1	36	Blank	Neutral	True
350.762	1.45	Control	0.6215999999999999	n/a	Yes	2.686	n/a	5.0	GoodResponse	0	0.042	349.804	1	36	Feedback	Neutral	True
352.217	2.686	Control	0.6215999999999999	n/a	Yes	2.686	n/a	n/a	GoodResponse	0	0.0	n/a	1	36	ISIslide	Neutral	True
354.925	0.25	Win2	0.6315999999999999	0.0	Yes	2.875	0.025	n/a	GoodResponse	1	n/a	n/a	2	37	Cue	Win	True
355.176	4.0	Win2	0.6315999999999999	0.0	Yes	2.875	0.001	n/a	GoodResponse	1	n/a	n/a	2	37	Fixation	Win	True
359.171	0.29	Win2	0.6315999999999999	0.004	Yes	2.875	-0.004	4.0	GoodResponse	1	0.2	358.371	2	37	Target	Win	True
359.371	0.3	Win2	0.6315999999999999	0.004	Yes	2.875	-0.004	4.0	GoodResponse	1	0.2	n/a	2	37	ButtonPress	Win	True
359.472	0.41	Win2	0.6315999999999999	n/a	Yes	2.875	n/a	n/a	GoodResponse	1	n/a	n/a	2	37	Blank	Win	True
359.873	1.45	Win2	0.6315999999999999	n/a	Yes	2.875	n/a	5.0	GoodResponse	1	0.004	358.877	2	37	Feedback	Win	True
361.328	2.875	Win2	0.6315999999999999	n/a	Yes	2.875	n/a	n/a	GoodResponse	1	0.0	n/a	2	37	ISIslide	Win	True
364.22	0.25	Lose2	0.6409999999999999	0.0	Yes	2.83	0.02	n/a	GoodResponse	0	n/a	n/a	2	38	Cue	AvoidedLoss	True
364.47	3.95	Lose2	0.6409999999999999	0.0	Yes	2.83	0.0	n/a	GoodResponse	0	n/a	n/a	2	38	Fixation	AvoidedLoss	True
368.432	0.3	Lose2	0.6409999999999999	0.0	Yes	2.83	0.012	4.0	GoodResponse	0	0.239	367.671	2	38	Target	AvoidedLoss	True
368.671	0.3	Lose2	0.6409999999999999	0.0	Yes	2.83	0.012	4.0	GoodResponse	0	0.239	n/a	2	38	ButtonPress	AvoidedLoss	True
368.716	0.4	Lose2	0.6409999999999999	n/a	Yes	2.83	n/a	n/a	GoodResponse	0	n/a	n/a	2	38	Blank	AvoidedLoss	True
369.118	1.45	Lose2	0.6409999999999999	n/a	Yes	2.83	n/a	5.0	GoodResponse	0	0.027	368.145	2	38	Feedback	AvoidedLoss	True
370.572	2.83	Lose2	0.6409999999999999	n/a	Yes	2.83	n/a	n/a	GoodResponse	0	0.0	n/a	2	38	ISIslide	AvoidedLoss	True
373.414	0.25	Win2	0.65	0.0	Yes	2.986	0.014	n/a	GoodResponse	1	n/a	n/a	3	39	Cue	Win	True
373.665	4.1	Win2	0.65	0.0	Yes	2.986	0.001	n/a	GoodResponse	1	n/a	n/a	3	39	Fixation	Win	True
377.76	0.31	Win2	0.65	0.004	Yes	2.986	-0.004	4.0	GoodResponse	1	0.197	376.957	3	39	Target	Win	True
377.957	0.3	Win2	0.65	0.004	Yes	2.986	-0.004	4.0	GoodResponse	1	0.197	n/a	3	39	ButtonPress	Win	True
378.078	0.39	Win2	0.65	n/a	Yes	2.986	n/a	n/a	GoodResponse	1	n/a	n/a	3	39	Blank	Win	True
378.462	1.45	Win2	0.65	n/a	Yes	2.986	n/a	5.0	GoodResponse	1	0.001	377.463	3	39	Feedback	Win	True
379.917	2.986	Win2	0.65	n/a	Yes	2.986	n/a	n/a	GoodResponse	1	0.0	n/a	3	39	ISIslide	Win	True
382.926	0.25	Win2	0.6585	0.0	Yes	2.724	0.026	n/a	GoodResponse	1	n/a	n/a	4	40	Cue	Win	True
383.176	3.95	Win2	0.6585	0.0	Yes	2.724	0.0	n/a	GoodResponse	1	n/a	n/a	4	40	Fixation	Win	True
387.122	0.32	Win2	0.6585	0.004	Yes	2.724	-0.004	4.0	GoodResponse	1	0.266	386.388	4	40	Target	Win	True
387.388	0.3	Win2	0.6585	0.004	Yes	2.724	-0.004	4.0	GoodResponse	1	0.266	n/a	4	40	ButtonPress	Win	True
387.456	0.38	Win2	0.6585	n/a	Yes	2.724	n/a	n/a	GoodResponse	1	n/a	n/a	4	40	Blank	Win	True
387.824	1.45	Win2	0.6585	n/a	Yes	2.724	n/a	5.0	GoodResponse	1	0.005	386.829	4	40	Feedback	Win	True
389.278	2.724	Win2	0.6585	n/a	Yes	2.724	n/a	n/a	GoodResponse	1	0.0	n/a	4	40	ISIslide	Win	True
392.02	0.25	Win2	0.6667000000000001	0.0	Yes	2.78	0.02	n/a	GoodResponse	1	n/a	n/a	5	41	Cue	Win	True
392.27	3.9	Win2	0.6667000000000001	0.0	Yes	2.78	0.0	n/a	GoodResponse	1	n/a	n/a	5	41	Fixation	Win	True
396.182	0.32	Win2	0.6667000000000001	0.0	Yes	2.78	0.012	4.0	GoodResponse	1	0.21	395.392	5	41	Target	Win	True
396.392	0.3	Win2	0.6667000000000001	0.0	Yes	2.78	0.012	4.0	GoodResponse	1	0.21	n/a	5	41	ButtonPress	Win	True
396.5	0.38	Win2	0.6667000000000001	n/a	Yes	2.78	n/a	n/a	GoodResponse	1	n/a	n/a	5	41	Blank	Win	True
396.867	1.45	Win2	0.6667000000000001	n/a	Yes	2.78	n/a	5.0	GoodResponse	1	0.035	395.902	5	41	Feedback	Win	True
398.322	2.78	Win2	0.6667000000000001	n/a	Yes	2.78	n/a	n/a	GoodResponse	1	0.0	n/a	5	41	ISIslide	Win	True
401.13	0.25	Control	0.6744	0.0	Yes	2.92	0.03	n/a	GoodResponse	0	n/a	n/a	5	42	Cue	Neutral	True
401.381	3.85	Control	0.6744	0.0	Yes	2.92	0.001	n/a	GoodResponse	0	n/a	n/a	5	42	Fixation	Neutral	True
405.226	0.31	Control	0.6744	0.004	Yes	2.92	-0.004	4.0	GoodResponse	0	0.302	404.528	5	42	Target	Neutral	True
405.528	0.3	Control	0.6744	0.004	Yes	2.92	-0.004	4.0	GoodResponse	0	0.302	n/a	5	42	ButtonPress	Neutral	True
405.543	0.39	Control	0.6744	n/a	Yes	2.92	n/a	n/a	GoodResponse	0	n/a	n/a	5	42	Blank	Neutral	True
405.928	1.45	Control	0.6744	n/a	Yes	2.92	n/a	5.0	GoodResponse	0	0.046	404.974	5	42	Feedback	Neutral	True
407.382	2.92	Control	0.6744	n/a	Yes	2.92	n/a	n/a	GoodResponse	0	0.0	n/a	5	42	ISIslide	Neutral	True
410.325	0.25	Win2	0.6818000000000001	0.0	Yes	3.175	0.025	n/a	GoodResponse	1	n/a	n/a	6	43	Cue	Win	True
410.575	4.0	Win2	0.6818000000000001	0.0	Yes	3.175	0.0	n/a	GoodResponse	1	n/a	n/a	6	43	Fixation	Win	True
414.571	0.3	Win2	0.6818000000000001	0.004	Yes	3.175	-0.004	4.0	GoodResponse	1	0.205	413.776	6	43	Target	Win	True
414.776	0.3	Win2	0.6818000000000001	0.004	Yes	3.175	-0.004	4.0	GoodResponse	1	0.205	n/a	6	43	ButtonPress	Win	True
414.871	0.4	Win2	0.6818000000000001	n/a	Yes	3.175	n/a	n/a	GoodResponse	1	n/a	n/a	6	43	Blank	Win	True
415.273	1.45	Win2	0.6818000000000001	n/a	Yes	3.175	n/a	5.0	GoodResponse	1	0.018	414.291	6	43	Feedback	Win	True
416.727	3.175	Win2	0.6818000000000001	n/a	Yes	3.175	n/a	n/a	GoodResponse	1	0.0	n/a	6	43	ISIslide	Win	True
419.92	0.25	Win2	0.6889	0.0	Yes	2.98	0.02	n/a	GoodResponse	1	n/a	n/a	7	44	Cue	Win	True
420.171	4.0	Win2	0.6889	0.0	Yes	2.98	0.001	n/a	GoodResponse	1	n/a	n/a	7	44	Fixation	Win	True
424.166	0.29	Win2	0.6889	0.004	Yes	2.98	-0.004	4.0	GoodResponse	1	0.176	423.342	7	44	Target	Win	True
424.342	0.3	Win2	0.6889	0.004	Yes	2.98	-0.004	4.0	GoodResponse	1	0.176	n/a	7	44	ButtonPress	Win	True
424.467	0.41	Win2	0.6889	n/a	Yes	2.98	n/a	n/a	GoodResponse	1	n/a	n/a	7	44	Blank	Win	True
424.868	1.45	Win2	0.6889	n/a	Yes	2.98	n/a	5.0	GoodResponse	1	0.033	423.901	7	44	Feedback	Win	True
426.322	2.98	Win2	0.6889	n/a	Yes	2.98	n/a	n/a	GoodResponse	1	0.0	n/a	7	44	ISIslide	Win	True
429.315	0.25	Control	0.6957	0.0	Yes	2.885	0.015	n/a	GoodResponse	0	n/a	n/a	7	45	Cue	Neutral	True
429.566	4.1	Control	0.6957	0.0	Yes	2.885	0.001	n/a	GoodResponse	0	n/a	n/a	7	45	Fixation	Neutral	True
433.661	0.28	Control	0.6957	0.004	Yes	2.885	-0.004	4.0	GoodResponse	0	0.189	432.85	7	45	Target	Neutral	True
433.85	0.3	Control	0.6957	0.004	Yes	2.885	-0.004	4.0	GoodResponse	0	0.189	n/a	7	45	ButtonPress	Neutral	True
433.945	0.42	Control	0.6957	n/a	Yes	2.885	n/a	n/a	GoodResponse	0	n/a	n/a	7	45	Blank	Neutral	True
434.363	1.45	Control	0.6957	n/a	Yes	2.885	n/a	5.0	GoodResponse	0	0.002	433.365	7	45	Feedback	Neutral	True
435.818	2.885	Control	0.6957	n/a	Yes	2.885	n/a	n/a	GoodResponse	0	0.0	n/a	7	45	ISIslide	Neutral	True
438.726	0.25	Lose2	0.7021	0.0	Yes	3.374	0.026	n/a	GoodResponse	0	n/a	n/a	7	46	Cue	AvoidedLoss	True
438.977	4.0	Lose2	0.7021	0.0	Yes	3.374	0.001	n/a	GoodResponse	0	n/a	n/a	7	46	Fixation	AvoidedLoss	True
442.972	0.27	Lose2	0.7021	0.004	Yes	3.374	-0.004	4.0	GoodResponse	0	0.234	442.206	7	46	Target	AvoidedLoss	True
443.206	0.3	Lose2	0.7021	0.004	Yes	3.374	-0.004	4.0	GoodResponse	0	0.234	n/a	7	46	ButtonPress	AvoidedLoss	True
443.257	0.43	Lose2	0.7021	n/a	Yes	3.374	n/a	n/a	GoodResponse	0	n/a	n/a	7	46	Blank	AvoidedLoss	True
443.675	1.45	Lose2	0.7021	n/a	Yes	3.374	n/a	5.0	GoodResponse	0	0.007	442.682	7	46	Feedback	AvoidedLoss	True
445.129	3.374	Lose2	0.7021	n/a	Yes	3.374	n/a	n/a	GoodResponse	0	0.0	n/a	7	46	ISIslide	AvoidedLoss	True
448.522	0.25	Lose2	0.6875	0.0	No	2.678	0.022	n/a	LatePress	-1	n/a	n/a	6	47	Cue	Loss	True
448.773	4.0	Lose2	0.6875	0.0	No	2.678	0.001	n/a	LatePress	-1	n/a	n/a	6	47	Fixation	Loss	True
452.768	0.26	Lose2	0.6875	0.004	No	2.678	-0.004	4.0	LatePress	-1	0.262	452.03	6	47	Target	Loss	True
453.03	0.3	Lose2	0.6875	0.004	No	2.678	-0.004	4.0	LatePress	-1	0.262	n/a	6	47	ButtonPress	Loss	True
453.036	0.44	Lose2	0.6875	n/a	No	2.678	n/a	n/a	LatePress	-1	n/a	n/a	6	47	Blank	Loss	True
453.471	1.45	Lose2	0.6875	n/a	No	2.678	n/a	5.0	LatePress	-1	0.016	452.487	6	47	Feedback	Loss	True
454.925	2.678	Lose2	0.6875	n/a	No	2.678	n/a	n/a	LatePress	-1	0.0	n/a	6	47	ISIslide	Loss	True
457.616	0.25	Lose2	0.6735	0.0	No	3.034	0.016	n/a	LatePress	-1	n/a	n/a	5	48	Cue	Loss	True
457.867	3.95	Lose2	0.6735	0.0	No	3.034	0.001	n/a	LatePress	-1	n/a	n/a	5	48	Fixation	Loss	True
461.812	0.25	Lose2	0.6735	0.004	No	3.034	-0.004	4.0	LatePress	-1	0.25	461.062	5	48	Target	Loss	True
462.062	0.3	Lose2	0.6735	0.004	No	3.034	-0.004	4.0	LatePress	-1	0.25	n/a	5	48	ButtonPress	Loss	True
462.063	0.45	Lose2	0.6735	n/a	No	3.034	n/a	n/a	LatePress	-1	n/a	n/a	5	48	Blank	Loss	True
462.514	1.45	Lose2	0.6735	n/a	No	3.034	n/a	5.0	LatePress	-1	0.046	461.56	5	48	Feedback	Loss	True
463.969	3.034	Lose2	0.6735	n/a	No	3.034	n/a	n/a	LatePress	-1	0.0	n/a	5	48	ISIslide	Loss	True
467.028	0.25	Control	0.68	0.0	Yes	2.872	0.028	n/a	GoodResponse	0	n/a	n/a	5	49	Cue	Neutral	True
467.279	4.0	Control	0.68	0.0	Yes	2.872	0.001	n/a	GoodResponse	0	n/a	n/a	5	49	Fixation	Neutral	True
471.274	0.24	Control	0.68	0.004	Yes	2.872	-0.004	4.0	GoodResponse	0	0.194	470.468	5	49	Target	Neutral	True
471.468	0.3	Control	0.68	0.004	Yes	2.872	-0.004	4.0	GoodResponse	0	0.194	n/a	5	49	ButtonPress	Neutral	True
471.525	0.46	Control	0.68	n/a	Yes	2.872	n/a	n/a	GoodResponse	0	n/a	n/a	5	49	Blank	Neutral	True
471.976	1.45	Control	0.68	n/a	Yes	2.872	n/a	5.0	GoodResponse	0	0.048	471.024	5	49	Feedback	Neutral	True
473.43	2.872	Control	0.68	n/a	Yes	2.872	n/a	n/a	GoodResponse	0	0.0	n/a	5	49	ISIslide	Neutral	True
476.322	0.25	Control	0.6667000000000001	0.001	No	2.778	0.022	n/a	NoResponse	0	n/a	n/a	5	50	Cue	Neutral	True
476.573	4.0	Control	0.6667000000000001	0.0	No	2.778	0.001	n/a	NoResponse	0	n/a	n/a	5	50	Fixation	Neutral	True
480.569	0.23	Control	0.6667000000000001	0.003	No	2.778	-0.003	4.0	NoResponse	0	0.244	479.813	5	50	Target	Neutral	True
480.803	0.47	Control	0.6667000000000001	n/a	No	2.778	n/a	n/a	NoResponse	0	n/a	n/a	5	50	Blank	Neutral	True
480.813	0.3	Control	0.6667000000000001	0.003	No	2.778	-0.003	4.0	NoResponse	0	0.244	n/a	5	50	ButtonPress	Neutral	True
481.271	1.45	Control	0.6667000000000001	n/a	No	2.778	n/a	5.0	NoResponse	0	0.02	480.291	5	50	Feedback	Neutral	True
482.725	2.778	Control	0.6667000000000001	n/a	No	2.778	n/a	n/a	NoResponse	0	0.0	n/a	5	50	ISIslide	Neutral	True
485.517	0.25	Control	0.6537999999999999	0.0	No	2.733	0.017	n/a	NoResponse	0	n/a	n/a	5	51	Cue	Neutral	True
485.767	3.95	Control	0.6537999999999999	0.001	No	2.733	0.0	n/a	NoResponse	0	n/a	n/a	5	51	Fixation	Neutral	True
489.713	0.22	Control	0.6537999999999999	0.004	No	2.733	-0.004	4.0	NoResponse	0	0.234	488.947	5	51	Target	Neutral	True
489.947	0.48	Control	0.6537999999999999	n/a	No	2.733	n/a	n/a	NoResponse	0	n/a	n/a	5	51	Blank	Neutral	True
489.947	0.3	Control	0.6537999999999999	0.004	No	2.733	-0.004	4.0	NoResponse	0	0.234	n/a	5	51	ButtonPress	Neutral	True
490.415	1.45	Control	0.6537999999999999	n/a	No	2.733	n/a	5.0	NoResponse	0	0.047	489.462	5	51	Feedback	Neutral	True
491.869	2.733	Control	0.6537999999999999	n/a	No	2.733	n/a	n/a	NoResponse	0	0.0	n/a	5	51	ISIslide	Neutral	True
494.627	0.25	Control	0.6604000000000001	0.0	Yes	2.623	0.027	n/a	GoodResponse	0	n/a	n/a	5	52	Cue	Neutral	True
494.878	4.05	Control	0.6604000000000001	0.0	Yes	2.623	0.001	n/a	GoodResponse	0	n/a	n/a	5	52	Fixation	Neutral	True
498.924	0.23	Control	0.6604000000000001	0.003	Yes	2.623	-0.003	4.0	GoodResponse	0	0.177	498.101	5	52	Target	Neutral	True
499.101	0.3	Control	0.6604000000000001	0.003	Yes	2.623	-0.003	4.0	GoodResponse	0	0.177	n/a	5	52	ButtonPress	Neutral	True
499.158	0.47	Control	0.6604000000000001	n/a	Yes	2.623	n/a	n/a	GoodResponse	0	n/a	n/a	5	52	Blank	Neutral	True
499.626	1.45	Control	0.6604000000000001	n/a	Yes	2.623	n/a	5.0	GoodResponse	0	0.007	498.633	5	52	Feedback	Neutral	True
501.08	2.623	Control	0.6604000000000001	n/a	Yes	2.623	n/a	n/a	GoodResponse	0	0.0	n/a	5	52	ISIslide	Neutral	True
503.721	0.25	Win2	0.6667000000000001	0.0	Yes	2.929	0.021	n/a	GoodResponse	1	n/a	n/a	6	53	Cue	Win	False
503.972	4.05	Win2	0.6667000000000001	0.0	Yes	2.929	0.001	4.0	GoodResponse	1	3.758	506.73	6	53	Fixation	Win	False
507.73	0.3	Win2	0.6667000000000001	0.0	Yes	2.929	0.001	4.0	GoodResponse	1	3.758	n/a	6	53	ButtonPress	Win	False
508.018	0.23	Win2	0.6667000000000001	0.003	Yes	2.929	-0.003	4.0	GoodResponse	1	0.177	507.195	6	53	Target	Win	False
508.195	0.3	Win2	0.6667000000000001	0.003	Yes	2.929	-0.003	4.0	GoodResponse	1	0.177	n/a	6	53	ButtonPress	Win	False
508.252	0.47	Win2	0.6667000000000001	n/a	Yes	2.929	n/a	n/a	GoodResponse	1	n/a	n/a	6	53	Blank	Win	False
508.72	1.45	Win2	0.6667000000000001	n/a	Yes	2.929	n/a	5.0	GoodResponse	1	0.035	507.755	6	53	Feedback	Win	False
510.174	2.929	Win2	0.6667000000000001	n/a	Yes	2.929	n/a	n/a	GoodResponse	1	0.0	n/a	6	53	ISIslide	Win	False
513.116	0.25	Win2	0.6727	0.0	Yes	2.734	0.016	n/a	GoodResponse	1	n/a	n/a	7	54	Cue	Win	True
513.367	3.95	Win2	0.6727	0.0	Yes	2.734	0.001	n/a	GoodResponse	1	n/a	n/a	7	54	Fixation	Win	True
517.312	0.22	Win2	0.6727	0.004	Yes	2.734	-0.004	4.0	GoodResponse	1	0.2	516.512	7	54	Target	Win	True
517.512	0.3	Win2	0.6727	0.004	Yes	2.734	-0.004	4.0	GoodResponse	1	0.2	n/a	7	54	ButtonPress	Win	True
517.546	0.48	Win2	0.6727	n/a	Yes	2.734	n/a	n/a	GoodResponse	1	n/a	n/a	7	54	Blank	Win	True
518.014	1.45	Win2	0.6727	n/a	Yes	2.734	n/a	5.0	GoodResponse	1	0.009	517.023	7	54	Feedback	Win	True
519.469	2.734	Win2	0.6727	n/a	Yes	2.734	n/a	n/a	GoodResponse	1	0.0	n/a	7	54	ISIslide	Win	True
522.227	0.25	Control	0.6607	0.0	No	3.023	0.027	n/a	NoResponse	0	n/a	n/a	7	55	Cue	Neutral	True
522.478	3.95	Control	0.6607	0.0	No	3.023	0.001	n/a	NoResponse	0	n/a	n/a	7	55	Fixation	Neutral	True
526.423	0.21	Control	0.6607	0.004	No	3.023	-0.004	4.0	NoResponse	0	0.248	525.671	7	55	Target	Neutral	True
526.64	0.49	Control	0.6607	n/a	No	3.023	n/a	n/a	NoResponse	0	n/a	n/a	7	55	Blank	Neutral	True
526.671	0.3	Control	0.6607	0.004	No	3.023	-0.004	4.0	NoResponse	0	0.248	n/a	7	55	ButtonPress	Neutral	True
527.125	1.45	Control	0.6607	n/a	No	3.023	n/a	5.0	NoResponse	0	0.02	526.145	7	55	Feedback	Neutral	True
528.579	3.023	Control	0.6607	n/a	No	3.023	n/a	n/a	NoResponse	0	0.0	n/a	7	55	ISIslide	Neutral	True
531.622	0.25	Control	0.6491	0.0	No	2.828	0.022	n/a	NoResponse	0	n/a	n/a	7	56	Cue	Neutral	True
531.872	3.95	Control	0.6491	0.001	No	2.828	0.0	n/a	NoResponse	0	n/a	n/a	7	56	Fixation	Neutral	True
535.818	0.21	Control	0.6491	0.004	No	2.828	-0.004	4.0	NoResponse	0	0.495	535.313	7	56	Target	Neutral	True
536.035	0.49	Control	0.6491	n/a	No	2.828	n/a	n/a	NoResponse	0	n/a	n/a	7	56	Blank	Neutral	True
536.313	0.3	Control	0.6491	0.004	No	2.828	-0.004	4.0	NoResponse	0	0.495	n/a	7	56	ButtonPress	Neutral	True
536.52	1.45	Control	0.6491	n/a	No	2.828	n/a	5.0	NoResponse	0	0.04	535.56	7	56	Feedback	Neutral	True
537.974	2.828	Control	0.6491	n/a	No	2.828	n/a	n/a	NoResponse	0	0.0	n/a	7	56	ISIslide	Neutral	True
540.816	0.25	Control	0.6379	0.0	No	3.484	0.016	n/a	LatePress	0	n/a	n/a	7	57	Cue	Neutral	True
541.067	4.0	Control	0.6379	0.0	No	3.484	0.001	n/a	LatePress	0	n/a	n/a	7	57	Fixation	Neutral	True
545.062	0.22	Control	0.6379	0.004	No	3.484	-0.004	4.0	LatePress	0	0.229	544.291	7	57	Target	Neutral	True
545.291	0.3	Control	0.6379	0.004	No	3.484	-0.004	4.0	LatePress	0	0.229	n/a	7	57	ButtonPress	Neutral	True
545.296	0.48	Control	0.6379	n/a	No	3.484	n/a	n/a	LatePress	0	n/a	n/a	7	57	Blank	Neutral	True
545.764	1.45	Control	0.6379	n/a	No	3.484	n/a	5.0	LatePress	0	0.016	544.78	7	57	Feedback	Neutral	True
547.218	3.484	Control	0.6379	n/a	No	3.484	n/a	n/a	LatePress	0	0.0	n/a	7	57	ISIslide	Neutral	True
550.729	0.25	Win2	0.6441	0.0	Yes	2.721	0.029	n/a	GoodResponse	1	n/a	n/a	8	58	Cue	Win	False
550.98	4.05	Win2	0.6441	0.0	Yes	2.721	0.001	4.0	GoodResponse	1	0.237	550.217	8	58	Fixation	Win	False
551.217	0.3	Win2	0.6441	0.0	Yes	2.721	0.001	4.0	GoodResponse	1	0.237	n/a	8	58	ButtonPress	Win	False
555.025	0.23	Win2	0.6441	0.004	Yes	2.721	-0.004	4.0	GoodResponse	1	0.181	554.206	8	58	Target	Win	False
555.206	0.3	Win2	0.6441	0.004	Yes	2.721	-0.004	4.0	GoodResponse	1	0.181	n/a	8	58	ButtonPress	Win	False
555.259	0.47	Win2	0.6441	n/a	Yes	2.721	n/a	n/a	GoodResponse	1	n/a	n/a	8	58	Blank	Win	False
555.727	1.45	Win2	0.6441	n/a	Yes	2.721	n/a	5.0	GoodResponse	1	0.005	554.732	8	58	Feedback	Win	False
557.182	2.721	Win2	0.6441	n/a	Yes	2.721	n/a	n/a	GoodResponse	1	0.0	n/a	8	58	ISIslide	Win	False
559.923	0.25	Lose2	0.6333	0.0	No	2.677	0.023	n/a	NoResponse	-1	n/a	n/a	7	59	Cue	Loss	True
560.174	4.0	Lose2	0.6333	0.0	No	2.677	0.001	n/a	NoResponse	-1	n/a	n/a	7	59	Fixation	Loss	True
564.169	0.24	Lose2	0.6333	0.004	No	2.677	-0.004	4.0	NoResponse	-1	0.256	563.425	7	59	Target	Loss	True
564.42	0.46	Lose2	0.6333	n/a	No	2.677	n/a	n/a	NoResponse	-1	n/a	n/a	7	59	Blank	Loss	True
564.425	0.3	Lose2	0.6333	0.004	No	2.677	-0.004	4.0	NoResponse	-1	0.256	n/a	7	59	ButtonPress	Loss	True
564.871	1.45	Lose2	0.6333	n/a	No	2.677	n/a	5.0	NoResponse	-1	0.03	563.901	7	59	Feedback	Loss	True
566.326	2.677	Lose2	0.6333	n/a	No	2.677	n/a	n/a	NoResponse	-1	0.0	n/a	7	59	ISIslide	Loss	True
569.017	0.25	Control	0.6393	0.0	Yes	2.683	0.017	n/a	GoodResponse	0	n/a	n/a	7	60	Cue	Neutral	True
569.268	4.0	Control	0.6393	0.0	Yes	2.683	0.001	n/a	GoodResponse	0	n/a	n/a	7	60	Fixation	Neutral	True
573.263	0.25	Control	0.6393	0.004	Yes	2.683	-0.004	4.0	GoodResponse	0	0.219	572.482	7	60	Target	Neutral	True
573.482	0.3	Control	0.6393	0.004	Yes	2.683	-0.004	4.0	GoodResponse	0	0.219	n/a	7	60	ButtonPress	Neutral	True
573.514	0.45	Control	0.6393	n/a	Yes	2.683	n/a	n/a	GoodResponse	0	n/a	n/a	7	60	Blank	Neutral	True
573.965	1.45	Control	0.6393	n/a	Yes	2.683	n/a	5.0	GoodResponse	0	0.009	572.974	7	60	Feedback	Neutral	True
575.42	2.683	Control	0.6393	n/a	Yes	2.683	n/a	n/a	GoodResponse	0	0.0	n/a	7	60	ISIslide	Neutral	True
578.128	0.25	Lose2	0.6452	0.0	Yes	2.972	0.028	n/a	GoodResponse	0	n/a	n/a	7	61	Cue	AvoidedLoss	True
578.379	4.0	Lose2	0.6452	0.0	Yes	2.972	0.001	n/a	GoodResponse	0	n/a	n/a	7	61	Fixation	AvoidedLoss	True
582.374	0.26	Lose2	0.6452	0.004	Yes	2.972	-0.004	4.0	GoodResponse	0	0.191	581.565	7	61	Target	AvoidedLoss	True
582.565	0.3	Lose2	0.6452	0.004	Yes	2.972	-0.004	4.0	GoodResponse	0	0.191	n/a	7	61	ButtonPress	AvoidedLoss	True
582.641	0.44	Lose2	0.6452	n/a	Yes	2.972	n/a	n/a	GoodResponse	0	n/a	n/a	7	61	Blank	AvoidedLoss	True
583.076	1.45	Lose2	0.6452	n/a	Yes	2.972	n/a	5.0	GoodResponse	0	0.02	582.096	7	61	Feedback	AvoidedLoss	True
584.53	2.972	Lose2	0.6452	n/a	Yes	2.972	n/a	n/a	GoodResponse	0	0.0	n/a	7	61	ISIslide	AvoidedLoss	True
587.523	0.25	Lose2	0.6349	0.0	No	2.877	0.023	n/a	NoResponse	-1	n/a	n/a	6	62	Cue	Loss	True
587.773	3.9	Lose2	0.6349	0.001	No	2.877	0.0	n/a	NoResponse	-1	n/a	n/a	6	62	Fixation	Loss	True
591.685	0.27	Lose2	0.6349	0.0	No	2.877	0.012	4.0	NoResponse	-1	0.316	591.001	6	62	Target	Loss	True
591.953	0.43	Lose2	0.6349	n/a	No	2.877	n/a	n/a	NoResponse	-1	n/a	n/a	6	62	Blank	Loss	True
592.001	0.3	Lose2	0.6349	0.0	No	2.877	0.012	4.0	NoResponse	-1	0.316	n/a	6	62	ButtonPress	Loss	True
592.371	1.45	Lose2	0.6349	n/a	No	2.877	n/a	5.0	NoResponse	-1	0.043	591.414	6	62	Feedback	Loss	True
593.825	2.877	Lose2	0.6349	n/a	No	2.877	n/a	n/a	NoResponse	-1	0.0	n/a	6	62	ISIslide	Loss	True
596.717	0.25	Lose2	0.625	0.0	No	2.633	0.017	n/a	NoResponse	-1	n/a	n/a	5	63	Cue	Loss	True
596.968	4.05	Lose2	0.625	0.0	No	2.633	0.001	n/a	NoResponse	-1	n/a	n/a	5	63	Fixation	Loss	True
601.013	0.28	Lose2	0.625	0.004	No	2.633	-0.004	4.0	NoResponse	-1	0.47	600.483	5	63	Target	Loss	True
601.297	0.42	Lose2	0.625	n/a	No	2.633	n/a	n/a	NoResponse	-1	n/a	n/a	5	63	Blank	Loss	True
601.483	0.3	Lose2	0.625	0.004	No	2.633	-0.004	4.0	NoResponse	-1	0.47	n/a	5	63	ButtonPress	Loss	True
601.715	1.45	Lose2	0.625	n/a	No	2.633	n/a	5.0	NoResponse	-1	0.016	600.731	5	63	Feedback	Loss	True
603.17	2.633	Lose2	0.625	n/a	No	2.633	n/a	n/a	NoResponse	-1	0.0	n/a	5	63	ISIslide	Loss	True
605.828	0.25	Win2	0.6308	0.0	Yes	3.122	0.028	n/a	GoodResponse	1	n/a	n/a	6	64	Cue	Win	True
606.078	4.15	Win2	0.6308	0.0	Yes	3.122	0.0	n/a	GoodResponse	1	n/a	n/a	6	64	Fixation	Win	True
610.224	0.29	Win2	0.6308	0.004	Yes	3.122	-0.004	4.0	GoodResponse	1	0.204	609.428	6	64	Target	Win	True
610.428	0.3	Win2	0.6308	0.004	Yes	3.122	-0.004	4.0	GoodResponse	1	0.204	n/a	6	64	ButtonPress	Win	True
610.525	0.41	Win2	0.6308	n/a	Yes	3.122	n/a	n/a	GoodResponse	1	n/a	n/a	6	64	Blank	Win	True
610.926	1.45	Win2	0.6308	n/a	Yes	3.122	n/a	5.0	GoodResponse	1	0.024	609.95	6	64	Feedback	Win	True
612.381	3.122	Win2	0.6308	n/a	Yes	3.122	n/a	n/a	GoodResponse	1	0.0	n/a	6	64	ISIslide	Win	True
615.523	0.25	Control	0.6364	0.0	Yes	2.777	0.023	n/a	GoodResponse	0	n/a	n/a	6	65	Cue	Neutral	True
615.774	4.0	Control	0.6364	0.0	Yes	2.777	0.001	n/a	GoodResponse	0	n/a	n/a	6	65	Fixation	Neutral	True
619.769	0.3	Control	0.6364	0.004	Yes	2.777	-0.004	4.0	GoodResponse	0	0.245	619.014	6	65	Target	Neutral	True
620.014	0.3	Control	0.6364	0.004	Yes	2.777	-0.004	4.0	GoodResponse	0	0.245	n/a	6	65	ButtonPress	Neutral	True
620.07	0.4	Control	0.6364	n/a	Yes	2.777	n/a	n/a	GoodResponse	0	n/a	n/a	6	65	Blank	Neutral	True
620.472	1.45	Control	0.6364	n/a	Yes	2.777	n/a	5.0	GoodResponse	0	0.04	619.512	6	65	Feedback	Neutral	True
621.926	2.777	Control	0.6364	n/a	Yes	2.777	n/a	n/a	GoodResponse	0	0.0	n/a	6	65	ISIslide	Neutral	True
624.718	0.25	Win2	0.6418	0.0	Yes	2.782	0.018	n/a	GoodResponse	1	n/a	n/a	7	66	Cue	Win	True
624.968	3.9	Win2	0.6418	0.0	Yes	2.782	0.0	n/a	GoodResponse	1	n/a	n/a	7	66	Fixation	Win	True
628.88	0.31	Win2	0.6418	0.0	Yes	2.782	0.012	4.0	GoodResponse	1	0.238	628.118	7	66	Target	Win	True
629.118	0.3	Win2	0.6418	0.0	Yes	2.782	0.012	4.0	GoodResponse	1	0.238	n/a	7	66	ButtonPress	Win	True
629.181	0.39	Win2	0.6418	n/a	Yes	2.782	n/a	n/a	GoodResponse	1	n/a	n/a	7	66	Blank	Win	True
629.566	1.45	Win2	0.6418	n/a	Yes	2.782	n/a	5.0	GoodResponse	1	0.019	628.585	7	66	Feedback	Win	True
631.02	2.782	Win2	0.6418	n/a	Yes	2.782	n/a	n/a	GoodResponse	1	0.0	n/a	7	66	ISIslide	Win	True
633.828	0.25	Control	0.6470999999999999	0.0	Yes	2.722	0.028	n/a	GoodResponse	0	n/a	n/a	7	67	Cue	Neutral	True
634.079	3.95	Control	0.6470999999999999	0.0	Yes	2.722	0.001	n/a	GoodResponse	0	n/a	n/a	7	67	Fixation	Neutral	True
638.024	0.32	Control	0.6470999999999999	0.004	Yes	2.722	-0.004	4.0	GoodResponse	0	0.211	637.235	7	67	Target	Neutral	True
638.235	0.3	Control	0.6470999999999999	0.004	Yes	2.722	-0.004	4.0	GoodResponse	0	0.211	n/a	7	67	ButtonPress	Neutral	True
638.359	0.38	Control	0.6470999999999999	n/a	Yes	2.722	n/a	n/a	GoodResponse	0	n/a	n/a	7	67	Blank	Neutral	True
638.726	1.45	Control	0.6470999999999999	n/a	Yes	2.722	n/a	5.0	GoodResponse	0	0.029	637.755	7	67	Feedback	Neutral	True
640.181	2.722	Control	0.6470999999999999	n/a	Yes	2.722	n/a	n/a	GoodResponse	0	0.0	n/a	7	67	ISIslide	Neutral	True
642.922	0.25	Win2	0.6522	0.0	Yes	3.078	0.022	n/a	GoodResponse	1	n/a	n/a	8	68	Cue	Win	True
643.173	4.0	Win2	0.6522	0.0	Yes	3.078	0.001	n/a	GoodResponse	1	n/a	n/a	8	68	Fixation	Win	True
647.168	0.33	Win2	0.6522	0.004	Yes	3.078	-0.004	4.0	GoodResponse	1	0.199	646.367	8	68	Target	Win	True
647.367	0.3	Win2	0.6522	0.004	Yes	3.078	-0.004	4.0	GoodResponse	1	0.199	n/a	8	68	ButtonPress	Win	True
647.503	0.37	Win2	0.6522	n/a	Yes	3.078	n/a	n/a	GoodResponse	1	n/a	n/a	8	68	Blank	Win	True
647.87	1.45	Win2	0.6522	n/a	Yes	3.078	n/a	5.0	GoodResponse	1	0.007	646.877	8	68	Feedback	Win	True
649.325	3.078	Win2	0.6522	n/a	Yes	3.078	n/a	n/a	GoodResponse	1	0.0	n/a	8	68	ISIslide	Win	True
652.417	0.25	Win2	0.6570999999999999	0.001	Yes	3.233	0.017	n/a	GoodResponse	1	n/a	n/a	9	69	Cue	Win	True
652.668	3.95	Win2	0.6570999999999999	0.0	Yes	3.233	0.001	n/a	GoodResponse	1	n/a	n/a	9	69	Fixation	Win	True
656.613	0.34	Win2	0.6570999999999999	0.004	Yes	3.233	-0.004	4.0	GoodResponse	1	0.229	655.842	9	69	Target	Win	True
656.842	0.3	Win2	0.6570999999999999	0.004	Yes	3.233	-0.004	4.0	GoodResponse	1	0.229	n/a	9	69	ButtonPress	Win	True
656.964	0.36	Win2	0.6570999999999999	n/a	Yes	3.233	n/a	n/a	GoodResponse	1	n/a	n/a	9	69	Blank	Win	True
657.315	1.45	Win2	0.6570999999999999	n/a	Yes	3.233	n/a	5.0	GoodResponse	1	0.025	656.34	9	69	Feedback	Win	True
658.77	3.233	Win2	0.6570999999999999	n/a	Yes	3.233	n/a	n/a	GoodResponse	1	0.0	n/a	9	69	ISIslide	Win	True
662.03	0.25	Lose2	0.662	0.0	Yes	3.02	0.03	n/a	GoodResponse	0	n/a	n/a	9	70	Cue	AvoidedLoss	True
662.28	4.05	Lose2	0.662	0.0	Yes	3.02	0.0	n/a	GoodResponse	0	n/a	n/a	9	70	Fixation	AvoidedLoss	True
666.326	0.34	Lose2	0.662	0.004	Yes	3.02	-0.004	4.0	GoodResponse	0	0.191	665.517	9	70	Target	AvoidedLoss	True
666.517	0.3	Lose2	0.662	0.004	Yes	3.02	-0.004	4.0	GoodResponse	0	0.191	n/a	9	70	ButtonPress	AvoidedLoss	True
666.677	0.36	Lose2	0.662	n/a	Yes	3.02	n/a	n/a	GoodResponse	0	n/a	n/a	9	70	Blank	AvoidedLoss	True
667.028	1.45	Lose2	0.662	n/a	Yes	3.02	n/a	5.0	GoodResponse	0	0.02	666.048	9	70	Feedback	AvoidedLoss	True
668.482	3.02	Lose2	0.662	n/a	Yes	3.02	n/a	n/a	GoodResponse	0	0.0	n/a	9	70	ISIslide	AvoidedLoss	True
671.525	0.25	Win2	0.6667000000000001	0.0	Yes	2.725	0.025	n/a	GoodResponse	1	n/a	n/a	10	71	Cue	Win	True
671.775	4.05	Win2	0.6667000000000001	0.001	Yes	2.725	0.0	n/a	GoodResponse	1	n/a	n/a	10	71	Fixation	Win	True
675.821	0.34	Win2	0.6667000000000001	0.004	Yes	2.725	-0.004	4.0	GoodResponse	1	0.174	674.995	10	71	Target	Win	True
675.995	0.3	Win2	0.6667000000000001	0.004	Yes	2.725	-0.004	4.0	GoodResponse	1	0.174	n/a	10	71	ButtonPress	Win	True
676.172	0.36	Win2	0.6667000000000001	n/a	Yes	2.725	n/a	n/a	GoodResponse	1	n/a	n/a	10	71	Blank	Win	True
676.523	1.45	Win2	0.6667000000000001	n/a	Yes	2.725	n/a	5.0	GoodResponse	1	0.037	675.56	10	71	Feedback	Win	True
677.977	2.725	Win2	0.6667000000000001	n/a	Yes	2.725	n/a	n/a	GoodResponse	1	0.0	n/a	10	71	ISIslide	Win	True
680.719	0.25	Win2	0.6712	0.0	Yes	2.781	0.019	n/a	GoodResponse	1	n/a	n/a	11	72	Cue	Win	True
680.97	4.1	Win2	0.6712	0.0	Yes	2.781	0.001	n/a	GoodResponse	1	n/a	n/a	11	72	Fixation	Win	True
685.065	0.33	Win2	0.6712	0.004	Yes	2.781	-0.004	4.0	GoodResponse	1	0.188	684.253	11	72	Target	Win	True
685.253	0.3	Win2	0.6712	0.004	Yes	2.781	-0.004	4.0	GoodResponse	1	0.188	n/a	11	72	ButtonPress	Win	True
685.4	0.37	Win2	0.6712	n/a	Yes	2.781	n/a	n/a	GoodResponse	1	n/a	n/a	11	72	Blank	Win	True
685.767	1.45	Win2	0.6712	n/a	Yes	2.781	n/a	5.0	GoodResponse	1	0.013	684.78	11	72	Feedback	Win	True
687.222	2.781	Win2	0.6712	n/a	Yes	2.781	n/a	n/a	GoodResponse	1	0.0	n/a	11	72	ISIslide	Win	True
690.03	0.25	Win2	0.6757	0.0	Yes	2.67	0.03	n/a	GoodResponse	1	n/a	n/a	12	73	Cue	Win	True
690.281	4.0	Win2	0.6757	0.0	Yes	2.67	0.001	n/a	GoodResponse	1	n/a	n/a	12	73	Fixation	Win	True
694.276	0.32	Win2	0.6757	0.004	Yes	2.67	-0.004	4.0	GoodResponse	1	0.2	693.476	12	73	Target	Win	True
694.476	0.3	Win2	0.6757	0.004	Yes	2.67	-0.004	4.0	GoodResponse	1	0.2	n/a	12	73	ButtonPress	Win	True
694.611	0.38	Win2	0.6757	n/a	Yes	2.67	n/a	n/a	GoodResponse	1	n/a	n/a	12	73	Blank	Win	True
694.978	1.45	Win2	0.6757	n/a	Yes	2.67	n/a	5.0	GoodResponse	1	0.021	693.999	12	73	Feedback	Win	True
696.433	2.67	Win2	0.6757	n/a	Yes	2.67	n/a	n/a	GoodResponse	1	0.0	n/a	12	73	ISIslide	Win	True
699.124	0.25	Lose2	0.68	0.0	Yes	2.626	0.024	n/a	GoodResponse	0	n/a	n/a	12	74	Cue	AvoidedLoss	True
699.375	4.05	Lose2	0.68	0.0	Yes	2.626	0.001	n/a	GoodResponse	0	n/a	n/a	12	74	Fixation	AvoidedLoss	True
703.42	0.31	Lose2	0.68	0.004	Yes	2.626	-0.004	4.0	GoodResponse	0	0.241	702.661	12	74	Target	AvoidedLoss	True
703.661	0.3	Lose2	0.68	0.004	Yes	2.626	-0.004	4.0	GoodResponse	0	0.241	n/a	12	74	ButtonPress	AvoidedLoss	True
703.738	0.39	Lose2	0.68	n/a	Yes	2.626	n/a	n/a	GoodResponse	0	n/a	n/a	12	74	Blank	AvoidedLoss	True
704.123	1.45	Lose2	0.68	n/a	Yes	2.626	n/a	5.0	GoodResponse	0	0.047	703.17	12	74	Feedback	AvoidedLoss	True
705.577	2.626	Lose2	0.68	n/a	Yes	2.626	n/a	n/a	GoodResponse	0	0.0	n/a	12	74	ISIslide	AvoidedLoss	True
708.218	0.25	Lose2	0.6842	0.0	Yes	2.932	0.018	n/a	GoodResponse	0	n/a	n/a	12	75	Cue	AvoidedLoss	True
708.469	3.95	Lose2	0.6842	0.0	Yes	2.932	0.001	n/a	GoodResponse	0	n/a	n/a	12	75	Fixation	AvoidedLoss	True
712.414	0.3	Lose2	0.6842	0.004	Yes	2.932	-0.004	4.0	GoodResponse	0	0.23	711.644	12	75	Target	AvoidedLoss	True
712.644	0.3	Lose2	0.6842	0.004	Yes	2.932	-0.004	4.0	GoodResponse	0	0.23	n/a	12	75	ButtonPress	AvoidedLoss	True
712.715	0.4	Lose2	0.6842	n/a	Yes	2.932	n/a	n/a	GoodResponse	0	n/a	n/a	12	75	Blank	AvoidedLoss	True
713.116	1.45	Lose2	0.6842	n/a	Yes	2.932	n/a	5.0	GoodResponse	0	0.029	712.145	12	75	Feedback	AvoidedLoss	True
714.571	2.932	Lose2	0.6842	n/a	Yes	2.932	n/a	n/a	GoodResponse	0	0.0	n/a	12	75	ISIslide	AvoidedLoss	True
717.513	0.25	Control	0.6753	0.0	No	3.237	0.013	n/a	NoResponse	0	n/a	n/a	12	76	Cue	Neutral	True
717.763	4.05	Control	0.6753	0.0	No	3.237	0.0	n/a	NoResponse	0	n/a	n/a	12	76	Fixation	Neutral	True
721.809	0.29	Control	0.6753	0.004	No	3.237	-0.004	4.0	NoResponse	0	0.317	721.126	12	76	Target	Neutral	True
722.11	0.41	Control	0.6753	n/a	No	3.237	n/a	n/a	NoResponse	0	n/a	n/a	12	76	Blank	Neutral	True
722.126	0.3	Control	0.6753	0.004	No	3.237	-0.004	4.0	NoResponse	0	0.317	n/a	12	76	ButtonPress	Neutral	True
722.511	1.45	Control	0.6753	n/a	No	3.237	n/a	5.0	NoResponse	0	0.0	721.511	12	76	Feedback	Neutral	True
723.965	3.237	Control	0.6753	n/a	No	3.237	n/a	n/a	NoResponse	0	0.0	n/a	12	76	ISIslide	Neutral	True
727.225	0.25	Lose2	0.6795	0.0	Yes	2.575	0.025	n/a	GoodResponse	0	n/a	n/a	12	77	Cue	AvoidedLoss	True
727.476	3.95	Lose2	0.6795	0.0	Yes	2.575	0.001	n/a	GoodResponse	0	n/a	n/a	12	77	Fixation	AvoidedLoss	True
731.421	0.28	Lose2	0.6795	0.004	Yes	2.575	-0.004	4.0	GoodResponse	0	0.253	730.674	12	77	Target	AvoidedLoss	True
731.674	0.3	Lose2	0.6795	0.004	Yes	2.575	-0.004	4.0	GoodResponse	0	0.253	n/a	12	77	ButtonPress	AvoidedLoss	True
731.705	0.42	Lose2	0.6795	n/a	Yes	2.575	n/a	n/a	GoodResponse	0	n/a	n/a	12	77	Blank	AvoidedLoss	True
732.123	1.45	Lose2	0.6795	n/a	Yes	2.575	n/a	5.0	GoodResponse	0	0.047	731.17	12	77	Feedback	AvoidedLoss	True
733.578	2.575	Lose2	0.6795	n/a	Yes	2.575	n/a	n/a	GoodResponse	0	0.0	n/a	12	77	ISIslide	AvoidedLoss	True
