onset	duration	cue_type	current_mean_accuracy	duration_error	is_hit	isi_adjusted	onset_delay	response	response_type	reward	rt	rt_time	total_reward	trial_number	trial_phase	trial_type	one_press
11.109	0.25	Control	1.0	0.0	Yes	2.941	0.009	n/a	GoodResponse	0	n/a	n/a	0	0	Cue	Neutral	True
11.36	3.85	Control	1.0	0.0	Yes	2.941	0.001	n/a	GoodResponse	0	n/a	n/a	0	0	Fixation	Neutral	True
15.221	0.4	Control	1.0	0.0	Yes	2.941	0.012	2.0	GoodResponse	0	0.235	14.456	0	0	Target	Neutral	True
15.456	0.3	Control	1.0	0.0	Yes	2.941	0.012	2.0	GoodResponse	0	0.235	n/a	0	0	ButtonPress	Neutral	True
15.606	0.3	Control	1.0	n/a	Yes	2.941	n/a	n/a	GoodResponse	0	n/a	n/a	0	0	Blank	Neutral	True
15.907	1.45	Control	1.0	n/a	Yes	2.941	n/a	5.0	GoodResponse	0	0.02	14.927	0	0	Feedback	Neutral	True
17.361	2.941	Control	1.0	n/a	Yes	2.941	n/a	n/a	GoodResponse	0	0.0	n/a	0	0	ISIslide	Neutral	True
20.32	0.25	Lose2	1.0	0.0	Yes	2.78	0.02	n/a	GoodResponse	0	n/a	n/a	0	1	Cue	AvoidedLoss	True
20.571	4.0	Lose2	1.0	0.0	Yes	2.78	0.001	n/a	GoodResponse	0	n/a	n/a	0	1	Fixation	AvoidedLoss	True
24.566	0.39	Lose2	1.0	0.004	Yes	2.78	-0.004	2.0	GoodResponse	0	0.225	23.791	0	1	Target	AvoidedLoss	True
24.791	0.3	Lose2	1.0	0.004	Yes	2.78	-0.004	2.0	GoodResponse	0	0.225	n/a	0	1	ButtonPress	AvoidedLoss	True
24.967	0.31	Lose2	1.0	n/a	Yes	2.78	n/a	n/a	GoodResponse	0	n/a	n/a	0	1	Blank	AvoidedLoss	True
25.268	1.45	Lose2	1.0	n/a	Yes	2.78	n/a	5.0	GoodResponse	0	0.024	24.292	0	1	Feedback	AvoidedLoss	True
26.722	2.78	Lose2	1.0	n/a	Yes	2.78	n/a	n/a	GoodResponse	0	0.0	n/a	0	1	ISIslide	AvoidedLoss	True
29.531	0.25	Control	1.0	0.0	Yes	2.569	0.031	n/a	GoodResponse	0	n/a	n/a	0	2	Cue	Neutral	True
29.781	4.1	Control	1.0	0.001	Yes	2.569	0.0	n/a	GoodResponse	0	n/a	n/a	0	2	Fixation	Neutral	True
33.877	0.38	Control	1.0	0.004	Yes	2.569	-0.004	2.0	GoodResponse	0	0.268	33.145	0	2	Target	Neutral	True
34.145	0.3	Control	1.0	0.004	Yes	2.569	-0.004	2.0	GoodResponse	0	0.268	n/a	0	2	ButtonPress	Neutral	True
34.262	0.32	Control	1.0	n/a	Yes	2.569	n/a	n/a	GoodResponse	0	n/a	n/a	0	2	Blank	Neutral	True
34.579	1.45	Control	1.0	n/a	Yes	2.569	n/a	5.0	GoodResponse	0	0.03	33.609	0	2	Feedback	Neutral	True
36.034	2.569	Control	1.0	n/a	Yes	2.569	n/a	n/a	GoodResponse	0	0.0	n/a	0	2	ISIslide	Neutral	True
38.625	0.25	Win2	1.0	0.0	Yes	2.825	0.025	n/a	GoodResponse	1	n/a	n/a	1	3	Cue	Win	True
38.875	3.95	Win2	1.0	0.0	Yes	2.825	0.0	n/a	GoodResponse	1	n/a	n/a	1	3	Fixation	Win	True
42.821	0.37	Win2	1.0	0.004	Yes	2.825	-0.004	2.0	GoodResponse	1	0.301	42.122	1	3	Target	Win	True
43.122	0.3	Win2	1.0	0.004	Yes	2.825	-0.004	2.0	GoodResponse	1	0.301	n/a	1	3	ButtonPress	Win	True
43.205	0.33	Win2	1.0	n/a	Yes	2.825	n/a	n/a	GoodResponse	1	n/a	n/a	1	3	Blank	Win	True
43.523	1.45	Win2	1.0	n/a	Yes	2.825	n/a	5.0	GoodResponse	1	0.013	42.536	1	3	Feedback	Win	True
44.977	2.825	Win2	1.0	n/a	Yes	2.825	n/a	n/a	GoodResponse	1	0.0	n/a	1	3	ISIslide	Win	True
47.819	0.25	Win2	1.0	0.0	Yes	3.281	0.019	n/a	GoodResponse	1	n/a	n/a	2	4	Cue	Win	True
48.07	4.0	Win2	1.0	0.0	Yes	3.281	0.001	n/a	GoodResponse	1	n/a	n/a	2	4	Fixation	Win	True
52.065	0.36	Win2	1.0	0.004	Yes	3.281	-0.004	2.0	GoodResponse	1	0.233	51.298	2	4	Target	Win	True
52.298	0.3	Win2	1.0	0.004	Yes	3.281	-0.004	2.0	GoodResponse	1	0.233	n/a	2	4	ButtonPress	Win	True
52.433	0.34	Win2	1.0	n/a	Yes	3.281	n/a	n/a	GoodResponse	1	n/a	n/a	2	4	Blank	Win	True
52.767	1.45	Win2	1.0	n/a	Yes	3.281	n/a	5.0	GoodResponse	1	0.037	51.804	2	4	Feedback	Win	True
54.221	3.281	Win2	1.0	n/a	Yes	3.281	n/a	n/a	GoodResponse	1	0.0	n/a	2	4	ISIslide	Win	True
57.515	0.25	Win2	1.0	0.0	Yes	2.785	0.015	n/a	GoodResponse	1	n/a	n/a	3	5	Cue	Win	True
57.765	4.0	Win2	1.0	0.0	Yes	2.785	0.0	n/a	GoodResponse	1	n/a	n/a	3	5	Fixation	Win	True
61.761	0.35	Win2	1.0	0.004	Yes	2.785	-0.004	2.0	GoodResponse	1	0.252	61.013	3	5	Target	Win	True
62.013	0.3	Win2	1.0	0.004	Yes	2.785	-0.004	2.0	GoodResponse	1	0.252	n/a	3	5	ButtonPress	Win	True
62.112	0.35	Win2	1.0	n/a	Yes	2.785	n/a	n/a	GoodResponse	1	n/a	n/a	3	5	Blank	Win	True
62.463	1.45	Win2	1.0	n/a	Yes	2.785	n/a	5.0	GoodResponse	1	0.0	61.463	3	5	Feedback	Win	True
63.917	2.785	Win2	1.0	n/a	Yes	2.785	n/a	n/a	GoodResponse	1	0.0	n/a	3	5	ISIslide	Win	True
66.726	0.25	Lose2	1.0	0.0	Yes	2.724	0.026	n/a	GoodResponse	0	n/a	n/a	3	6	Cue	AvoidedLoss	True
66.976	3.95	Lose2	1.0	0.0	Yes	2.724	0.0	n/a	GoodResponse	0	n/a	n/a	3	6	Fixation	AvoidedLoss	True
70.938	0.34	Lose2	1.0	0.0	Yes	2.724	0.012	2.0	GoodResponse	0	0.21	70.148	3	6	Target	AvoidedLoss	True
71.148	0.3	Lose2	1.0	0.0	Yes	2.724	0.012	2.0	GoodResponse	0	0.21	n/a	3	6	ButtonPress	AvoidedLoss	True
71.272	0.36	Lose2	1.0	n/a	Yes	2.724	n/a	n/a	GoodResponse	0	n/a	n/a	3	6	Blank	AvoidedLoss	True
71.624	1.45	Lose2	1.0	n/a	Yes	2.724	n/a	5.0	GoodResponse	0	0.01	70.634	3	6	Feedback	AvoidedLoss	True
73.078	2.724	Lose2	1.0	n/a	Yes	2.724	n/a	n/a	GoodResponse	0	0.0	n/a	3	6	ISIslide	AvoidedLoss	True
75.819	0.25	Lose2	1.0	0.0	Yes	4.031	0.019	n/a	GoodResponse	0	n/a	n/a	3	7	Cue	AvoidedLoss	True
76.07	4.05	Lose2	1.0	0.0	Yes	4.031	0.001	n/a	GoodResponse	0	n/a	n/a	3	7	Fixation	AvoidedLoss	True
80.116	0.33	Lose2	1.0	0.003	Yes	4.031	-0.003	2.0	GoodResponse	0	0.322	79.438	3	7	Target	AvoidedLoss	True
80.438	0.3	Lose2	1.0	0.003	Yes	4.031	-0.003	2.0	GoodResponse	0	0.322	n/a	3	7	ButtonPress	AvoidedLoss	True
80.45	0.37	Lose2	1.0	n/a	Yes	4.031	n/a	n/a	GoodResponse	0	n/a	n/a	3	7	Blank	AvoidedLoss	True
80.818	1.45	Lose2	1.0	n/a	Yes	4.031	n/a	5.0	GoodResponse	0	0.035	79.853	3	7	Feedback	AvoidedLoss	True
82.272	4.031	Lose2	1.0	n/a	Yes	4.031	n/a	n/a	GoodResponse	0	0.0	n/a	3	7	ISIslide	AvoidedLoss	True
86.318	0.25	Lose2	1.0	0.0	Yes	3.032	0.018	n/a	GoodResponse	0	n/a	n/a	3	8	Cue	AvoidedLoss	True
86.568	3.95	Lose2	1.0	0.0	Yes	3.032	0.0	n/a	GoodResponse	0	n/a	n/a	3	8	Fixation	AvoidedLoss	True
90.53	0.32	Lose2	1.0	0.0	Yes	3.032	0.012	2.0	GoodResponse	0	0.286	89.816	3	8	Target	AvoidedLoss	True
90.816	0.3	Lose2	1.0	0.0	Yes	3.032	0.012	2.0	GoodResponse	0	0.286	n/a	3	8	ButtonPress	AvoidedLoss	True
90.848	0.38	Lose2	1.0	n/a	Yes	3.032	n/a	n/a	GoodResponse	0	n/a	n/a	3	8	Blank	AvoidedLoss	True
91.216	1.45	Lose2	1.0	n/a	Yes	3.032	n/a	5.0	GoodResponse	0	0.027	90.243	3	8	Feedback	AvoidedLoss	True
92.67	3.032	Lose2	1.0	n/a	Yes	3.032	n/a	n/a	GoodResponse	0	0.0	n/a	3	8	ISIslide	AvoidedLoss	True
95.729	0.25	Lose2	1.0	0.0	Yes	3.121	0.029	n/a	GoodResponse	0	n/a	n/a	3	9	Cue	AvoidedLoss	True
95.98	3.95	Lose2	1.0	0.0	Yes	3.121	0.001	n/a	GoodResponse	0	n/a	n/a	3	9	Fixation	AvoidedLoss	True
99.925	0.31	Lose2	1.0	0.004	Yes	3.121	-0.004	2.0	GoodResponse	0	0.238	99.163	3	9	Target	AvoidedLoss	True
100.163	0.3	Lose2	1.0	0.004	Yes	3.121	-0.004	2.0	GoodResponse	0	0.238	n/a	3	9	ButtonPress	AvoidedLoss	True
100.243	0.39	Lose2	1.0	n/a	Yes	3.121	n/a	n/a	GoodResponse	0	n/a	n/a	3	9	Blank	AvoidedLoss	True
100.627	1.45	Lose2	1.0	n/a	Yes	3.121	n/a	5.0	GoodResponse	0	0.03	99.657	3	9	Feedback	AvoidedLoss	True
102.081	3.121	Lose2	1.0	n/a	Yes	3.121	n/a	n/a	GoodResponse	0	0.0	n/a	3	9	ISIslide	AvoidedLoss	True
105.224	0.25	Control	1.0	0.0	Yes	3.276	0.024	n/a	GoodResponse	0	n/a	n/a	3	10	Cue	Neutral	True
105.475	4.0	Control	1.0	0.0	Yes	3.276	0.001	n/a	GoodResponse	0	n/a	n/a	3	10	Fixation	Neutral	True
109.47	0.3	Control	1.0	0.004	Yes	3.276	-0.004	2.0	GoodResponse	0	0.232	108.702	3	10	Target	Neutral	True
109.702	0.3	Control	1.0	0.004	Yes	3.276	-0.004	2.0	GoodResponse	0	0.232	n/a	3	10	ButtonPress	Neutral	True
109.771	0.4	Control	1.0	n/a	Yes	3.276	n/a	n/a	GoodResponse	0	n/a	n/a	3	10	Blank	Neutral	True
110.172	1.45	Control	1.0	n/a	Yes	3.276	n/a	5.0	GoodResponse	0	0.047	109.219	3	10	Feedback	Neutral	True
111.627	3.276	Control	1.0	n/a	Yes	3.276	n/a	n/a	GoodResponse	0	0.0	n/a	3	10	ISIslide	Neutral	True
114.92	0.25	Lose2	1.0	0.0	Yes	2.73	0.02	n/a	GoodResponse	0	n/a	n/a	3	11	Cue	AvoidedLoss	True
115.171	4.05	Lose2	1.0	0.0	Yes	2.73	0.001	n/a	GoodResponse	0	n/a	n/a	3	11	Fixation	AvoidedLoss	True
119.216	0.29	Lose2	1.0	0.004	Yes	2.73	-0.004	2.0	GoodResponse	0	0.242	118.458	3	11	Target	AvoidedLoss	True
119.458	0.3	Lose2	1.0	0.004	Yes	2.73	-0.004	2.0	GoodResponse	0	0.242	n/a	3	11	ButtonPress	AvoidedLoss	True
119.517	0.41	Lose2	1.0	n/a	Yes	2.73	n/a	n/a	GoodResponse	0	n/a	n/a	3	11	Blank	AvoidedLoss	True
119.918	1.45	Lose2	1.0	n/a	Yes	2.73	n/a	5.0	GoodResponse	0	0.008	118.926	3	11	Feedback	AvoidedLoss	True
121.373	2.73	Lose2	1.0	n/a	Yes	2.73	n/a	n/a	GoodResponse	0	0.0	n/a	3	11	ISIslide	AvoidedLoss	True
124.114	0.25	Control	0.9231	0.0	No	2.986	0.014	n/a	NoResponse	0	n/a	n/a	3	12	Cue	Neutral	True
124.365	3.9	Control	0.9231	0.0	No	2.986	0.001	n/a	NoResponse	0	n/a	n/a	3	12	Fixation	Neutral	True
128.26	0.28	Control	0.9231	0.004	No	2.986	-0.004	2.0	NoResponse	0	0.325	127.585	3	12	Target	Neutral	True
128.544	0.42	Control	0.9231	n/a	No	2.986	n/a	n/a	NoResponse	0	n/a	n/a	3	12	Blank	Neutral	True
128.585	0.3	Control	0.9231	0.004	No	2.986	-0.004	2.0	NoResponse	0	0.325	n/a	3	12	ButtonPress	Neutral	True
128.962	1.45	Control	0.9231	n/a	No	2.986	n/a	5.0	NoResponse	0	0.037	127.999	3	12	Feedback	Neutral	True
130.416	2.986	Control	0.9231	n/a	No	2.986	n/a	n/a	NoResponse	0	0.0	n/a	3	12	ISIslide	Neutral	True
133.425	0.25	Control	0.9286	0.0	Yes	2.775	0.025	n/a	GoodResponse	0	n/a	n/a	3	13	Cue	Neutral	True
133.676	4.0	Control	0.9286	0.0	Yes	2.775	0.001	n/a	GoodResponse	0	n/a	n/a	3	13	Fixation	Neutral	True
137.671	0.27	Control	0.9286	0.004	Yes	2.775	-0.004	2.0	GoodResponse	0	0.234	136.905	3	13	Target	Neutral	True
137.905	0.3	Control	0.9286	0.004	Yes	2.775	-0.004	2.0	GoodResponse	0	0.234	n/a	3	13	ButtonPress	Neutral	True
137.956	0.43	Control	0.9286	n/a	Yes	2.775	n/a	n/a	GoodResponse	0	n/a	n/a	3	13	Blank	Neutral	True
138.374	1.45	Control	0.9286	n/a	Yes	2.775	n/a	5.0	GoodResponse	0	0.04	137.414	3	13	Feedback	Neutral	True
139.828	2.775	Control	0.9286	n/a	Yes	2.775	n/a	n/a	GoodResponse	0	0.0	n/a	3	13	ISIslide	Neutral	True
142.62	0.25	Win2	0.9333	0.0	Yes	2.68	0.02	n/a	GoodResponse	1	n/a	n/a	4	14	Cue	Win	True
142.87	4.1	Win2	0.9333	0.0	Yes	2.68	0.0	n/a	GoodResponse	1	n/a	n/a	4	14	Fixation	Win	True
146.966	0.26	Win2	0.9333	0.004	Yes	2.68	-0.004	2.0	GoodResponse	1	0.244	146.21	4	14	Target	Win	True
147.21	0.3	Win2	0.9333	0.004	Yes	2.68	-0.004	2.0	GoodResponse	1	0.244	n/a	4	14	ButtonPress	Win	True
147.233	0.44	Win2	0.9333	n/a	Yes	2.68	n/a	n/a	GoodResponse	1	n/a	n/a	4	14	Blank	Win	True
147.668	1.45	Win2	0.9333	n/a	Yes	2.68	n/a	5.0	GoodResponse	1	0.013	146.681	4	14	Feedback	Win	True
149.122	2.68	Win2	0.9333	n/a	Yes	2.68	n/a	n/a	GoodResponse	1	0.0	n/a	4	14	ISIslide	Win	True
151.814	0.25	Control	0.875	0.0	No	2.986	0.014	n/a	NoResponse	0	n/a	n/a	4	15	Cue	Neutral	True
152.065	4.0	Control	0.875	0.0	No	2.986	0.001	n/a	NoResponse	0	n/a	n/a	4	15	Fixation	Neutral	True
156.06	0.25	Control	0.875	0.004	No	2.986	-0.004	2.0	NoResponse	0	0.26	155.32	4	15	Target	Neutral	True
156.311	0.45	Control	0.875	n/a	No	2.986	n/a	n/a	NoResponse	0	n/a	n/a	4	15	Blank	Neutral	True
156.32	0.3	Control	0.875	0.004	No	2.986	-0.004	2.0	NoResponse	0	0.26	n/a	4	15	ButtonPress	Neutral	True
156.762	1.45	Control	0.875	n/a	No	2.986	n/a	5.0	NoResponse	0	0.041	155.803	4	15	Feedback	Neutral	True
158.216	2.986	Control	0.875	n/a	No	2.986	n/a	n/a	NoResponse	0	0.0	n/a	4	15	ISIslide	Neutral	True
161.225	0.25	Win2	0.8824	0.0	Yes	2.875	0.025	n/a	GoodResponse	1	n/a	n/a	5	16	Cue	Win	True
161.476	4.0	Win2	0.8824	0.0	Yes	2.875	0.001	n/a	GoodResponse	1	n/a	n/a	5	16	Fixation	Win	True
165.471	0.24	Win2	0.8824	0.004	Yes	2.875	-0.004	2.0	GoodResponse	1	0.213	164.684	5	16	Target	Win	True
165.684	0.3	Win2	0.8824	0.004	Yes	2.875	-0.004	2.0	GoodResponse	1	0.213	n/a	5	16	ButtonPress	Win	True
165.722	0.46	Win2	0.8824	n/a	Yes	2.875	n/a	n/a	GoodResponse	1	n/a	n/a	5	16	Blank	Win	True
166.173	1.45	Win2	0.8824	n/a	Yes	2.875	n/a	5.0	GoodResponse	1	0.045	165.218	5	16	Feedback	Win	True
167.628	2.875	Win2	0.8824	n/a	Yes	2.875	n/a	n/a	GoodResponse	1	0.0	n/a	5	16	ISIslide	Win	True
170.52	0.25	Lose2	0.8332999999999999	0.0	No	2.73	0.02	n/a	NoResponse	-1	n/a	n/a	4	17	Cue	Loss	True
170.771	3.95	Lose2	0.8332999999999999	0.0	No	2.73	0.001	n/a	NoResponse	-1	n/a	n/a	4	17	Fixation	Loss	True
174.716	0.23	Lose2	0.8332999999999999	0.004	No	2.73	-0.004	2.0	NoResponse	-1	0.281	173.997	4	17	Target	Loss	True
174.95	0.47	Lose2	0.8332999999999999	n/a	No	2.73	n/a	n/a	NoResponse	-1	n/a	n/a	4	17	Blank	Loss	True
174.997	0.3	Lose2	0.8332999999999999	0.004	No	2.73	-0.004	2.0	NoResponse	-1	0.281	n/a	4	17	ButtonPress	Loss	True
175.418	1.45	Lose2	0.8332999999999999	n/a	No	2.73	n/a	5.0	NoResponse	-1	0.02	174.438	4	17	Feedback	Loss	True
176.872	2.73	Lose2	0.8332999999999999	n/a	No	2.73	n/a	n/a	NoResponse	-1	0.0	n/a	4	17	ISIslide	Loss	True
179.63	0.25	Lose2	0.8421	0.001	Yes	2.72	0.03	n/a	GoodResponse	0	n/a	n/a	4	18	Cue	AvoidedLoss	True
179.881	4.05	Lose2	0.8421	0.0	Yes	2.72	0.001	n/a	GoodResponse	0	n/a	n/a	4	18	Fixation	AvoidedLoss	True
183.927	0.22	Lose2	0.8421	0.003	Yes	2.72	-0.003	2.0	GoodResponse	0	0.206	183.133	4	18	Target	AvoidedLoss	True
184.133	0.3	Lose2	0.8421	0.003	Yes	2.72	-0.003	2.0	GoodResponse	0	0.206	n/a	4	18	ButtonPress	AvoidedLoss	True
184.161	0.48	Lose2	0.8421	n/a	Yes	2.72	n/a	n/a	GoodResponse	0	n/a	n/a	4	18	Blank	AvoidedLoss	True
184.629	1.45	Lose2	0.8421	n/a	Yes	2.72	n/a	5.0	GoodResponse	0	0.028	183.657	4	18	Feedback	AvoidedLoss	True
186.083	2.72	Lose2	0.8421	n/a	Yes	2.72	n/a	n/a	GoodResponse	0	0.0	n/a	4	18	ISIslide	AvoidedLoss	True
188.825	0.25	Control	0.85	0.0	Yes	2.925	0.025	n/a	GoodResponse	0	n/a	n/a	4	19	Cue	Neutral	True
189.075	3.95	Control	0.85	0.001	Yes	2.925	0.0	n/a	GoodResponse	0	n/a	n/a	4	19	Fixation	Neutral	True
193.021	0.21	Control	0.85	0.004	Yes	2.925	-0.004	2.0	GoodResponse	0	0.209	192.23	4	19	Target	Neutral	True
193.23	0.3	Control	0.85	0.004	Yes	2.925	-0.004	2.0	GoodResponse	0	0.209	n/a	4	19	ButtonPress	Neutral	True
193.238	0.49	Control	0.85	n/a	Yes	2.925	n/a	n/a	GoodResponse	0	n/a	n/a	4	19	Blank	Neutral	True
193.723	1.45	Control	0.85	n/a	Yes	2.925	n/a	5.0	GoodResponse	0	0.008	192.731	4	19	Feedback	Neutral	True
195.177	2.925	Control	0.85	n/a	Yes	2.925	n/a	n/a	GoodResponse	0	0.0	n/a	4	19	ISIslide	Neutral	True
198.119	0.25	Control	0.8095	0.0	No	2.631	0.019	n/a	NoResponse	0	n/a	n/a	4	20	Cue	Neutral	True
198.37	4.05	Control	0.8095	0.0	No	2.631	0.001	n/a	NoResponse	0	n/a	n/a	4	20	Fixation	Neutral	True
202.415	0.2	Control	0.8095	0.004	No	2.631	-0.004	2.0	NoResponse	0	0.297	201.712	4	20	Target	Neutral	True
202.616	0.5	Control	0.8095	n/a	No	2.631	n/a	n/a	NoResponse	0	n/a	n/a	4	20	Blank	Neutral	True
202.712	0.3	Control	0.8095	0.004	No	2.631	-0.004	2.0	NoResponse	0	0.297	n/a	4	20	ButtonPress	Neutral	True
203.118	1.45	Control	0.8095	n/a	No	2.631	n/a	5.0	NoResponse	0	0.027	202.145	4	20	Feedback	Neutral	True
204.572	2.631	Control	0.8095	n/a	No	2.631	n/a	n/a	NoResponse	0	0.0	n/a	4	20	ISIslide	Neutral	True
207.23	0.25	Control	0.7726999999999999	0.0	No	2.77	0.03	n/a	NoResponse	0	n/a	n/a	4	21	Cue	Neutral	True
207.481	4.1	Control	0.7726999999999999	0.0	No	2.77	0.001	n/a	NoResponse	0	n/a	n/a	4	21	Fixation	Neutral	True
211.576	0.19	Control	0.7726999999999999	0.004	No	2.77	-0.004	2.0	NoResponse	0	0.253	210.829	4	21	Target	Neutral	True
211.777	0.51	Control	0.7726999999999999	n/a	No	2.77	n/a	n/a	NoResponse	0	n/a	n/a	4	21	Blank	Neutral	True
211.829	0.3	Control	0.7726999999999999	0.004	No	2.77	-0.004	2.0	NoResponse	0	0.253	n/a	4	21	ButtonPress	Neutral	True
212.278	1.45	Control	0.7726999999999999	n/a	No	2.77	n/a	5.0	NoResponse	0	0.037	211.315	4	21	Feedback	Neutral	True
213.733	2.77	Control	0.7726999999999999	n/a	No	2.77	n/a	n/a	NoResponse	0	0.0	n/a	4	21	ISIslide	Neutral	True
216.524	0.25	Control	0.7391	0.0	No	2.776	0.024	n/a	NoResponse	0	n/a	n/a	4	22	Cue	Neutral	True
216.775	4.0	Control	0.7391	0.0	No	2.776	0.001	n/a	NoResponse	0	n/a	n/a	4	22	Fixation	Neutral	True
220.77	0.18	Control	0.7391	0.004	No	2.776	-0.004	2.0	NoResponse	0	0.299	220.069	4	22	Target	Neutral	True
220.954	0.52	Control	0.7391	n/a	No	2.776	n/a	n/a	NoResponse	0	n/a	n/a	4	22	Blank	Neutral	True
221.069	0.3	Control	0.7391	0.004	No	2.776	-0.004	2.0	NoResponse	0	0.299	n/a	4	22	ButtonPress	Neutral	True
221.473	1.45	Control	0.7391	n/a	No	2.776	n/a	5.0	NoResponse	0	0.013	220.486	4	22	Feedback	Neutral	True
222.927	2.776	Control	0.7391	n/a	No	2.776	n/a	n/a	NoResponse	0	0.0	n/a	4	22	ISIslide	Neutral	True
225.719	0.25	Control	0.7082999999999999	0.0	No	2.781	0.019	n/a	NoResponse	0	n/a	n/a	4	23	Cue	Neutral	True
225.969	3.9	Control	0.7082999999999999	0.0	No	2.781	0.0	n/a	NoResponse	0	n/a	n/a	4	23	Fixation	Neutral	True
229.881	0.17	Control	0.7082999999999999	0.0	No	2.781	0.012	2.0	NoResponse	0	0.19	229.071	4	23	Target	Neutral	True
230.048	0.53	Control	0.7082999999999999	n/a	No	2.781	n/a	n/a	NoResponse	0	n/a	n/a	4	23	Blank	Neutral	True
230.071	0.3	Control	0.7082999999999999	0.0	No	2.781	0.012	2.0	NoResponse	0	0.19	n/a	4	23	ButtonPress	Neutral	True
230.566	1.45	Control	0.7082999999999999	n/a	No	2.781	n/a	5.0	NoResponse	0	0.042	229.608	4	23	Feedback	Neutral	True
232.021	2.781	Control	0.7082999999999999	n/a	No	2.781	n/a	n/a	NoResponse	0	0.0	n/a	4	23	ISIslide	Neutral	True
234.829	0.25	Win2	0.68	0.0	No	3.121	0.029	n/a	NoResponse	0	n/a	n/a	4	24	Cue	MissedWin	True
235.08	3.95	Win2	0.68	0.0	No	3.121	0.001	n/a	NoResponse	0	n/a	n/a	4	24	Fixation	MissedWin	True
239.025	0.16	Win2	0.68	0.004	No	3.121	-0.004	2.0	NoResponse	0	0.208	238.233	4	24	Target	MissedWin	True
239.192	0.54	Win2	0.68	n/a	No	3.121	n/a	n/a	NoResponse	0	n/a	n/a	4	24	Blank	MissedWin	True
239.233	0.3	Win2	0.68	0.004	No	3.121	-0.004	2.0	NoResponse	0	0.208	n/a	4	24	ButtonPress	MissedWin	True
239.727	1.45	Win2	0.68	n/a	No	3.121	n/a	5.0	NoResponse	0	0.005	238.732	4	24	Feedback	MissedWin	True
241.182	3.121	Win2	0.68	n/a	No	3.121	n/a	n/a	NoResponse	0	0.0	n/a	4	24	ISIslide	MissedWin	True
244.324	0.25	Win2	0.6537999999999999	0.0	No	3.076	0.024	n/a	NoResponse	0	n/a	n/a	4	25	Cue	MissedWin	True
244.575	4.0	Win2	0.6537999999999999	0.0	No	3.076	0.001	n/a	NoResponse	0	n/a	n/a	4	25	Fixation	MissedWin	True
248.57	0.15	Win2	0.6537999999999999	0.004	No	3.076	-0.004	2.0	NoResponse	0	0.198	247.768	4	25	Target	MissedWin	True
248.721	0.55	Win2	0.6537999999999999	n/a	No	3.076	n/a	n/a	NoResponse	0	n/a	n/a	4	25	Blank	MissedWin	True
248.768	0.3	Win2	0.6537999999999999	0.004	No	3.076	-0.004	2.0	NoResponse	0	0.198	n/a	4	25	ButtonPress	MissedWin	True
249.272	1.45	Win2	0.6537999999999999	n/a	No	3.076	n/a	5.0	NoResponse	0	0.019	248.291	4	25	Feedback	MissedWin	True
250.727	3.076	Win2	0.6537999999999999	n/a	No	3.076	n/a	n/a	NoResponse	0	0.0	n/a	4	25	ISIslide	MissedWin	True
253.819	0.25	Win2	0.6296	0.001	No	2.931	0.019	n/a	NoResponse	0	n/a	n/a	4	26	Cue	MissedWin	True
254.07	3.95	Win2	0.6296	0.0	No	2.931	0.001	n/a	NoResponse	0	n/a	n/a	4	26	Fixation	MissedWin	True
258.015	0.16	Win2	0.6296	0.004	No	2.931	-0.004	2.0	NoResponse	0	0.253	257.268	4	26	Target	MissedWin	True
258.183	0.54	Win2	0.6296	n/a	No	2.931	n/a	n/a	NoResponse	0	n/a	n/a	4	26	Blank	MissedWin	True
258.268	0.3	Win2	0.6296	0.004	No	2.931	-0.004	2.0	NoResponse	0	0.253	n/a	4	26	ButtonPress	MissedWin	True
258.717	1.45	Win2	0.6296	n/a	No	2.931	n/a	5.0	NoResponse	0	0.038	257.755	4	26	Feedback	MissedWin	True
260.172	2.931	Win2	0.6296	n/a	No	2.931	n/a	n/a	NoResponse	0	0.0	n/a	4	26	ISIslide	MissedWin	True
263.131	0.25	Lose2	0.6071	0.0	No	2.819	0.031	n/a	LatePress	-1	n/a	n/a	3	27	Cue	Loss	True
263.381	4.05	Lose2	0.6071	0.001	No	2.819	0.0	n/a	LatePress	-1	n/a	n/a	3	27	Fixation	Loss	True
267.427	0.17	Lose2	0.6071	0.004	No	2.819	-0.004	2.0	LatePress	-1	0.183	266.61	3	27	Target	Loss	True
267.61	0.3	Lose2	0.6071	0.004	No	2.819	-0.004	2.0	LatePress	-1	0.183	n/a	3	27	ButtonPress	Loss	True
267.611	0.53	Lose2	0.6071	n/a	No	2.819	n/a	n/a	LatePress	-1	n/a	n/a	3	27	Blank	Loss	True
268.129	1.45	Lose2	0.6071	n/a	No	2.819	n/a	5.0	LatePress	-1	0.039	267.168	3	27	Feedback	Loss	True
269.583	2.819	Lose2	0.6071	n/a	No	2.819	n/a	n/a	LatePress	-1	0.0	n/a	3	27	ISIslide	Loss	True
272.425	0.25	Control	0.5861999999999999	0.0	No	2.825	0.025	n/a	NoResponse	0	n/a	n/a	3	28	Cue	Neutral	True
272.676	4.05	Control	0.5861999999999999	0.0	No	2.825	0.001	n/a	NoResponse	0	n/a	n/a	3	28	Fixation	Neutral	True
276.721	0.18	Control	0.5861999999999999	0.004	No	2.825	-0.004	2.0	NoResponse	0	0.255	275.976	3	28	Target	Neutral	True
276.905	0.52	Control	0.5861999999999999	n/a	No	2.825	n/a	n/a	NoResponse	0	n/a	n/a	3	28	Blank	Neutral	True
276.976	0.3	Control	0.5861999999999999	0.004	No	2.825	-0.004	2.0	NoResponse	0	0.255	n/a	3	28	ButtonPress	Neutral	True
277.424	1.45	Control	0.5861999999999999	n/a	No	2.825	n/a	5.0	NoResponse	0	0.013	276.437	3	28	Feedback	Neutral	True
278.878	2.825	Control	0.5861999999999999	n/a	No	2.825	n/a	n/a	NoResponse	0	0.0	n/a	3	28	ISIslide	Neutral	True
281.72	0.25	Lose2	0.5667	0.0	No	2.83	0.02	n/a	NoResponse	-1	n/a	n/a	2	29	Cue	Loss	True
281.97	3.95	Lose2	0.5667	0.001	No	2.83	0.0	n/a	NoResponse	-1	n/a	n/a	2	29	Fixation	Loss	True
285.916	0.19	Lose2	0.5667	0.004	No	2.83	-0.004	2.0	NoResponse	-1	0.207	285.123	2	29	Target	Loss	True
286.116	0.51	Lose2	0.5667	n/a	No	2.83	n/a	n/a	NoResponse	-1	n/a	n/a	2	29	Blank	Loss	True
286.123	0.3	Lose2	0.5667	0.004	No	2.83	-0.004	2.0	NoResponse	-1	0.207	n/a	2	29	ButtonPress	Loss	True
286.618	1.45	Lose2	0.5667	n/a	No	2.83	n/a	5.0	NoResponse	-1	0.038	285.656	2	29	Feedback	Loss	True
288.072	2.83	Lose2	0.5667	n/a	No	2.83	n/a	n/a	NoResponse	-1	0.0	n/a	2	29	ISIslide	Loss	True
290.931	0.25	Win2	0.5484	0.0	No	2.769	0.031	n/a	NoResponse	0	n/a	n/a	2	30	Cue	MissedWin	True
291.181	3.9	Win2	0.5484	0.0	No	2.769	0.0	n/a	NoResponse	0	n/a	n/a	2	30	Fixation	MissedWin	True
295.093	0.2	Win2	0.5484	0.0	No	2.769	0.012	2.0	NoResponse	0	0.212	294.305	2	30	Target	MissedWin	True
295.277	0.5	Win2	0.5484	n/a	No	2.769	n/a	n/a	NoResponse	0	n/a	n/a	2	30	Blank	MissedWin	True
295.305	0.3	Win2	0.5484	0.0	No	2.769	0.012	2.0	NoResponse	0	0.212	n/a	2	30	ButtonPress	MissedWin	True
295.779	1.45	Win2	0.5484	n/a	No	2.769	n/a	5.0	NoResponse	0	0.0	294.779	2	30	Feedback	MissedWin	True
297.233	2.769	Win2	0.5484	n/a	No	2.769	n/a	n/a	NoResponse	0	0.0	n/a	2	30	ISIslide	MissedWin	True
300.025	0.25	Lose2	0.5625	0.0	Yes	2.825	0.025	n/a	GoodResponse	0	n/a	n/a	2	31	Cue	AvoidedLoss	True
300.275	4.05	Lose2	0.5625	0.0	Yes	2.825	0.0	n/a	GoodResponse	0	n/a	n/a	2	31	Fixation	AvoidedLoss	True
304.321	0.21	Lose2	0.5625	0.004	Yes	2.825	-0.004	2.0	GoodResponse	0	0.167	303.488	2	31	Target	AvoidedLoss	True
304.488	0.3	Lose2	0.5625	0.004	Yes	2.825	-0.004	2.0	GoodResponse	0	0.167	n/a	2	31	ButtonPress	AvoidedLoss	True
304.538	0.49	Lose2	0.5625	n/a	Yes	2.825	n/a	n/a	GoodResponse	0	n/a	n/a	2	31	Blank	AvoidedLoss	True
305.023	1.45	Lose2	0.5625	n/a	Yes	2.825	n/a	5.0	GoodResponse	0	0.024	304.047	2	31	Feedback	AvoidedLoss	True
306.477	2.825	Lose2	0.5625	n/a	Yes	2.825	n/a	n/a	GoodResponse	0	0.0	n/a	2	31	ISIslide	AvoidedLoss	True
309.319	0.25	Lose2	0.5758	0.0	Yes	2.631	0.019	n/a	GoodResponse	0	n/a	n/a	2	32	Cue	AvoidedLoss	True
309.57	4.15	Lose2	0.5758	0.0	Yes	2.631	0.001	n/a	GoodResponse	0	n/a	n/a	2	32	Fixation	AvoidedLoss	True
313.716	0.22	Lose2	0.5758	0.003	Yes	2.631	-0.003	2.0	GoodResponse	0	0.217	312.933	2	32	Target	AvoidedLoss	True
313.933	0.3	Lose2	0.5758	0.003	Yes	2.631	-0.003	2.0	GoodResponse	0	0.217	n/a	2	32	ButtonPress	AvoidedLoss	True
313.95	0.48	Lose2	0.5758	n/a	Yes	2.631	n/a	n/a	GoodResponse	0	n/a	n/a	2	32	Blank	AvoidedLoss	True
314.418	1.45	Lose2	0.5758	n/a	Yes	2.631	n/a	5.0	GoodResponse	0	0.044	313.462	2	32	Feedback	AvoidedLoss	True
315.872	2.631	Lose2	0.5758	n/a	Yes	2.631	n/a	n/a	GoodResponse	0	0.0	n/a	2	32	ISIslide	AvoidedLoss	True
318.513	0.25	Win2	0.5882000000000001	0.0	Yes	2.687	0.013	n/a	GoodResponse	1	n/a	n/a	3	33	Cue	Win	True
318.764	4.0	Win2	0.5882000000000001	0.0	Yes	2.687	0.001	n/a	GoodResponse	1	n/a	n/a	3	33	Fixation	Win	True
322.759	0.23	Win2	0.5882000000000001	0.004	Yes	2.687	-0.004	2.0	GoodResponse	1	0.208	321.967	3	33	Target	Win	True
322.967	0.3	Win2	0.5882000000000001	0.004	Yes	2.687	-0.004	2.0	GoodResponse	1	0.208	n/a	3	33	ButtonPress	Win	True
322.993	0.47	Win2	0.5882000000000001	n/a	Yes	2.687	n/a	n/a	GoodResponse	1	n/a	n/a	3	33	Blank	Win	True
323.461	1.45	Win2	0.5882000000000001	n/a	Yes	2.687	n/a	5.0	GoodResponse	1	0.024	322.485	3	33	Feedback	Win	True
324.916	2.687	Win2	0.5882000000000001	n/a	Yes	2.687	n/a	n/a	GoodResponse	1	0.0	n/a	3	33	ISIslide	Win	True
327.624	0.25	Lose2	0.6	0.0	Yes	2.626	0.024	n/a	GoodResponse	0	n/a	n/a	3	34	Cue	AvoidedLoss	True
327.875	4.05	Lose2	0.6	0.0	Yes	2.626	0.001	n/a	GoodResponse	0	n/a	n/a	3	34	Fixation	AvoidedLoss	True
331.92	0.24	Lose2	0.6	0.004	Yes	2.626	-0.004	2.0	GoodResponse	0	0.228	331.148	3	34	Target	AvoidedLoss	True
332.148	0.3	Lose2	0.6	0.004	Yes	2.626	-0.004	2.0	GoodResponse	0	0.228	n/a	3	34	ButtonPress	AvoidedLoss	True
332.171	0.46	Lose2	0.6	n/a	Yes	2.626	n/a	n/a	GoodResponse	0	n/a	n/a	3	34	Blank	AvoidedLoss	True
332.622	1.45	Lose2	0.6	n/a	Yes	2.626	n/a	5.0	GoodResponse	0	0.034	331.656	3	34	Feedback	AvoidedLoss	True
334.077	2.626	Lose2	0.6	n/a	Yes	2.626	n/a	n/a	GoodResponse	0	0.0	n/a	3	34	ISIslide	AvoidedLoss	True
336.718	0.25	Lose2	0.5832999999999999	0.0	No	2.682	0.018	n/a	NoResponse	-1	n/a	n/a	2	35	Cue	Loss	True
336.969	4.0	Lose2	0.5832999999999999	0.0	No	2.682	0.001	n/a	NoResponse	-1	n/a	n/a	2	35	Fixation	Loss	True
340.964	0.25	Lose2	0.5832999999999999	0.004	No	2.682	-0.004	2.0	NoResponse	-1	0.278	340.242	2	35	Target	Loss	True
341.215	0.45	Lose2	0.5832999999999999	n/a	No	2.682	n/a	n/a	NoResponse	-1	n/a	n/a	2	35	Blank	Loss	True
341.242	0.3	Lose2	0.5832999999999999	0.004	No	2.682	-0.004	2.0	NoResponse	-1	0.278	n/a	2	35	ButtonPress	Loss	True
341.666	1.45	Lose2	0.5832999999999999	n/a	No	2.682	n/a	5.0	NoResponse	-1	0.014	340.68	2	35	Feedback	Loss	True
343.12	2.682	Lose2	0.5832999999999999	n/a	No	2.682	n/a	n/a	NoResponse	-1	0.0	n/a	2	35	ISIslide	Loss	True
345.828	0.25	Control	0.5676	0.001	No	2.672	0.028	n/a	NoResponse	0	n/a	n/a	2	36	Cue	Neutral	True
346.079	4.0	Control	0.5676	0.0	No	2.672	0.001	n/a	NoResponse	0	n/a	n/a	2	36	Fixation	Neutral	True
350.075	0.26	Control	0.5676	0.003	No	2.672	-0.003	2.0	NoResponse	0	0.538	349.613	2	36	Target	Neutral	True
350.342	0.44	Control	0.5676	n/a	No	2.672	n/a	n/a	NoResponse	0	n/a	n/a	2	36	Blank	Neutral	True
350.613	0.3	Control	0.5676	0.003	No	2.672	-0.003	2.0	NoResponse	0	0.538	n/a	2	36	ButtonPress	Neutral	True
350.777	1.45	Control	0.5676	n/a	No	2.672	n/a	5.0	NoResponse	0	0.025	349.802	2	36	Feedback	Neutral	True
352.231	2.672	Control	0.5676	n/a	No	2.672	n/a	n/a	NoResponse	0	0.0	n/a	2	36	ISIslide	Neutral	True
354.922	0.25	Win2	0.5789	0.001	Yes	2.878	0.022	n/a	GoodResponse	1	n/a	n/a	3	37	Cue	Win	True
355.173	4.0	Win2	0.5789	0.0	Yes	2.878	0.001	n/a	GoodResponse	1	n/a	n/a	3	37	Fixation	Win	True
359.168	0.27	Win2	0.5789	0.004	Yes	2.878	-0.004	2.0	GoodResponse	1	0.234	358.402	3	37	Target	Win	True
359.402	0.3	Win2	0.5789	0.004	Yes	2.878	-0.004	2.0	GoodResponse	1	0.234	n/a	3	37	ButtonPress	Win	True
359.453	0.43	Win2	0.5789	n/a	Yes	2.878	n/a	n/a	GoodResponse	1	n/a	n/a	3	37	Blank	Win	True
359.871	1.45	Win2	0.5789	n/a	Yes	2.878	n/a	5.0	GoodResponse	1	0.005	358.876	3	37	Feedback	Win	True
361.325	2.878	Win2	0.5789	n/a	Yes	2.878	n/a	n/a	GoodResponse	1	0.0	n/a	3	37	ISIslide	Win	True
364.217	0.25	Lose2	0.5897	0.0	Yes	2.833	0.017	n/a	GoodResponse	0	n/a	n/a	3	38	Cue	AvoidedLoss	True
364.468	3.95	Lose2	0.5897	0.0	Yes	2.833	0.001	n/a	GoodResponse	0	n/a	n/a	3	38	Fixation	AvoidedLoss	True
368.413	0.28	Lose2	0.5897	0.004	Yes	2.833	-0.004	2.0	GoodResponse	0	0.214	367.627	3	38	Target	AvoidedLoss	True
368.627	0.3	Lose2	0.5897	0.004	Yes	2.833	-0.004	2.0	GoodResponse	0	0.214	n/a	3	38	ButtonPress	AvoidedLoss	True
368.697	0.42	Lose2	0.5897	n/a	Yes	2.833	n/a	n/a	GoodResponse	0	n/a	n/a	3	38	Blank	AvoidedLoss	True
369.115	1.45	Lose2	0.5897	n/a	Yes	2.833	n/a	5.0	GoodResponse	0	0.029	368.144	3	38	Feedback	AvoidedLoss	True
370.569	2.833	Lose2	0.5897	n/a	Yes	2.833	n/a	n/a	GoodResponse	0	0.0	n/a	3	38	ISIslide	AvoidedLoss	True
373.428	0.25	Win2	0.6	0.0	Yes	2.972	0.028	n/a	GoodResponse	1	n/a	n/a	4	39	Cue	Win	True
373.679	4.1	Win2	0.6	0.0	Yes	2.972	0.001	n/a	GoodResponse	1	n/a	n/a	4	39	Fixation	Win	True
377.774	0.29	Win2	0.6	0.004	Yes	2.972	-0.004	2.0	GoodResponse	1	0.21	376.984	4	39	Target	Win	True
377.984	0.3	Win2	0.6	0.004	Yes	2.972	-0.004	2.0	GoodResponse	1	0.21	n/a	4	39	ButtonPress	Win	True
378.075	0.41	Win2	0.6	n/a	Yes	2.972	n/a	n/a	GoodResponse	1	n/a	n/a	4	39	Blank	Win	True
378.476	1.45	Win2	0.6	n/a	Yes	2.972	n/a	5.0	GoodResponse	1	0.034	377.51	4	39	Feedback	Win	True
379.931	2.972	Win2	0.6	n/a	Yes	2.972	n/a	n/a	GoodResponse	1	0.0	n/a	4	39	ISIslide	Win	True
382.923	0.25	Win2	0.6098	0.0	Yes	2.727	0.023	n/a	GoodResponse	1	n/a	n/a	5	40	Cue	Win	True
383.174	3.95	Win2	0.6098	0.0	Yes	2.727	0.001	n/a	GoodResponse	1	n/a	n/a	5	40	Fixation	Win	True
387.119	0.3	Win2	0.6098	0.004	Yes	2.727	-0.004	2.0	GoodResponse	1	0.2	386.319	5	40	Target	Win	True
387.319	0.3	Win2	0.6098	0.004	Yes	2.727	-0.004	2.0	GoodResponse	1	0.2	n/a	5	40	ButtonPress	Win	True
387.42	0.4	Win2	0.6098	n/a	Yes	2.727	n/a	n/a	GoodResponse	1	n/a	n/a	5	40	Blank	Win	True
387.821	1.45	Win2	0.6098	n/a	Yes	2.727	n/a	5.0	GoodResponse	1	0.006	386.827	5	40	Feedback	Win	True
389.275	2.727	Win2	0.6098	n/a	Yes	2.727	n/a	n/a	GoodResponse	1	0.0	n/a	5	40	ISIslide	Win	True
392.017	0.25	Win2	0.619	0.0	Yes	2.783	0.017	n/a	GoodResponse	1	n/a	n/a	6	41	Cue	Win	True
392.268	3.9	Win2	0.619	0.0	Yes	2.783	0.001	n/a	GoodResponse	1	n/a	n/a	6	41	Fixation	Win	True
396.163	0.31	Win2	0.619	0.004	Yes	2.783	-0.004	2.0	GoodResponse	1	0.267	395.43	6	41	Target	Win	True
396.43	0.3	Win2	0.619	0.004	Yes	2.783	-0.004	2.0	GoodResponse	1	0.267	n/a	6	41	ButtonPress	Win	True
396.48	0.39	Win2	0.619	n/a	Yes	2.783	n/a	n/a	GoodResponse	1	n/a	n/a	6	41	Blank	Win	True
396.865	1.45	Win2	0.619	n/a	Yes	2.783	n/a	5.0	GoodResponse	1	0.035	395.9	6	41	Feedback	Win	True
398.319	2.783	Win2	0.619	n/a	Yes	2.783	n/a	n/a	GoodResponse	1	0.0	n/a	6	41	ISIslide	Win	True
401.128	0.25	Control	0.6047	0.0	No	2.922	0.028	n/a	NoResponse	0	n/a	n/a	6	42	Cue	Neutral	True
401.378	3.85	Control	0.6047	0.0	No	2.922	0.0	n/a	NoResponse	0	n/a	n/a	6	42	Fixation	Neutral	True
405.24	0.32	Control	0.6047	0.0	No	2.922	0.012	2.0	NoResponse	0	0.42	404.66	6	42	Target	Neutral	True
405.557	0.38	Control	0.6047	n/a	No	2.922	n/a	n/a	NoResponse	0	n/a	n/a	6	42	Blank	Neutral	True
405.66	0.3	Control	0.6047	0.0	No	2.922	0.012	2.0	NoResponse	0	0.42	n/a	6	42	ButtonPress	Neutral	True
405.925	1.45	Control	0.6047	n/a	No	2.922	n/a	5.0	NoResponse	0	0.048	404.973	6	42	Feedback	Neutral	True
407.38	2.922	Control	0.6047	n/a	No	2.922	n/a	n/a	NoResponse	0	0.0	n/a	6	42	ISIslide	Neutral	True
410.322	0.25	Win2	0.6136	0.0	Yes	3.178	0.022	n/a	GoodResponse	1	n/a	n/a	7	43	Cue	Win	True
410.572	4.0	Win2	0.6136	0.001	Yes	3.178	0.0	n/a	GoodResponse	1	n/a	n/a	7	43	Fixation	Win	True
414.568	0.33	Win2	0.6136	0.004	Yes	3.178	-0.004	2.0	GoodResponse	1	0.178	413.746	7	43	Target	Win	True
414.746	0.3	Win2	0.6136	0.004	Yes	3.178	-0.004	2.0	GoodResponse	1	0.178	n/a	7	43	ButtonPress	Win	True
414.902	0.37	Win2	0.6136	n/a	Yes	3.178	n/a	n/a	GoodResponse	1	n/a	n/a	7	43	Blank	Win	True
415.27	1.45	Win2	0.6136	n/a	Yes	3.178	n/a	5.0	GoodResponse	1	0.02	414.29	7	43	Feedback	Win	True
416.724	3.178	Win2	0.6136	n/a	Yes	3.178	n/a	n/a	GoodResponse	1	0.0	n/a	7	43	ISIslide	Win	True
419.917	0.25	Win2	0.6	0.0	No	2.983	0.017	n/a	NoResponse	0	n/a	n/a	7	44	Cue	MissedWin	True
420.168	4.0	Win2	0.6	0.0	No	2.983	0.001	n/a	NoResponse	0	n/a	n/a	7	44	Fixation	MissedWin	True
424.163	0.34	Win2	0.6	0.004	No	2.983	-0.004	2.0	NoResponse	0	0.451	423.614	7	44	Target	MissedWin	True
424.514	0.36	Win2	0.6	n/a	No	2.983	n/a	n/a	NoResponse	0	n/a	n/a	7	44	Blank	MissedWin	True
424.614	0.3	Win2	0.6	0.004	No	2.983	-0.004	2.0	NoResponse	0	0.451	n/a	7	44	ButtonPress	MissedWin	True
424.865	1.45	Win2	0.6	n/a	No	2.983	n/a	5.0	NoResponse	0	0.035	423.9	7	44	Feedback	MissedWin	True
426.32	2.983	Win2	0.6	n/a	No	2.983	n/a	n/a	NoResponse	0	0.0	n/a	7	44	ISIslide	MissedWin	True
429.329	0.25	Control	0.6087	0.0	Yes	2.871	0.029	n/a	GoodResponse	0	n/a	n/a	7	45	Cue	Neutral	True
429.579	4.1	Control	0.6087	0.0	Yes	2.871	0.0	n/a	GoodResponse	0	n/a	n/a	7	45	Fixation	Neutral	True
433.675	0.35	Control	0.6087	0.004	Yes	2.871	-0.004	2.0	GoodResponse	0	0.216	432.891	7	45	Target	Neutral	True
433.891	0.3	Control	0.6087	0.004	Yes	2.871	-0.004	2.0	GoodResponse	0	0.216	n/a	7	45	ButtonPress	Neutral	True
434.026	0.35	Control	0.6087	n/a	Yes	2.871	n/a	n/a	GoodResponse	0	n/a	n/a	7	45	Blank	Neutral	True
434.377	1.45	Control	0.6087	n/a	Yes	2.871	n/a	5.0	GoodResponse	0	0.035	433.412	7	45	Feedback	Neutral	True
435.832	2.871	Control	0.6087	n/a	Yes	2.871	n/a	n/a	GoodResponse	0	0.0	n/a	7	45	ISIslide	Neutral	True
438.723	0.25	Lose2	0.617	0.001	Yes	3.377	0.023	n/a	GoodResponse	0	n/a	n/a	7	46	Cue	AvoidedLoss	True
438.974	4.0	Lose2	0.617	0.0	Yes	3.377	0.001	n/a	GoodResponse	0	n/a	n/a	7	46	Fixation	AvoidedLoss	True
442.97	0.36	Lose2	0.617	0.003	Yes	3.377	-0.003	2.0	GoodResponse	0	0.185	442.155	7	46	Target	AvoidedLoss	True
443.155	0.3	Lose2	0.617	0.003	Yes	3.377	-0.003	2.0	GoodResponse	0	0.185	n/a	7	46	ButtonPress	AvoidedLoss	True
443.337	0.34	Lose2	0.617	n/a	Yes	3.377	n/a	n/a	GoodResponse	0	n/a	n/a	7	46	Blank	AvoidedLoss	True
443.672	1.45	Lose2	0.617	n/a	Yes	3.377	n/a	5.0	GoodResponse	0	0.008	442.68	7	46	Feedback	AvoidedLoss	True
445.126	3.377	Lose2	0.617	n/a	Yes	3.377	n/a	n/a	GoodResponse	0	0.0	n/a	7	46	ISIslide	AvoidedLoss	True
448.52	0.25	Lose2	0.625	0.0	Yes	2.68	0.02	n/a	GoodResponse	0	n/a	n/a	7	47	Cue	AvoidedLoss	True
448.77	4.0	Lose2	0.625	0.0	Yes	2.68	0.0	n/a	GoodResponse	0	n/a	n/a	7	47	Fixation	AvoidedLoss	True
452.766	0.37	Lose2	0.625	0.004	Yes	2.68	-0.004	2.0	GoodResponse	0	0.289	452.055	7	47	Target	AvoidedLoss	True
453.055	0.3	Lose2	0.625	0.004	Yes	2.68	-0.004	2.0	GoodResponse	0	0.289	n/a	7	47	ButtonPress	AvoidedLoss	True
453.15	0.33	Lose2	0.625	n/a	Yes	2.68	n/a	n/a	GoodResponse	0	n/a	n/a	7	47	Blank	AvoidedLoss	True
453.468	1.45	Lose2	0.625	n/a	Yes	2.68	n/a	5.0	GoodResponse	0	0.016	452.484	7	47	Feedback	AvoidedLoss	True
454.922	2.68	Lose2	0.625	n/a	Yes	2.68	n/a	n/a	GoodResponse	0	0.0	n/a	7	47	ISIslide	AvoidedLoss	True
457.63	0.25	Lose2	0.6327	0.0	Yes	3.02	0.03	n/a	GoodResponse	0	n/a	n/a	7	48	Cue	AvoidedLoss	True
457.881	3.95	Lose2	0.6327	0.0	Yes	3.02	0.001	n/a	GoodResponse	0	n/a	n/a	7	48	Fixation	AvoidedLoss	True
461.826	0.38	Lose2	0.6327	0.004	Yes	3.02	-0.004	2.0	GoodResponse	0	0.306	461.132	7	48	Target	AvoidedLoss	True
462.132	0.3	Lose2	0.6327	0.004	Yes	3.02	-0.004	2.0	GoodResponse	0	0.306	n/a	7	48	ButtonPress	AvoidedLoss	True
462.211	0.32	Lose2	0.6327	n/a	Yes	3.02	n/a	n/a	GoodResponse	0	n/a	n/a	7	48	Blank	AvoidedLoss	True
462.528	1.45	Lose2	0.6327	n/a	Yes	3.02	n/a	5.0	GoodResponse	0	0.03	461.558	7	48	Feedback	AvoidedLoss	True
463.983	3.02	Lose2	0.6327	n/a	Yes	3.02	n/a	n/a	GoodResponse	0	0.0	n/a	7	48	ISIslide	AvoidedLoss	True
467.025	0.25	Control	0.64	0.0	Yes	2.875	0.025	n/a	GoodResponse	0	n/a	n/a	7	49	Cue	Neutral	True
467.276	4.0	Control	0.64	0.0	Yes	2.875	0.001	n/a	GoodResponse	0	n/a	n/a	7	49	Fixation	Neutral	True
471.271	0.39	Control	0.64	0.004	Yes	2.875	-0.004	2.0	GoodResponse	0	0.232	470.503	7	49	Target	Neutral	True
471.503	0.3	Control	0.64	0.004	Yes	2.875	-0.004	2.0	GoodResponse	0	0.232	n/a	7	49	ButtonPress	Neutral	True
471.672	0.31	Control	0.64	n/a	Yes	2.875	n/a	n/a	GoodResponse	0	n/a	n/a	7	49	Blank	Neutral	True
471.973	1.45	Control	0.64	n/a	Yes	2.875	n/a	5.0	GoodResponse	0	0.048	471.021	7	49	Feedback	Neutral	True
473.427	2.875	Control	0.64	n/a	Yes	2.875	n/a	n/a	GoodResponse	0	0.0	n/a	7	49	ISIslide	Neutral	True
476.319	0.25	Control	0.6470999999999999	0.001	Yes	2.781	0.019	n/a	GoodResponse	0	n/a	n/a	7	50	Cue	Neutral	True
476.57	4.0	Control	0.6470999999999999	0.0	Yes	2.781	0.001	n/a	GoodResponse	0	n/a	n/a	7	50	Fixation	Neutral	True
480.566	0.4	Control	0.6470999999999999	0.003	Yes	2.781	-0.003	2.0	GoodResponse	0	0.315	479.881	7	50	Target	Neutral	True
480.881	0.3	Control	0.6470999999999999	0.003	Yes	2.781	-0.003	2.0	GoodResponse	0	0.315	n/a	7	50	ButtonPress	Neutral	True
480.967	0.3	Control	0.6470999999999999	n/a	Yes	2.781	n/a	n/a	GoodResponse	0	n/a	n/a	7	50	Blank	Neutral	True
481.268	1.45	Control	0.6470999999999999	n/a	Yes	2.781	n/a	5.0	GoodResponse	0	0.022	480.29	7	50	Feedback	Neutral	True
482.722	2.781	Control	0.6470999999999999	n/a	Yes	2.781	n/a	n/a	GoodResponse	0	0.0	n/a	7	50	ISIslide	Neutral	True
485.53	0.25	Control	0.6537999999999999	0.0	Yes	2.72	0.03	n/a	GoodResponse	0	n/a	n/a	7	51	Cue	Neutral	True
485.781	3.95	Control	0.6537999999999999	0.0	Yes	2.72	0.001	n/a	GoodResponse	0	n/a	n/a	7	51	Fixation	Neutral	True
489.726	0.41	Control	0.6537999999999999	0.004	Yes	2.72	-0.004	2.0	GoodResponse	0	0.202	488.928	7	51	Target	Neutral	True
489.928	0.3	Control	0.6537999999999999	0.004	Yes	2.72	-0.004	2.0	GoodResponse	0	0.202	n/a	7	51	ButtonPress	Neutral	True
490.144	0.29	Control	0.6537999999999999	n/a	Yes	2.72	n/a	n/a	GoodResponse	0	n/a	n/a	7	51	Blank	Neutral	True
490.428	1.45	Control	0.6537999999999999	n/a	Yes	2.72	n/a	5.0	GoodResponse	0	0.032	489.46	7	51	Feedback	Neutral	True
491.883	2.72	Control	0.6537999999999999	n/a	Yes	2.72	n/a	n/a	GoodResponse	0	0.0	n/a	7	51	ISIslide	Neutral	True
494.624	0.25	Control	0.6604000000000001	0.0	Yes	2.626	0.024	n/a	GoodResponse	0	n/a	n/a	7	52	Cue	Neutral	True
494.875	4.05	Control	0.6604000000000001	0.0	Yes	2.626	0.001	n/a	GoodResponse	0	n/a	n/a	7	52	Fixation	Neutral	True
498.921	0.42	Control	0.6604000000000001	0.003	Yes	2.626	-0.003	2.0	GoodResponse	0	0.234	498.155	7	52	Target	Neutral	True
499.155	0.3	Control	0.6604000000000001	0.003	Yes	2.626	-0.003	2.0	GoodResponse	0	0.234	n/a	7	52	ButtonPress	Neutral	True
499.355	0.28	Control	0.6604000000000001	n/a	Yes	2.626	n/a	n/a	GoodResponse	0	n/a	n/a	7	52	Blank	Neutral	True
499.623	1.45	Control	0.6604000000000001	n/a	Yes	2.626	n/a	5.0	GoodResponse	0	0.008	498.631	7	52	Feedback	Neutral	True
501.077	2.626	Control	0.6604000000000001	n/a	Yes	2.626	n/a	n/a	GoodResponse	0	0.0	n/a	7	52	ISIslide	Neutral	True
503.718	0.25	Win2	0.6667000000000001	0.0	Yes	2.932	0.018	n/a	GoodResponse	1	n/a	n/a	8	53	Cue	Win	True
503.969	4.05	Win2	0.6667000000000001	0.0	Yes	2.932	0.001	n/a	GoodResponse	1	n/a	n/a	8	53	Fixation	Win	True
508.014	0.42	Win2	0.6667000000000001	0.004	Yes	2.932	-0.004	2.0	GoodResponse	1	0.223	507.237	8	53	Target	Win	True
508.237	0.3	Win2	0.6667000000000001	0.004	Yes	2.932	-0.004	2.0	GoodResponse	1	0.223	n/a	8	53	ButtonPress	Win	True
508.449	0.28	Win2	0.6667000000000001	n/a	Yes	2.932	n/a	n/a	GoodResponse	1	n/a	n/a	8	53	Blank	Win	True
508.717	1.45	Win2	0.6667000000000001	n/a	Yes	2.932	n/a	5.0	GoodResponse	1	0.035	507.752	8	53	Feedback	Win	True
510.171	2.932	Win2	0.6667000000000001	n/a	Yes	2.932	n/a	n/a	GoodResponse	1	0.0	n/a	8	53	ISIslide	Win	True
513.13	0.25	Win2	0.6727	0.0	Yes	2.72	0.03	n/a	GoodResponse	1	n/a	n/a	9	54	Cue	Win	True
513.381	3.95	Win2	0.6727	0.0	Yes	2.72	0.001	n/a	GoodResponse	1	n/a	n/a	9	54	Fixation	Win	True
517.326	0.41	Win2	0.6727	0.004	Yes	2.72	-0.004	2.0	GoodResponse	1	0.278	516.604	9	54	Target	Win	True
517.604	0.3	Win2	0.6727	0.004	Yes	2.72	-0.004	2.0	GoodResponse	1	0.278	n/a	9	54	ButtonPress	Win	True
517.744	0.29	Win2	0.6727	n/a	Yes	2.72	n/a	n/a	GoodResponse	1	n/a	n/a	9	54	Blank	Win	True
518.028	1.45	Win2	0.6727	n/a	Yes	2.72	n/a	5.0	GoodResponse	1	0.042	517.07	9	54	Feedback	Win	True
519.482	2.72	Win2	0.6727	n/a	Yes	2.72	n/a	n/a	GoodResponse	1	0.0	n/a	9	54	ISIslide	Win	True
522.224	0.25	Control	0.6786	0.0	Yes	3.026	0.024	n/a	GoodResponse	0	n/a	n/a	9	55	Cue	Neutral	True
522.474	3.95	Control	0.6786	0.001	Yes	3.026	0.0	n/a	GoodResponse	0	n/a	n/a	9	55	Fixation	Neutral	True
526.42	0.4	Control	0.6786	0.004	Yes	3.026	-0.004	2.0	GoodResponse	0	0.236	525.656	9	55	Target	Neutral	True
526.656	0.3	Control	0.6786	0.004	Yes	3.026	-0.004	2.0	GoodResponse	0	0.236	n/a	9	55	ButtonPress	Neutral	True
526.821	0.3	Control	0.6786	n/a	Yes	3.026	n/a	n/a	GoodResponse	0	n/a	n/a	9	55	Blank	Neutral	True
527.122	1.45	Control	0.6786	n/a	Yes	3.026	n/a	5.0	GoodResponse	0	0.021	526.143	9	55	Feedback	Neutral	True
528.576	3.026	Control	0.6786	n/a	Yes	3.026	n/a	n/a	GoodResponse	0	0.0	n/a	9	55	ISIslide	Neutral	True
531.619	0.25	Control	0.6842	0.0	Yes	2.831	0.019	n/a	GoodResponse	0	n/a	n/a	9	56	Cue	Neutral	True
531.869	3.95	Control	0.6842	0.0	Yes	2.831	0.0	n/a	GoodResponse	0	n/a	n/a	9	56	Fixation	Neutral	True
535.831	0.39	Control	0.6842	0.0	Yes	2.831	0.012	2.0	GoodResponse	0	0.224	535.055	9	56	Target	Neutral	True
536.055	0.3	Control	0.6842	0.0	Yes	2.831	0.012	2.0	GoodResponse	0	0.224	n/a	9	56	ButtonPress	Neutral	True
536.216	0.31	Control	0.6842	n/a	Yes	2.831	n/a	n/a	GoodResponse	0	n/a	n/a	9	56	Blank	Neutral	True
536.517	1.45	Control	0.6842	n/a	Yes	2.831	n/a	5.0	GoodResponse	0	0.041	535.558	9	56	Feedback	Neutral	True
537.971	2.831	Control	0.6842	n/a	Yes	2.831	n/a	n/a	GoodResponse	0	0.0	n/a	9	56	ISIslide	Neutral	True
540.829	0.25	Control	0.6897	0.001	Yes	3.471	0.029	n/a	GoodResponse	0	n/a	n/a	9	57	Cue	Neutral	True
541.08	4.0	Control	0.6897	0.0	Yes	3.471	0.001	n/a	GoodResponse	0	n/a	n/a	9	57	Fixation	Neutral	True
545.075	0.38	Control	0.6897	0.004	Yes	3.471	-0.004	2.0	GoodResponse	0	0.239	544.314	9	57	Target	Neutral	True
545.314	0.3	Control	0.6897	0.004	Yes	3.471	-0.004	2.0	GoodResponse	0	0.239	n/a	9	57	ButtonPress	Neutral	True
545.46	0.32	Control	0.6897	n/a	Yes	3.471	n/a	n/a	GoodResponse	0	n/a	n/a	9	57	Blank	Neutral	True
545.778	1.45	Control	0.6897	n/a	Yes	3.471	n/a	5.0	GoodResponse	0	0.048	544.826	9	57	Feedback	Neutral	True
547.232	3.471	Control	0.6897	n/a	Yes	3.471	n/a	n/a	GoodResponse	0	0.0	n/a	9	57	ISIslide	Neutral	True
550.726	0.25	Win2	0.6949	0.0	Yes	2.724	0.026	n/a	GoodResponse	1	n/a	n/a	10	58	Cue	Win	True
550.977	4.05	Win2	0.6949	0.0	Yes	2.724	0.001	n/a	GoodResponse	1	n/a	n/a	10	58	Fixation	Win	True
555.022	0.37	Win2	0.6949	0.004	Yes	2.724	-0.004	2.0	GoodResponse	1	0.209	554.231	10	58	Target	Win	True
555.231	0.3	Win2	0.6949	0.004	Yes	2.724	-0.004	2.0	GoodResponse	1	0.209	n/a	10	58	ButtonPress	Win	True
555.406	0.33	Win2	0.6949	n/a	Yes	2.724	n/a	n/a	GoodResponse	1	n/a	n/a	10	58	Blank	Win	True
555.724	1.45	Win2	0.6949	n/a	Yes	2.724	n/a	5.0	GoodResponse	1	0.006	554.73	10	58	Feedback	Win	True
557.178	2.724	Win2	0.6949	n/a	Yes	2.724	n/a	n/a	GoodResponse	1	0.0	n/a	10	58	ISIslide	Win	True
559.92	0.25	Lose2	0.7	0.0	Yes	2.68	0.02	n/a	GoodResponse	0	n/a	n/a	10	59	Cue	AvoidedLoss	True
560.171	4.0	Lose2	0.7	0.0	Yes	2.68	0.001	n/a	GoodResponse	0	n/a	n/a	10	59	Fixation	AvoidedLoss	True
564.166	0.36	Lose2	0.7	0.004	Yes	2.68	-0.004	2.0	GoodResponse	0	0.203	563.369	10	59	Target	AvoidedLoss	True
564.369	0.3	Lose2	0.7	0.004	Yes	2.68	-0.004	2.0	GoodResponse	0	0.203	n/a	10	59	ButtonPress	AvoidedLoss	True
564.534	0.34	Lose2	0.7	n/a	Yes	2.68	n/a	n/a	GoodResponse	0	n/a	n/a	10	59	Blank	AvoidedLoss	True
564.868	1.45	Lose2	0.7	n/a	Yes	2.68	n/a	5.0	GoodResponse	0	0.03	563.898	10	59	Feedback	AvoidedLoss	True
566.323	2.68	Lose2	0.7	n/a	Yes	2.68	n/a	n/a	GoodResponse	0	0.0	n/a	10	59	ISIslide	AvoidedLoss	True
569.031	0.25	Control	0.7049	0.0	Yes	2.669	0.031	n/a	GoodResponse	0	n/a	n/a	10	60	Cue	Neutral	True
569.281	4.0	Control	0.7049	0.0	Yes	2.669	0.0	n/a	GoodResponse	0	n/a	n/a	10	60	Fixation	Neutral	True
573.277	0.35	Control	0.7049	0.004	Yes	2.669	-0.004	2.0	GoodResponse	0	0.219	572.496	10	60	Target	Neutral	True
573.496	0.3	Control	0.7049	0.004	Yes	2.669	-0.004	2.0	GoodResponse	0	0.219	n/a	10	60	ButtonPress	Neutral	True
573.628	0.35	Control	0.7049	n/a	Yes	2.669	n/a	n/a	GoodResponse	0	n/a	n/a	10	60	Blank	Neutral	True
573.979	1.45	Control	0.7049	n/a	Yes	2.669	n/a	5.0	GoodResponse	0	0.041	573.02	10	60	Feedback	Neutral	True
575.433	2.669	Control	0.7049	n/a	Yes	2.669	n/a	n/a	GoodResponse	0	0.0	n/a	10	60	ISIslide	Neutral	True
578.125	0.25	Lose2	0.7097	0.0	Yes	2.975	0.025	n/a	GoodResponse	0	n/a	n/a	10	61	Cue	AvoidedLoss	True
578.375	4.0	Lose2	0.7097	0.0	Yes	2.975	0.0	n/a	GoodResponse	0	n/a	n/a	10	61	Fixation	AvoidedLoss	True
582.371	0.34	Lose2	0.7097	0.004	Yes	2.975	-0.004	2.0	GoodResponse	0	0.267	581.638	10	61	Target	AvoidedLoss	True
582.638	0.3	Lose2	0.7097	0.004	Yes	2.975	-0.004	2.0	GoodResponse	0	0.267	n/a	10	61	ButtonPress	AvoidedLoss	True
582.722	0.36	Lose2	0.7097	n/a	Yes	2.975	n/a	n/a	GoodResponse	0	n/a	n/a	10	61	Blank	AvoidedLoss	True
583.073	1.45	Lose2	0.7097	n/a	Yes	2.975	n/a	5.0	GoodResponse	0	0.021	582.094	10	61	Feedback	AvoidedLoss	True
584.527	2.975	Lose2	0.7097	n/a	Yes	2.975	n/a	n/a	GoodResponse	0	0.0	n/a	10	61	ISIslide	AvoidedLoss	True
587.519	0.25	Lose2	0.7143	0.0	Yes	2.881	0.019	n/a	GoodResponse	0	n/a	n/a	10	62	Cue	AvoidedLoss	True
587.77	3.9	Lose2	0.7143	0.0	Yes	2.881	0.001	n/a	GoodResponse	0	n/a	n/a	10	62	Fixation	AvoidedLoss	True
591.665	0.33	Lose2	0.7143	0.004	Yes	2.881	-0.004	2.0	GoodResponse	0	0.214	590.879	10	62	Target	AvoidedLoss	True
591.879	0.3	Lose2	0.7143	0.004	Yes	2.881	-0.004	2.0	GoodResponse	0	0.214	n/a	10	62	ButtonPress	AvoidedLoss	True
591.999	0.37	Lose2	0.7143	n/a	Yes	2.881	n/a	n/a	GoodResponse	0	n/a	n/a	10	62	Blank	AvoidedLoss	True
592.367	1.45	Lose2	0.7143	n/a	Yes	2.881	n/a	5.0	GoodResponse	0	0.044	591.411	10	62	Feedback	AvoidedLoss	True
593.822	2.881	Lose2	0.7143	n/a	Yes	2.881	n/a	n/a	GoodResponse	0	0.0	n/a	10	62	ISIslide	AvoidedLoss	True
596.73	0.25	Lose2	0.7188	0.0	Yes	2.62	0.03	n/a	GoodResponse	0	n/a	n/a	10	63	Cue	AvoidedLoss	True
596.981	4.05	Lose2	0.7188	0.0	Yes	2.62	0.001	n/a	GoodResponse	0	n/a	n/a	10	63	Fixation	AvoidedLoss	True
601.026	0.32	Lose2	0.7188	0.004	Yes	2.62	-0.004	2.0	GoodResponse	0	0.171	600.197	10	63	Target	AvoidedLoss	True
601.197	0.3	Lose2	0.7188	0.004	Yes	2.62	-0.004	2.0	GoodResponse	0	0.171	n/a	10	63	ButtonPress	AvoidedLoss	True
601.361	0.38	Lose2	0.7188	n/a	Yes	2.62	n/a	n/a	GoodResponse	0	n/a	n/a	10	63	Blank	AvoidedLoss	True
601.729	1.45	Lose2	0.7188	n/a	Yes	2.62	n/a	5.0	GoodResponse	0	0.048	600.777	10	63	Feedback	AvoidedLoss	True
603.183	2.62	Lose2	0.7188	n/a	Yes	2.62	n/a	n/a	GoodResponse	0	0.0	n/a	10	63	ISIslide	AvoidedLoss	True
605.824	0.25	Win2	0.7231000000000001	0.0	Yes	3.126	0.024	n/a	GoodResponse	1	n/a	n/a	11	64	Cue	Win	True
606.075	4.15	Win2	0.7231000000000001	0.0	Yes	3.126	0.001	n/a	GoodResponse	1	n/a	n/a	11	64	Fixation	Win	True
610.221	0.31	Win2	0.7231000000000001	0.003	Yes	3.126	-0.003	2.0	GoodResponse	1	0.277	609.498	11	64	Target	Win	True
610.498	0.3	Win2	0.7231000000000001	0.003	Yes	3.126	-0.003	2.0	GoodResponse	1	0.277	n/a	11	64	ButtonPress	Win	True
610.538	0.39	Win2	0.7231000000000001	n/a	Yes	3.126	n/a	n/a	GoodResponse	1	n/a	n/a	11	64	Blank	Win	True
610.923	1.45	Win2	0.7231000000000001	n/a	Yes	3.126	n/a	5.0	GoodResponse	1	0.025	609.948	11	64	Feedback	Win	True
612.377	3.126	Win2	0.7231000000000001	n/a	Yes	3.126	n/a	n/a	GoodResponse	1	0.0	n/a	11	64	ISIslide	Win	True
615.52	0.25	Control	0.7273000000000001	0.0	Yes	2.78	0.02	n/a	GoodResponse	0	n/a	n/a	11	65	Cue	Neutral	True
615.771	4.0	Control	0.7273000000000001	0.0	Yes	2.78	0.001	n/a	GoodResponse	0	n/a	n/a	11	65	Fixation	Neutral	True
619.766	0.3	Control	0.7273000000000001	0.004	Yes	2.78	-0.004	2.0	GoodResponse	0	0.242	619.008	11	65	Target	Neutral	True
620.008	0.3	Control	0.7273000000000001	0.004	Yes	2.78	-0.004	2.0	GoodResponse	0	0.242	n/a	11	65	ButtonPress	Neutral	True
620.067	0.4	Control	0.7273000000000001	n/a	Yes	2.78	n/a	n/a	GoodResponse	0	n/a	n/a	11	65	Blank	Neutral	True
620.468	1.45	Control	0.7273000000000001	n/a	Yes	2.78	n/a	5.0	GoodResponse	0	0.04	619.508	11	65	Feedback	Neutral	True
621.922	2.78	Control	0.7273000000000001	n/a	Yes	2.78	n/a	n/a	GoodResponse	0	0.0	n/a	11	65	ISIslide	Neutral	True
624.731	0.25	Win2	0.7313	0.0	Yes	2.769	0.031	n/a	GoodResponse	1	n/a	n/a	12	66	Cue	Win	True
624.982	3.9	Win2	0.7313	0.0	Yes	2.769	0.001	n/a	GoodResponse	1	n/a	n/a	12	66	Fixation	Win	True
628.877	0.29	Win2	0.7313	0.004	Yes	2.769	-0.004	2.0	GoodResponse	1	0.251	628.128	12	66	Target	Win	True
629.128	0.3	Win2	0.7313	0.004	Yes	2.769	-0.004	2.0	GoodResponse	1	0.251	n/a	12	66	ButtonPress	Win	True
629.178	0.41	Win2	0.7313	n/a	Yes	2.769	n/a	n/a	GoodResponse	1	n/a	n/a	12	66	Blank	Win	True
629.579	1.45	Win2	0.7313	n/a	Yes	2.769	n/a	5.0	GoodResponse	1	0.006	628.585	12	66	Feedback	Win	True
631.033	2.769	Win2	0.7313	n/a	Yes	2.769	n/a	n/a	GoodResponse	1	0.0	n/a	12	66	ISIslide	Win	True
633.825	0.25	Control	0.7206	0.0	No	2.725	0.025	n/a	NoResponse	0	n/a	n/a	12	67	Cue	Neutral	True
634.076	3.95	Control	0.7206	0.0	No	2.725	0.001	n/a	NoResponse	0	n/a	n/a	12	67	Fixation	Neutral	True
638.021	0.28	Control	0.7206	0.004	No	2.725	-0.004	2.0	NoResponse	0	0.474	637.495	12	67	Target	Neutral	True
638.305	0.42	Control	0.7206	n/a	No	2.725	n/a	n/a	NoResponse	0	n/a	n/a	12	67	Blank	Neutral	True
638.495	0.3	Control	0.7206	0.004	No	2.725	-0.004	2.0	NoResponse	0	0.474	n/a	12	67	ButtonPress	Neutral	True
638.723	1.45	Control	0.7206	n/a	No	2.725	n/a	5.0	NoResponse	0	0.029	637.752	12	67	Feedback	Neutral	True
640.177	2.725	Control	0.7206	n/a	No	2.725	n/a	n/a	NoResponse	0	0.0	n/a	12	67	ISIslide	Neutral	True
642.919	0.25	Win2	0.7245999999999999	0.0	Yes	3.081	0.019	n/a	GoodResponse	1	n/a	n/a	13	68	Cue	Win	True
643.169	4.0	Win2	0.7245999999999999	0.001	Yes	3.081	0.0	n/a	GoodResponse	1	n/a	n/a	13	68	Fixation	Win	True
647.165	0.27	Win2	0.7245999999999999	0.004	Yes	3.081	-0.004	2.0	GoodResponse	1	0.253	646.418	13	68	Target	Win	True
647.418	0.3	Win2	0.7245999999999999	0.004	Yes	3.081	-0.004	2.0	GoodResponse	1	0.253	n/a	13	68	ButtonPress	Win	True
647.449	0.43	Win2	0.7245999999999999	n/a	Yes	3.081	n/a	n/a	GoodResponse	1	n/a	n/a	13	68	Blank	Win	True
647.867	1.45	Win2	0.7245999999999999	n/a	Yes	3.081	n/a	5.0	GoodResponse	1	0.007	646.874	13	68	Feedback	Win	True
649.321	3.081	Win2	0.7245999999999999	n/a	Yes	3.081	n/a	n/a	GoodResponse	1	0.0	n/a	13	68	ISIslide	Win	True
652.431	0.25	Win2	0.7143	0.0	No	3.219	0.031	n/a	NoResponse	0	n/a	n/a	13	69	Cue	MissedWin	True
652.681	3.95	Win2	0.7143	0.0	No	3.219	0.0	n/a	NoResponse	0	n/a	n/a	13	69	Fixation	MissedWin	True
656.643	0.26	Win2	0.7143	0.0	No	3.219	0.012	2.0	NoResponse	0	0.332	655.975	13	69	Target	MissedWin	True
656.894	0.44	Win2	0.7143	n/a	No	3.219	n/a	n/a	NoResponse	0	n/a	n/a	13	69	Blank	MissedWin	True
656.975	0.3	Win2	0.7143	0.0	No	3.219	0.012	2.0	NoResponse	0	0.332	n/a	13	69	ButtonPress	MissedWin	True
657.329	1.45	Win2	0.7143	n/a	No	3.219	n/a	5.0	NoResponse	0	0.008	656.337	13	69	Feedback	MissedWin	True
658.783	3.219	Win2	0.7143	n/a	No	3.219	n/a	n/a	NoResponse	0	0.0	n/a	13	69	ISIslide	MissedWin	True
662.026	0.25	Lose2	0.7042	0.0	No	3.024	0.026	n/a	NoResponse	-1	n/a	n/a	12	70	Cue	Loss	True
662.277	4.05	Lose2	0.7042	0.0	No	3.024	0.001	n/a	NoResponse	-1	n/a	n/a	12	70	Fixation	Loss	True
666.322	0.25	Lose2	0.7042	0.004	No	3.024	-0.004	2.0	NoResponse	-1	0.391	665.713	12	70	Target	Loss	True
666.573	0.45	Lose2	0.7042	n/a	No	3.024	n/a	n/a	NoResponse	-1	n/a	n/a	12	70	Blank	Loss	True
666.713	0.3	Lose2	0.7042	0.004	No	3.024	-0.004	2.0	NoResponse	-1	0.391	n/a	12	70	ButtonPress	Loss	True
667.024	1.45	Lose2	0.7042	n/a	No	3.024	n/a	5.0	NoResponse	-1	0.021	666.045	12	70	Feedback	Loss	True
668.479	3.024	Lose2	0.7042	n/a	No	3.024	n/a	n/a	NoResponse	-1	0.0	n/a	12	70	ISIslide	Loss	True
671.521	0.25	Win2	0.6944	0.0	No	2.729	0.021	n/a	NoResponse	0	n/a	n/a	12	71	Cue	MissedWin	True
671.772	4.05	Win2	0.6944	0.0	No	2.729	0.001	n/a	NoResponse	0	n/a	n/a	12	71	Fixation	MissedWin	True
675.817	0.24	Win2	0.6944	0.004	No	2.729	-0.004	2.0	NoResponse	0	0.266	675.083	12	71	Target	MissedWin	True
676.068	0.46	Win2	0.6944	n/a	No	2.729	n/a	n/a	NoResponse	0	n/a	n/a	12	71	Blank	MissedWin	True
676.083	0.3	Win2	0.6944	0.004	No	2.729	-0.004	2.0	NoResponse	0	0.266	n/a	12	71	ButtonPress	MissedWin	True
676.519	1.45	Win2	0.6944	n/a	No	2.729	n/a	5.0	NoResponse	0	0.038	675.557	12	71	Feedback	MissedWin	True
677.974	2.729	Win2	0.6944	n/a	No	2.729	n/a	n/a	NoResponse	0	0.0	n/a	12	71	ISIslide	MissedWin	True
680.732	0.25	Win2	0.6986	0.0	Yes	2.768	0.032	n/a	GoodResponse	1	n/a	n/a	13	72	Cue	Win	True
680.983	4.1	Win2	0.6986	0.0	Yes	2.768	0.001	n/a	GoodResponse	1	n/a	n/a	13	72	Fixation	Win	True
685.078	0.23	Win2	0.6986	0.004	Yes	2.768	-0.004	2.0	GoodResponse	1	0.201	684.279	13	72	Target	Win	True
685.279	0.3	Win2	0.6986	0.004	Yes	2.768	-0.004	2.0	GoodResponse	1	0.201	n/a	13	72	ButtonPress	Win	True
685.312	0.47	Win2	0.6986	n/a	Yes	2.768	n/a	n/a	GoodResponse	1	n/a	n/a	13	72	Blank	Win	True
685.78	1.45	Win2	0.6986	n/a	Yes	2.768	n/a	5.0	GoodResponse	1	0.044	684.824	13	72	Feedback	Win	True
687.235	2.768	Win2	0.6986	n/a	Yes	2.768	n/a	n/a	GoodResponse	1	0.0	n/a	13	72	ISIslide	Win	True
690.026	0.25	Win2	0.6892	0.001	No	2.674	0.026	n/a	NoResponse	0	n/a	n/a	13	73	Cue	MissedWin	True
690.277	4.0	Win2	0.6892	0.0	No	2.674	0.001	n/a	NoResponse	0	n/a	n/a	13	73	Fixation	MissedWin	True
694.273	0.22	Win2	0.6892	0.003	No	2.674	-0.003	2.0	NoResponse	0	0.257	693.53	13	73	Target	MissedWin	True
694.507	0.48	Win2	0.6892	n/a	No	2.674	n/a	n/a	NoResponse	0	n/a	n/a	13	73	Blank	MissedWin	True
694.53	0.3	Win2	0.6892	0.003	No	2.674	-0.003	2.0	NoResponse	0	0.257	n/a	13	73	ButtonPress	MissedWin	True
694.975	1.45	Win2	0.6892	n/a	No	2.674	n/a	5.0	NoResponse	0	0.02	693.995	13	73	Feedback	MissedWin	True
696.429	2.674	Win2	0.6892	n/a	No	2.674	n/a	n/a	NoResponse	0	0.0	n/a	13	73	ISIslide	MissedWin	True
699.12	0.25	Lose2	0.68	0.001	No	2.63	0.02	n/a	NoResponse	-1	n/a	n/a	12	74	Cue	Loss	True
699.371	4.05	Lose2	0.68	0.0	No	2.63	0.001	n/a	NoResponse	-1	n/a	n/a	12	74	Fixation	Loss	True
703.417	0.21	Lose2	0.68	0.003	No	2.63	-0.003	2.0	NoResponse	-1	0.229	702.646	12	74	Target	Loss	True
703.634	0.49	Lose2	0.68	n/a	No	2.63	n/a	n/a	NoResponse	-1	n/a	n/a	12	74	Blank	Loss	True
703.646	0.3	Lose2	0.68	0.003	No	2.63	-0.003	2.0	NoResponse	-1	0.229	n/a	12	74	ButtonPress	Loss	True
704.119	1.45	Lose2	0.68	n/a	No	2.63	n/a	5.0	NoResponse	-1	0.047	703.166	12	74	Feedback	Loss	True
705.573	2.63	Lose2	0.68	n/a	No	2.63	n/a	n/a	NoResponse	-1	0.0	n/a	12	74	ISIslide	Loss	True
708.231	0.25	Lose2	0.6711	0.0	No	2.919	0.031	n/a	NoResponse	-1	n/a	n/a	11	75	Cue	Loss	True
708.482	3.95	Lose2	0.6711	0.0	No	2.919	0.001	n/a	NoResponse	-1	n/a	n/a	11	75	Fixation	Loss	True
712.427	0.2	Lose2	0.6711	0.004	No	2.919	-0.004	2.0	NoResponse	-1	0.217	711.644	11	75	Target	Loss	True
712.628	0.5	Lose2	0.6711	n/a	No	2.919	n/a	n/a	NoResponse	-1	n/a	n/a	11	75	Blank	Loss	True
712.644	0.3	Lose2	0.6711	0.004	No	2.919	-0.004	2.0	NoResponse	-1	0.217	n/a	11	75	ButtonPress	Loss	True
713.129	1.45	Lose2	0.6711	n/a	No	2.919	n/a	5.0	NoResponse	-1	0.013	712.142	11	75	Feedback	Loss	True
714.583	2.919	Lose2	0.6711	n/a	No	2.919	n/a	n/a	NoResponse	-1	0.0	n/a	11	75	ISIslide	Loss	True
717.526	0.25	Control	0.6623	0.0	No	3.224	0.026	n/a	LatePress	0	n/a	n/a	11	76	Cue	Neutral	True
717.776	4.05	Control	0.6623	0.0	No	3.224	0.0	n/a	LatePress	0	n/a	n/a	11	76	Fixation	Neutral	True
721.822	0.19	Control	0.6623	0.004	No	3.224	-0.004	2.0	LatePress	0	0.192	721.014	11	76	Target	Neutral	True
722.014	0.3	Control	0.6623	0.004	No	3.224	-0.004	2.0	LatePress	0	0.192	n/a	11	76	ButtonPress	Neutral	True
722.022	0.51	Control	0.6623	n/a	No	3.224	n/a	n/a	LatePress	0	n/a	n/a	11	76	Blank	Neutral	True
722.524	1.45	Control	0.6623	n/a	No	3.224	n/a	5.0	LatePress	0	0.032	721.556	11	76	Feedback	Neutral	True
723.978	3.224	Control	0.6623	n/a	No	3.224	n/a	n/a	LatePress	0	0.0	n/a	11	76	ISIslide	Neutral	True
727.221	0.25	Lose2	0.6537999999999999	0.0	No	2.579	0.021	n/a	NoResponse	-1	n/a	n/a	10	77	Cue	Loss	True
727.472	3.95	Lose2	0.6537999999999999	0.0	No	2.579	0.001	n/a	NoResponse	-1	n/a	n/a	10	77	Fixation	Loss	True
731.417	0.19	Lose2	0.6537999999999999	0.004	No	2.579	-0.004	2.0	NoResponse	-1	0.208	730.625	10	77	Target	Loss	True
731.618	0.51	Lose2	0.6537999999999999	n/a	No	2.579	n/a	n/a	NoResponse	-1	n/a	n/a	10	77	Blank	Loss	True
731.625	0.3	Lose2	0.6537999999999999	0.004	No	2.579	-0.004	2.0	NoResponse	-1	0.208	n/a	10	77	ButtonPress	Loss	True
732.119	1.45	Lose2	0.6537999999999999	n/a	No	2.579	n/a	5.0	NoResponse	-1	0.047	731.166	10	77	Feedback	Loss	True
733.574	2.579	Lose2	0.6537999999999999	n/a	No	2.579	n/a	n/a	NoResponse	-1	0.0	n/a	10	77	ISIslide	Loss	True
