onset	duration	cue_type	current_mean_accuracy	duration_error	is_hit	isi_adjusted	onset_delay	response	response_type	reward	rt	rt_time	total_reward	trial_number	trial_phase	trial_type	one_press
11.11	0.25	Control	1.0	0.0	Yes	2.94	0.01	n/a	GoodResponse	0	n/a	n/a	0	0	Cue	Neutral	True
11.36	3.85	Control	1.0	0.0	Yes	2.94	0.0	n/a	GoodResponse	0	n/a	n/a	0	0	Fixation	Neutral	True
15.222	0.4	Control	1.0	0.0	Yes	2.94	0.012	2.0	GoodResponse	0	0.22	14.442	0	0	Target	Neutral	True
15.442	0.3	Control	1.0	0.0	Yes	2.94	0.012	2.0	GoodResponse	0	0.22	n/a	0	0	ButtonPress	Neutral	True
15.606	0.3	Control	1.0	n/a	Yes	2.94	n/a	n/a	GoodResponse	0	n/a	n/a	0	0	Blank	Neutral	True
15.907	1.45	Control	1.0	n/a	Yes	2.94	n/a	5.0	GoodResponse	0	0.019	14.926	0	0	Feedback	Neutral	True
17.362	2.94	Control	1.0	n/a	Yes	2.94	n/a	n/a	GoodResponse	0	0.0	n/a	0	0	ISIslide	Neutral	True
20.321	0.25	Lose2	1.0	0.0	Yes	2.779	0.021	n/a	GoodResponse	0	n/a	n/a	0	1	Cue	AvoidedLoss	True
20.571	4.0	Lose2	1.0	0.0	Yes	2.779	0.0	n/a	GoodResponse	0	n/a	n/a	0	1	Fixation	AvoidedLoss	True
24.567	0.39	Lose2	1.0	0.004	Yes	2.779	-0.004	2.0	GoodResponse	0	0.195	23.762	0	1	Target	AvoidedLoss	True
24.762	0.3	Lose2	1.0	0.004	Yes	2.779	-0.004	2.0	GoodResponse	0	0.195	n/a	0	1	ButtonPress	AvoidedLoss	True
24.968	0.31	Lose2	1.0	n/a	Yes	2.779	n/a	n/a	GoodResponse	0	n/a	n/a	0	1	Blank	AvoidedLoss	True
25.269	1.45	Lose2	1.0	n/a	Yes	2.779	n/a	5.0	GoodResponse	0	0.023	24.292	0	1	Feedback	AvoidedLoss	True
26.723	2.779	Lose2	1.0	n/a	Yes	2.779	n/a	n/a	GoodResponse	0	0.0	n/a	0	1	ISIslide	AvoidedLoss	True
29.515	0.25	Control	1.0	0.0	Yes	2.585	0.015	n/a	GoodResponse	0	n/a	n/a	0	2	Cue	Neutral	True
29.765	4.1	Control	1.0	0.001	Yes	2.585	0.0	n/a	GoodResponse	0	n/a	n/a	0	2	Fixation	Neutral	True
33.861	0.38	Control	1.0	0.004	Yes	2.585	-0.004	2.0	GoodResponse	0	0.193	33.054	0	2	Target	Neutral	True
34.054	0.3	Control	1.0	0.004	Yes	2.585	-0.004	2.0	GoodResponse	0	0.193	n/a	0	2	ButtonPress	Neutral	True
34.246	0.32	Control	1.0	n/a	Yes	2.585	n/a	n/a	GoodResponse	0	n/a	n/a	0	2	Blank	Neutral	True
34.563	1.45	Control	1.0	n/a	Yes	2.585	n/a	5.0	GoodResponse	0	0.046	33.609	0	2	Feedback	Neutral	True
36.018	2.585	Control	1.0	n/a	Yes	2.585	n/a	n/a	GoodResponse	0	0.0	n/a	0	2	ISIslide	Neutral	True
38.625	0.25	Win2	1.0	0.0	Yes	2.825	0.025	n/a	GoodResponse	1	n/a	n/a	1	3	Cue	Win	True
38.876	3.95	Win2	1.0	0.0	Yes	2.825	0.001	n/a	GoodResponse	1	n/a	n/a	1	3	Fixation	Win	True
42.821	0.37	Win2	1.0	0.004	Yes	2.825	-0.004	2.0	GoodResponse	1	0.228	42.049	1	3	Target	Win	True
43.049	0.3	Win2	1.0	0.004	Yes	2.825	-0.004	2.0	GoodResponse	1	0.228	n/a	1	3	ButtonPress	Win	True
43.206	0.33	Win2	1.0	n/a	Yes	2.825	n/a	n/a	GoodResponse	1	n/a	n/a	1	3	Blank	Win	True
43.523	1.45	Win2	1.0	n/a	Yes	2.825	n/a	5.0	GoodResponse	1	0.013	42.536	1	3	Feedback	Win	True
44.978	2.825	Win2	1.0	n/a	Yes	2.825	n/a	n/a	GoodResponse	1	0.0	n/a	1	3	ISIslide	Win	True
47.82	0.25	Win2	1.0	0.0	Yes	3.28	0.02	n/a	GoodResponse	1	n/a	n/a	2	4	Cue	Win	True
48.07	4.0	Win2	1.0	0.0	Yes	3.28	0.0	n/a	GoodResponse	1	n/a	n/a	2	4	Fixation	Win	True
52.066	0.36	Win2	1.0	0.004	Yes	3.28	-0.004	2.0	GoodResponse	1	0.204	51.27	2	4	Target	Win	True
52.27	0.3	Win2	1.0	0.004	Yes	3.28	-0.004	2.0	GoodResponse	1	0.204	n/a	2	4	ButtonPress	Win	True
52.433	0.34	Win2	1.0	n/a	Yes	3.28	n/a	n/a	GoodResponse	1	n/a	n/a	2	4	Blank	Win	True
52.768	1.45	Win2	1.0	n/a	Yes	3.28	n/a	5.0	GoodResponse	1	0.036	51.804	2	4	Feedback	Win	True
54.222	3.28	Win2	1.0	n/a	Yes	3.28	n/a	n/a	GoodResponse	1	0.0	n/a	2	4	ISIslide	Win	True
57.515	0.25	Win2	1.0	0.0	Yes	2.785	0.015	n/a	GoodResponse	1	n/a	n/a	3	5	Cue	Win	True
57.766	4.0	Win2	1.0	0.0	Yes	2.785	0.001	n/a	GoodResponse	1	n/a	n/a	3	5	Fixation	Win	True
61.761	0.35	Win2	1.0	0.004	Yes	2.785	-0.004	2.0	GoodResponse	1	0.214	60.975	3	5	Target	Win	True
61.975	0.3	Win2	1.0	0.004	Yes	2.785	-0.004	2.0	GoodResponse	1	0.214	n/a	3	5	ButtonPress	Win	True
62.112	0.35	Win2	1.0	n/a	Yes	2.785	n/a	n/a	GoodResponse	1	n/a	n/a	3	5	Blank	Win	True
62.463	1.45	Win2	1.0	n/a	Yes	2.785	n/a	5.0	GoodResponse	1	0.047	61.51	3	5	Feedback	Win	True
63.918	2.785	Win2	1.0	n/a	Yes	2.785	n/a	n/a	GoodResponse	1	0.0	n/a	3	5	ISIslide	Win	True
66.726	0.25	Lose2	1.0	0.0	Yes	2.724	0.026	n/a	GoodResponse	0	n/a	n/a	3	6	Cue	AvoidedLoss	True
66.977	3.95	Lose2	1.0	0.0	Yes	2.724	0.001	n/a	GoodResponse	0	n/a	n/a	3	6	Fixation	AvoidedLoss	True
70.922	0.34	Lose2	1.0	0.004	Yes	2.724	-0.004	2.0	GoodResponse	0	0.229	70.151	3	6	Target	AvoidedLoss	True
71.151	0.3	Lose2	1.0	0.004	Yes	2.724	-0.004	2.0	GoodResponse	0	0.229	n/a	3	6	ButtonPress	AvoidedLoss	True
71.273	0.36	Lose2	1.0	n/a	Yes	2.724	n/a	n/a	GoodResponse	0	n/a	n/a	3	6	Blank	AvoidedLoss	True
71.624	1.45	Lose2	1.0	n/a	Yes	2.724	n/a	5.0	GoodResponse	0	0.008	70.632	3	6	Feedback	AvoidedLoss	True
73.078	2.724	Lose2	1.0	n/a	Yes	2.724	n/a	n/a	GoodResponse	0	0.0	n/a	3	6	ISIslide	AvoidedLoss	True
75.82	0.25	Lose2	1.0	0.0	Yes	4.03	0.02	n/a	GoodResponse	0	n/a	n/a	3	7	Cue	AvoidedLoss	True
76.071	4.05	Lose2	1.0	0.0	Yes	4.03	0.001	n/a	GoodResponse	0	n/a	n/a	3	7	Fixation	AvoidedLoss	True
80.116	0.33	Lose2	1.0	0.004	Yes	4.03	-0.004	2.0	GoodResponse	0	0.191	79.307	3	7	Target	AvoidedLoss	True
80.307	0.3	Lose2	1.0	0.004	Yes	4.03	-0.004	2.0	GoodResponse	0	0.191	n/a	3	7	ButtonPress	AvoidedLoss	True
80.451	0.37	Lose2	1.0	n/a	Yes	4.03	n/a	n/a	GoodResponse	0	n/a	n/a	3	7	Blank	AvoidedLoss	True
80.818	1.45	Lose2	1.0	n/a	Yes	4.03	n/a	5.0	GoodResponse	0	0.034	79.852	3	7	Feedback	AvoidedLoss	True
82.273	4.03	Lose2	1.0	n/a	Yes	4.03	n/a	n/a	GoodResponse	0	0.0	n/a	3	7	ISIslide	AvoidedLoss	True
86.318	0.25	Lose2	1.0	0.0	Yes	3.032	0.018	n/a	GoodResponse	0	n/a	n/a	3	8	Cue	AvoidedLoss	True
86.569	3.95	Lose2	1.0	0.0	Yes	3.032	0.001	n/a	GoodResponse	0	n/a	n/a	3	8	Fixation	AvoidedLoss	True
90.514	0.32	Lose2	1.0	0.004	Yes	3.032	-0.004	2.0	GoodResponse	0	0.284	89.798	3	8	Target	AvoidedLoss	True
90.798	0.3	Lose2	1.0	0.004	Yes	3.032	-0.004	2.0	GoodResponse	0	0.284	n/a	3	8	ButtonPress	AvoidedLoss	True
90.848	0.38	Lose2	1.0	n/a	Yes	3.032	n/a	n/a	GoodResponse	0	n/a	n/a	3	8	Blank	AvoidedLoss	True
91.216	1.45	Lose2	1.0	n/a	Yes	3.032	n/a	5.0	GoodResponse	0	0.026	90.242	3	8	Feedback	AvoidedLoss	True
92.67	3.032	Lose2	1.0	n/a	Yes	3.032	n/a	n/a	GoodResponse	0	0.0	n/a	3	8	ISIslide	AvoidedLoss	True
95.73	0.25	Lose2	1.0	0.0	Yes	3.12	0.03	n/a	GoodResponse	0	n/a	n/a	3	9	Cue	AvoidedLoss	True
95.98	3.95	Lose2	1.0	0.0	Yes	3.12	0.0	n/a	GoodResponse	0	n/a	n/a	3	9	Fixation	AvoidedLoss	True
99.942	0.31	Lose2	1.0	0.0	Yes	3.12	0.012	2.0	GoodResponse	0	0.23	99.172	3	9	Target	AvoidedLoss	True
100.172	0.3	Lose2	1.0	0.0	Yes	3.12	0.012	2.0	GoodResponse	0	0.23	n/a	3	9	ButtonPress	AvoidedLoss	True
100.243	0.39	Lose2	1.0	n/a	Yes	3.12	n/a	n/a	GoodResponse	0	n/a	n/a	3	9	Blank	AvoidedLoss	True
100.628	1.45	Lose2	1.0	n/a	Yes	3.12	n/a	5.0	GoodResponse	0	0.029	99.657	3	9	Feedback	AvoidedLoss	True
102.082	3.12	Lose2	1.0	n/a	Yes	3.12	n/a	n/a	GoodResponse	0	0.0	n/a	3	9	ISIslide	AvoidedLoss	True
105.225	0.25	Control	1.0	0.0	Yes	3.275	0.025	n/a	GoodResponse	0	n/a	n/a	3	10	Cue	Neutral	True
105.475	4.0	Control	1.0	0.0	Yes	3.275	0.0	n/a	GoodResponse	0	n/a	n/a	3	10	Fixation	Neutral	True
109.471	0.3	Control	1.0	0.004	Yes	3.275	-0.004	2.0	GoodResponse	0	0.233	108.704	3	10	Target	Neutral	True
109.704	0.3	Control	1.0	0.004	Yes	3.275	-0.004	2.0	GoodResponse	0	0.233	n/a	3	10	ButtonPress	Neutral	True
109.772	0.4	Control	1.0	n/a	Yes	3.275	n/a	n/a	GoodResponse	0	n/a	n/a	3	10	Blank	Neutral	True
110.173	1.45	Control	1.0	n/a	Yes	3.275	n/a	5.0	GoodResponse	0	0.044	109.217	3	10	Feedback	Neutral	True
111.627	3.275	Control	1.0	n/a	Yes	3.275	n/a	n/a	GoodResponse	0	0.0	n/a	3	10	ISIslide	Neutral	True
114.92	0.25	Lose2	1.0	0.0	Yes	2.73	0.02	n/a	GoodResponse	0	n/a	n/a	3	11	Cue	AvoidedLoss	True
115.171	4.05	Lose2	1.0	0.0	Yes	2.73	0.001	n/a	GoodResponse	0	n/a	n/a	3	11	Fixation	AvoidedLoss	True
119.217	0.29	Lose2	1.0	0.003	Yes	2.73	-0.003	2.0	GoodResponse	0	0.194	118.411	3	11	Target	AvoidedLoss	True
119.411	0.3	Lose2	1.0	0.003	Yes	2.73	-0.003	2.0	GoodResponse	0	0.194	n/a	3	11	ButtonPress	AvoidedLoss	True
119.517	0.41	Lose2	1.0	n/a	Yes	2.73	n/a	n/a	GoodResponse	0	n/a	n/a	3	11	Blank	AvoidedLoss	True
119.919	1.45	Lose2	1.0	n/a	Yes	2.73	n/a	5.0	GoodResponse	0	0.007	118.926	3	11	Feedback	AvoidedLoss	True
121.373	2.73	Lose2	1.0	n/a	Yes	2.73	n/a	n/a	GoodResponse	0	0.0	n/a	3	11	ISIslide	AvoidedLoss	True
124.115	0.25	Control	1.0	0.0	Yes	2.985	0.015	n/a	GoodResponse	0	n/a	n/a	3	12	Cue	Neutral	True
124.365	3.9	Control	1.0	0.0	Yes	2.985	0.0	n/a	GoodResponse	0	n/a	n/a	3	12	Fixation	Neutral	True
128.277	0.28	Control	1.0	0.0	Yes	2.985	0.012	2.0	GoodResponse	0	0.22	127.497	3	12	Target	Neutral	True
128.497	0.3	Control	1.0	0.0	Yes	2.985	0.012	2.0	GoodResponse	0	0.22	n/a	3	12	ButtonPress	Neutral	True
128.544	0.42	Control	1.0	n/a	Yes	2.985	n/a	n/a	GoodResponse	0	n/a	n/a	3	12	Blank	Neutral	True
128.962	1.45	Control	1.0	n/a	Yes	2.985	n/a	5.0	GoodResponse	0	0.036	127.998	3	12	Feedback	Neutral	True
130.417	2.985	Control	1.0	n/a	Yes	2.985	n/a	n/a	GoodResponse	0	0.0	n/a	3	12	ISIslide	Neutral	True
133.426	0.25	Control	1.0	0.0	Yes	2.774	0.026	n/a	GoodResponse	0	n/a	n/a	3	13	Cue	Neutral	True
133.677	4.0	Control	1.0	0.0	Yes	2.774	0.001	n/a	GoodResponse	0	n/a	n/a	3	13	Fixation	Neutral	True
137.672	0.27	Control	1.0	0.004	Yes	2.774	-0.004	2.0	GoodResponse	0	0.211	136.883	3	13	Target	Neutral	True
137.883	0.3	Control	1.0	0.004	Yes	2.774	-0.004	2.0	GoodResponse	0	0.211	n/a	3	13	ButtonPress	Neutral	True
137.956	0.43	Control	1.0	n/a	Yes	2.774	n/a	n/a	GoodResponse	0	n/a	n/a	3	13	Blank	Neutral	True
138.374	1.45	Control	1.0	n/a	Yes	2.774	n/a	5.0	GoodResponse	0	0.039	137.413	3	13	Feedback	Neutral	True
139.828	2.774	Control	1.0	n/a	Yes	2.774	n/a	n/a	GoodResponse	0	0.0	n/a	3	13	ISIslide	Neutral	True
142.62	0.25	Win2	1.0	0.0	Yes	2.68	0.02	n/a	GoodResponse	1	n/a	n/a	4	14	Cue	Win	True
142.871	4.1	Win2	1.0	0.0	Yes	2.68	0.001	n/a	GoodResponse	1	n/a	n/a	4	14	Fixation	Win	True
146.966	0.26	Win2	1.0	0.004	Yes	2.68	-0.004	2.0	GoodResponse	1	0.158	146.124	4	14	Target	Win	True
147.124	0.3	Win2	1.0	0.004	Yes	2.68	-0.004	2.0	GoodResponse	1	0.158	n/a	4	14	ButtonPress	Win	True
147.234	0.44	Win2	1.0	n/a	Yes	2.68	n/a	n/a	GoodResponse	1	n/a	n/a	4	14	Blank	Win	True
147.668	1.45	Win2	1.0	n/a	Yes	2.68	n/a	5.0	GoodResponse	1	0.013	146.681	4	14	Feedback	Win	True
149.123	2.68	Win2	1.0	n/a	Yes	2.68	n/a	n/a	GoodResponse	1	0.0	n/a	4	14	ISIslide	Win	True
151.831	0.25	Control	1.0	0.0	Yes	2.969	0.031	n/a	GoodResponse	0	n/a	n/a	4	15	Cue	Neutral	True
152.082	4.0	Control	1.0	0.0	Yes	2.969	0.001	n/a	GoodResponse	0	n/a	n/a	4	15	Fixation	Neutral	True
156.077	0.25	Control	1.0	0.004	Yes	2.969	-0.004	2.0	GoodResponse	0	0.243	155.32	4	15	Target	Neutral	True
156.32	0.3	Control	1.0	0.004	Yes	2.969	-0.004	2.0	GoodResponse	0	0.243	n/a	4	15	ButtonPress	Neutral	True
156.328	0.45	Control	1.0	n/a	Yes	2.969	n/a	n/a	GoodResponse	0	n/a	n/a	4	15	Blank	Neutral	True
156.779	1.45	Control	1.0	n/a	Yes	2.969	n/a	5.0	GoodResponse	0	0.023	155.802	4	15	Feedback	Neutral	True
158.233	2.969	Control	1.0	n/a	Yes	2.969	n/a	n/a	GoodResponse	0	0.0	n/a	4	15	ISIslide	Neutral	True
161.226	0.25	Win2	1.0	0.0	Yes	2.874	0.026	n/a	GoodResponse	1	n/a	n/a	5	16	Cue	Win	True
161.476	4.0	Win2	1.0	0.0	Yes	2.874	0.0	n/a	GoodResponse	1	n/a	n/a	5	16	Fixation	Win	True
165.472	0.24	Win2	1.0	0.004	Yes	2.874	-0.004	2.0	GoodResponse	1	0.205	164.677	5	16	Target	Win	True
165.677	0.3	Win2	1.0	0.004	Yes	2.874	-0.004	2.0	GoodResponse	1	0.205	n/a	5	16	ButtonPress	Win	True
165.722	0.46	Win2	1.0	n/a	Yes	2.874	n/a	n/a	GoodResponse	1	n/a	n/a	5	16	Blank	Win	True
166.174	1.45	Win2	1.0	n/a	Yes	2.874	n/a	5.0	GoodResponse	1	0.043	165.217	5	16	Feedback	Win	True
167.628	2.874	Win2	1.0	n/a	Yes	2.874	n/a	n/a	GoodResponse	1	0.0	n/a	5	16	ISIslide	Win	True
170.52	0.25	Lose2	1.0	0.0	Yes	2.73	0.02	n/a	GoodResponse	0	n/a	n/a	5	17	Cue	AvoidedLoss	True
170.771	3.95	Lose2	1.0	0.0	Yes	2.73	0.001	n/a	GoodResponse	0	n/a	n/a	5	17	Fixation	AvoidedLoss	True
174.716	0.23	Lose2	1.0	0.004	Yes	2.73	-0.004	2.0	GoodResponse	0	0.202	173.918	5	17	Target	AvoidedLoss	True
174.918	0.3	Lose2	1.0	0.004	Yes	2.73	-0.004	2.0	GoodResponse	0	0.202	n/a	5	17	ButtonPress	AvoidedLoss	True
174.95	0.47	Lose2	1.0	n/a	Yes	2.73	n/a	n/a	GoodResponse	0	n/a	n/a	5	17	Blank	AvoidedLoss	True
175.418	1.45	Lose2	1.0	n/a	Yes	2.73	n/a	5.0	GoodResponse	0	0.018	174.436	5	17	Feedback	AvoidedLoss	True
176.872	2.73	Lose2	1.0	n/a	Yes	2.73	n/a	n/a	GoodResponse	0	0.0	n/a	5	17	ISIslide	AvoidedLoss	True
179.631	0.25	Lose2	1.0	0.0	Yes	2.719	0.031	n/a	GoodResponse	0	n/a	n/a	5	18	Cue	AvoidedLoss	True
179.881	4.05	Lose2	1.0	0.001	Yes	2.719	0.0	n/a	GoodResponse	0	n/a	n/a	5	18	Fixation	AvoidedLoss	True
183.927	0.22	Lose2	1.0	0.004	Yes	2.719	-0.004	2.0	GoodResponse	0	0.206	183.133	5	18	Target	AvoidedLoss	True
184.133	0.3	Lose2	1.0	0.004	Yes	2.719	-0.004	2.0	GoodResponse	0	0.206	n/a	5	18	ButtonPress	AvoidedLoss	True
184.161	0.48	Lose2	1.0	n/a	Yes	2.719	n/a	n/a	GoodResponse	0	n/a	n/a	5	18	Blank	AvoidedLoss	True
184.629	1.45	Lose2	1.0	n/a	Yes	2.719	n/a	5.0	GoodResponse	0	0.027	183.656	5	18	Feedback	AvoidedLoss	True
186.083	2.719	Lose2	1.0	n/a	Yes	2.719	n/a	n/a	GoodResponse	0	0.0	n/a	5	18	ISIslide	AvoidedLoss	True
188.825	0.25	Control	0.95	0.0	No	2.925	0.025	n/a	NoResponse	0	n/a	n/a	5	19	Cue	Neutral	True
189.076	3.95	Control	0.95	0.0	No	2.925	0.001	n/a	NoResponse	0	n/a	n/a	5	19	Fixation	Neutral	True
193.021	0.21	Control	0.95	0.004	No	2.925	-0.004	2.0	NoResponse	0	0.278	192.299	5	19	Target	Neutral	True
193.238	0.49	Control	0.95	n/a	No	2.925	n/a	n/a	NoResponse	0	n/a	n/a	5	19	Blank	Neutral	True
193.299	0.3	Control	0.95	0.004	No	2.925	-0.004	2.0	NoResponse	0	0.278	n/a	5	19	ButtonPress	Neutral	True
193.723	1.45	Control	0.95	n/a	No	2.925	n/a	5.0	NoResponse	0	0.008	192.731	5	19	Feedback	Neutral	True
195.177	2.925	Control	0.95	n/a	No	2.925	n/a	n/a	NoResponse	0	0.0	n/a	5	19	ISIslide	Neutral	True
198.119	0.25	Control	0.9048	0.0	No	2.631	0.019	n/a	NoResponse	0	n/a	n/a	5	20	Cue	Neutral	True
198.37	4.05	Control	0.9048	0.0	No	2.631	0.001	n/a	NoResponse	0	n/a	n/a	5	20	Fixation	Neutral	True
202.416	0.2	Control	0.9048	0.003	No	2.631	-0.003	2.0	NoResponse	0	0.258	201.674	5	20	Target	Neutral	True
202.616	0.5	Control	0.9048	n/a	No	2.631	n/a	n/a	NoResponse	0	n/a	n/a	5	20	Blank	Neutral	True
202.674	0.3	Control	0.9048	0.003	No	2.631	-0.003	2.0	NoResponse	0	0.258	n/a	5	20	ButtonPress	Neutral	True
203.118	1.45	Control	0.9048	n/a	No	2.631	n/a	5.0	NoResponse	0	0.026	202.144	5	20	Feedback	Neutral	True
204.572	2.631	Control	0.9048	n/a	No	2.631	n/a	n/a	NoResponse	0	0.0	n/a	5	20	ISIslide	Neutral	True
207.23	0.25	Control	0.8636	0.0	No	2.77	0.03	n/a	NoResponse	0	n/a	n/a	5	21	Cue	Neutral	True
207.481	4.1	Control	0.8636	0.0	No	2.77	0.001	n/a	NoResponse	0	n/a	n/a	5	21	Fixation	Neutral	True
211.576	0.19	Control	0.8636	0.004	No	2.77	-0.004	2.0	NoResponse	0	0.266	210.842	5	21	Target	Neutral	True
211.777	0.51	Control	0.8636	n/a	No	2.77	n/a	n/a	NoResponse	0	n/a	n/a	5	21	Blank	Neutral	True
211.842	0.3	Control	0.8636	0.004	No	2.77	-0.004	2.0	NoResponse	0	0.266	n/a	5	21	ButtonPress	Neutral	True
212.278	1.45	Control	0.8636	n/a	No	2.77	n/a	5.0	NoResponse	0	0.036	211.314	5	21	Feedback	Neutral	True
213.733	2.77	Control	0.8636	n/a	No	2.77	n/a	n/a	NoResponse	0	0.0	n/a	5	21	ISIslide	Neutral	True
216.525	0.25	Control	0.8261	0.0	No	2.775	0.025	n/a	NoResponse	0	n/a	n/a	5	22	Cue	Neutral	True
216.775	4.0	Control	0.8261	0.0	No	2.775	0.0	n/a	NoResponse	0	n/a	n/a	5	22	Fixation	Neutral	True
220.771	0.18	Control	0.8261	0.004	No	2.775	-0.004	2.0	NoResponse	0	0.283	220.054	5	22	Target	Neutral	True
220.954	0.52	Control	0.8261	n/a	No	2.775	n/a	n/a	NoResponse	0	n/a	n/a	5	22	Blank	Neutral	True
221.054	0.3	Control	0.8261	0.004	No	2.775	-0.004	2.0	NoResponse	0	0.283	n/a	5	22	ButtonPress	Neutral	True
221.473	1.45	Control	0.8261	n/a	No	2.775	n/a	5.0	NoResponse	0	0.012	220.485	5	22	Feedback	Neutral	True
222.927	2.775	Control	0.8261	n/a	No	2.775	n/a	n/a	NoResponse	0	0.0	n/a	5	22	ISIslide	Neutral	True
225.719	0.25	Control	0.7917000000000001	0.0	No	2.781	0.019	n/a	NoResponse	0	n/a	n/a	5	23	Cue	Neutral	True
225.969	3.9	Control	0.7917000000000001	0.001	No	2.781	0.0	n/a	NoResponse	0	n/a	n/a	5	23	Fixation	Neutral	True
229.881	0.17	Control	0.7917000000000001	0.0	No	2.781	0.012	2.0	NoResponse	0	0.357	229.238	5	23	Target	Neutral	True
230.048	0.53	Control	0.7917000000000001	n/a	No	2.781	n/a	n/a	NoResponse	0	n/a	n/a	5	23	Blank	Neutral	True
230.238	0.3	Control	0.7917000000000001	0.0	No	2.781	0.012	2.0	NoResponse	0	0.357	n/a	5	23	ButtonPress	Neutral	True
230.567	1.45	Control	0.7917000000000001	n/a	No	2.781	n/a	5.0	NoResponse	0	0.04	229.607	5	23	Feedback	Neutral	True
232.021	2.781	Control	0.7917000000000001	n/a	No	2.781	n/a	n/a	NoResponse	0	0.0	n/a	5	23	ISIslide	Neutral	True
234.829	0.25	Win2	0.76	0.0	No	3.121	0.029	n/a	NoResponse	0	n/a	n/a	5	24	Cue	MissedWin	True
235.08	3.95	Win2	0.76	0.0	No	3.121	0.001	n/a	NoResponse	0	n/a	n/a	5	24	Fixation	MissedWin	True
239.025	0.16	Win2	0.76	0.004	No	3.121	-0.004	2.0	NoResponse	0	0.18	238.205	5	24	Target	MissedWin	True
239.192	0.54	Win2	0.76	n/a	No	3.121	n/a	n/a	NoResponse	0	n/a	n/a	5	24	Blank	MissedWin	True
239.205	0.3	Win2	0.76	0.004	No	3.121	-0.004	2.0	NoResponse	0	0.18	n/a	5	24	ButtonPress	MissedWin	True
239.727	1.45	Win2	0.76	n/a	No	3.121	n/a	5.0	NoResponse	0	0.002	238.729	5	24	Feedback	MissedWin	True
241.182	3.121	Win2	0.76	n/a	No	3.121	n/a	n/a	NoResponse	0	0.0	n/a	5	24	ISIslide	MissedWin	True
244.324	0.25	Win2	0.7308	0.0	No	3.076	0.024	n/a	NoResponse	0	n/a	n/a	5	25	Cue	MissedWin	True
244.575	4.0	Win2	0.7308	0.0	No	3.076	0.001	n/a	NoResponse	0	n/a	n/a	5	25	Fixation	MissedWin	True
248.57	0.15	Win2	0.7308	0.004	No	3.076	-0.004	2.0	NoResponse	0	0.188	247.758	5	25	Target	MissedWin	True
248.721	0.55	Win2	0.7308	n/a	No	3.076	n/a	n/a	NoResponse	0	n/a	n/a	5	25	Blank	MissedWin	True
248.758	0.3	Win2	0.7308	0.004	No	3.076	-0.004	2.0	NoResponse	0	0.188	n/a	5	25	ButtonPress	MissedWin	True
249.273	1.45	Win2	0.7308	n/a	No	3.076	n/a	5.0	NoResponse	0	0.017	248.29	5	25	Feedback	MissedWin	True
250.727	3.076	Win2	0.7308	n/a	No	3.076	n/a	n/a	NoResponse	0	0.0	n/a	5	25	ISIslide	MissedWin	True
253.819	0.25	Win2	0.7037	0.001	No	2.931	0.019	n/a	NoResponse	0	n/a	n/a	5	26	Cue	MissedWin	True
254.07	3.95	Win2	0.7037	0.0	No	2.931	0.001	n/a	NoResponse	0	n/a	n/a	5	26	Fixation	MissedWin	True
258.015	0.15	Win2	0.7037	0.004	No	2.931	-0.004	2.0	NoResponse	0	0.191	257.206	5	26	Target	MissedWin	True
258.166	0.55	Win2	0.7037	n/a	No	2.931	n/a	n/a	NoResponse	0	n/a	n/a	5	26	Blank	MissedWin	True
258.206	0.3	Win2	0.7037	0.004	No	2.931	-0.004	2.0	NoResponse	0	0.191	n/a	5	26	ButtonPress	MissedWin	True
258.717	1.45	Win2	0.7037	n/a	No	2.931	n/a	5.0	NoResponse	0	0.035	257.752	5	26	Feedback	MissedWin	True
260.172	2.931	Win2	0.7037	n/a	No	2.931	n/a	n/a	NoResponse	0	0.0	n/a	5	26	ISIslide	MissedWin	True
263.131	0.25	Lose2	0.6786	0.0	No	2.819	0.031	n/a	NoResponse	-1	n/a	n/a	4	27	Cue	Loss	True
263.381	4.05	Lose2	0.6786	0.0	No	2.819	0.0	n/a	NoResponse	-1	n/a	n/a	4	27	Fixation	Loss	True
267.427	0.15	Lose2	0.6786	0.004	No	2.819	-0.004	2.0	NoResponse	-1	0.198	266.625	4	27	Target	Loss	True
267.577	0.55	Lose2	0.6786	n/a	No	2.819	n/a	n/a	NoResponse	-1	n/a	n/a	4	27	Blank	Loss	True
267.625	0.3	Lose2	0.6786	0.004	No	2.819	-0.004	2.0	NoResponse	-1	0.198	n/a	4	27	ButtonPress	Loss	True
268.129	1.45	Lose2	0.6786	n/a	No	2.819	n/a	5.0	NoResponse	-1	0.038	267.167	4	27	Feedback	Loss	True
269.583	2.819	Lose2	0.6786	n/a	No	2.819	n/a	n/a	NoResponse	-1	0.0	n/a	4	27	ISIslide	Loss	True
272.425	0.25	Control	0.6552	0.0	No	2.825	0.025	n/a	NoResponse	0	n/a	n/a	4	28	Cue	Neutral	True
272.676	4.05	Control	0.6552	0.0	No	2.825	0.001	n/a	NoResponse	0	n/a	n/a	4	28	Fixation	Neutral	True
276.721	0.15	Control	0.6552	0.004	No	2.825	-0.004	2.0	NoResponse	0	0.199	275.92	4	28	Target	Neutral	True
276.872	0.55	Control	0.6552	n/a	No	2.825	n/a	n/a	NoResponse	0	n/a	n/a	4	28	Blank	Neutral	True
276.92	0.3	Control	0.6552	0.004	No	2.825	-0.004	2.0	NoResponse	0	0.199	n/a	4	28	ButtonPress	Neutral	True
277.423	1.45	Control	0.6552	n/a	No	2.825	n/a	5.0	NoResponse	0	0.013	276.436	4	28	Feedback	Neutral	True
278.878	2.825	Control	0.6552	n/a	No	2.825	n/a	n/a	NoResponse	0	0.0	n/a	4	28	ISIslide	Neutral	True
281.72	0.25	Lose2	0.6333	0.0	No	2.83	0.02	n/a	NoResponse	-1	n/a	n/a	3	29	Cue	Loss	True
281.97	3.95	Lose2	0.6333	0.0	No	2.83	0.0	n/a	NoResponse	-1	n/a	n/a	3	29	Fixation	Loss	True
285.916	0.15	Lose2	0.6333	0.004	No	2.83	-0.004	2.0	NoResponse	-1	0.163	285.079	3	29	Target	Loss	True
286.066	0.55	Lose2	0.6333	n/a	No	2.83	n/a	n/a	NoResponse	-1	n/a	n/a	3	29	Blank	Loss	True
286.079	0.3	Lose2	0.6333	0.004	No	2.83	-0.004	2.0	NoResponse	-1	0.163	n/a	3	29	ButtonPress	Loss	True
286.618	1.45	Lose2	0.6333	n/a	No	2.83	n/a	5.0	NoResponse	-1	0.037	285.655	3	29	Feedback	Loss	True
288.072	2.83	Lose2	0.6333	n/a	No	2.83	n/a	n/a	NoResponse	-1	0.0	n/a	3	29	ISIslide	Loss	True
290.931	0.25	Win2	0.6129	0.0	No	2.769	0.031	n/a	NoResponse	0	n/a	n/a	3	30	Cue	MissedWin	True
291.181	3.9	Win2	0.6129	0.0	No	2.769	0.0	n/a	NoResponse	0	n/a	n/a	3	30	Fixation	MissedWin	True
295.093	0.16	Win2	0.6129	0.0	No	2.769	0.012	2.0	NoResponse	0	0.272	294.365	3	30	Target	MissedWin	True
295.243	0.54	Win2	0.6129	n/a	No	2.769	n/a	n/a	NoResponse	0	n/a	n/a	3	30	Blank	MissedWin	True
295.365	0.3	Win2	0.6129	0.0	No	2.769	0.012	2.0	NoResponse	0	0.272	n/a	3	30	ButtonPress	MissedWin	True
295.778	1.45	Win2	0.6129	n/a	No	2.769	n/a	5.0	NoResponse	0	0.048	294.826	3	30	Feedback	MissedWin	True
297.233	2.769	Win2	0.6129	n/a	No	2.769	n/a	n/a	NoResponse	0	0.0	n/a	3	30	ISIslide	MissedWin	True
300.024	0.25	Lose2	0.5938	0.001	No	2.826	0.024	n/a	LatePress	-1	n/a	n/a	2	31	Cue	Loss	True
300.275	4.05	Lose2	0.5938	0.0	No	2.826	0.001	n/a	LatePress	-1	n/a	n/a	2	31	Fixation	Loss	True
304.321	0.17	Lose2	0.5938	0.003	No	2.826	-0.003	2.0	LatePress	-1	0.175	303.496	2	31	Target	Loss	True
304.496	0.3	Lose2	0.5938	0.003	No	2.826	-0.003	2.0	LatePress	-1	0.175	n/a	2	31	ButtonPress	Loss	True
304.505	0.53	Lose2	0.5938	n/a	No	2.826	n/a	n/a	LatePress	-1	n/a	n/a	2	31	Blank	Loss	True
305.023	1.45	Lose2	0.5938	n/a	No	2.826	n/a	5.0	LatePress	-1	0.023	304.046	2	31	Feedback	Loss	True
306.477	2.826	Lose2	0.5938	n/a	No	2.826	n/a	n/a	LatePress	-1	0.0	n/a	2	31	ISIslide	Loss	True
309.319	0.25	Lose2	0.5758	0.0	No	2.631	0.019	n/a	NoResponse	-1	n/a	n/a	1	32	Cue	Loss	True
309.57	4.15	Lose2	0.5758	0.0	No	2.631	0.001	n/a	NoResponse	-1	n/a	n/a	1	32	Fixation	Loss	True
313.715	0.18	Lose2	0.5758	0.004	No	2.631	-0.004	2.0	NoResponse	-1	0.193	312.908	1	32	Target	Loss	True
313.899	0.52	Lose2	0.5758	n/a	No	2.631	n/a	n/a	NoResponse	-1	n/a	n/a	1	32	Blank	Loss	True
313.908	0.3	Lose2	0.5758	0.004	No	2.631	-0.004	2.0	NoResponse	-1	0.193	n/a	1	32	ButtonPress	Loss	True
314.418	1.45	Lose2	0.5758	n/a	No	2.631	n/a	5.0	NoResponse	-1	0.041	313.459	1	32	Feedback	Loss	True
315.872	2.631	Lose2	0.5758	n/a	No	2.631	n/a	n/a	NoResponse	-1	0.0	n/a	1	32	ISIslide	Loss	True
318.53	0.25	Win2	0.5588000000000001	0.0	No	2.67	0.03	n/a	LatePress	0	n/a	n/a	1	33	Cue	MissedWin	True
318.781	4.0	Win2	0.5588000000000001	0.0	No	2.67	0.001	n/a	LatePress	0	n/a	n/a	1	33	Fixation	MissedWin	True
322.776	0.19	Win2	0.5588000000000001	0.004	No	2.67	-0.004	2.0	LatePress	0	0.196	321.972	1	33	Target	MissedWin	True
322.972	0.3	Win2	0.5588000000000001	0.004	No	2.67	-0.004	2.0	LatePress	0	0.196	n/a	1	33	ButtonPress	MissedWin	True
322.976	0.51	Win2	0.5588000000000001	n/a	No	2.67	n/a	n/a	LatePress	0	n/a	n/a	1	33	Blank	MissedWin	True
323.478	1.45	Win2	0.5588000000000001	n/a	No	2.67	n/a	5.0	LatePress	0	0.008	322.486	1	33	Feedback	MissedWin	True
324.932	2.67	Win2	0.5588000000000001	n/a	No	2.67	n/a	n/a	LatePress	0	0.0	n/a	1	33	ISIslide	MissedWin	True
327.624	0.25	Lose2	0.5714	0.0	Yes	2.626	0.024	n/a	GoodResponse	0	n/a	n/a	1	34	Cue	AvoidedLoss	True
327.874	4.05	Lose2	0.5714	0.001	Yes	2.626	0.0	n/a	GoodResponse	0	n/a	n/a	1	34	Fixation	AvoidedLoss	True
331.92	0.2	Lose2	0.5714	0.004	Yes	2.626	-0.004	2.0	GoodResponse	0	0.187	331.107	1	34	Target	AvoidedLoss	True
332.107	0.3	Lose2	0.5714	0.004	Yes	2.626	-0.004	2.0	GoodResponse	0	0.187	n/a	1	34	ButtonPress	AvoidedLoss	True
332.121	0.5	Lose2	0.5714	n/a	Yes	2.626	n/a	n/a	GoodResponse	0	n/a	n/a	1	34	Blank	AvoidedLoss	True
332.622	1.45	Lose2	0.5714	n/a	Yes	2.626	n/a	5.0	GoodResponse	0	0.033	331.655	1	34	Feedback	AvoidedLoss	True
334.076	2.626	Lose2	0.5714	n/a	Yes	2.626	n/a	n/a	GoodResponse	0	0.0	n/a	1	34	ISIslide	AvoidedLoss	True
336.718	0.25	Lose2	0.5832999999999999	0.0	Yes	2.682	0.018	n/a	GoodResponse	0	n/a	n/a	1	35	Cue	AvoidedLoss	True
336.968	4.0	Lose2	0.5832999999999999	0.0	Yes	2.682	0.0	n/a	GoodResponse	0	n/a	n/a	1	35	Fixation	AvoidedLoss	True
340.964	0.21	Lose2	0.5832999999999999	0.004	Yes	2.682	-0.004	2.0	GoodResponse	0	0.202	340.166	1	35	Target	AvoidedLoss	True
341.166	0.3	Lose2	0.5832999999999999	0.004	Yes	2.682	-0.004	2.0	GoodResponse	0	0.202	n/a	1	35	ButtonPress	AvoidedLoss	True
341.181	0.49	Lose2	0.5832999999999999	n/a	Yes	2.682	n/a	n/a	GoodResponse	0	n/a	n/a	1	35	Blank	AvoidedLoss	True
341.666	1.45	Lose2	0.5832999999999999	n/a	Yes	2.682	n/a	5.0	GoodResponse	0	0.013	340.679	1	35	Feedback	AvoidedLoss	True
343.12	2.682	Lose2	0.5832999999999999	n/a	Yes	2.682	n/a	n/a	GoodResponse	0	0.0	n/a	1	35	ISIslide	AvoidedLoss	True
345.828	0.25	Control	0.5676	0.0	No	2.672	0.028	n/a	LatePress	0	n/a	n/a	1	36	Cue	Neutral	True
346.079	4.0	Control	0.5676	0.0	No	2.672	0.001	n/a	LatePress	0	n/a	n/a	1	36	Fixation	Neutral	True
350.074	0.22	Control	0.5676	0.004	No	2.672	-0.004	2.0	LatePress	0	0.227	349.301	1	36	Target	Neutral	True
350.301	0.3	Control	0.5676	0.004	No	2.672	-0.004	2.0	LatePress	0	0.227	n/a	1	36	ButtonPress	Neutral	True
350.308	0.48	Control	0.5676	n/a	No	2.672	n/a	n/a	LatePress	0	n/a	n/a	1	36	Blank	Neutral	True
350.776	1.45	Control	0.5676	n/a	No	2.672	n/a	5.0	LatePress	0	0.025	349.801	1	36	Feedback	Neutral	True
352.231	2.672	Control	0.5676	n/a	No	2.672	n/a	n/a	LatePress	0	0.0	n/a	1	36	ISIslide	Neutral	True
354.922	0.25	Win2	0.5789	0.0	Yes	2.878	0.022	n/a	GoodResponse	1	n/a	n/a	2	37	Cue	Win	True
355.173	4.0	Win2	0.5789	0.0	Yes	2.878	0.001	n/a	GoodResponse	1	n/a	n/a	2	37	Fixation	Win	True
359.168	0.23	Win2	0.5789	0.004	Yes	2.878	-0.004	2.0	GoodResponse	1	0.21	358.378	2	37	Target	Win	True
359.378	0.3	Win2	0.5789	0.004	Yes	2.878	-0.004	2.0	GoodResponse	1	0.21	n/a	2	37	ButtonPress	Win	True
359.402	0.47	Win2	0.5789	n/a	Yes	2.878	n/a	n/a	GoodResponse	1	n/a	n/a	2	37	Blank	Win	True
359.87	1.45	Win2	0.5789	n/a	Yes	2.878	n/a	5.0	GoodResponse	1	0.008	358.878	2	37	Feedback	Win	True
361.325	2.878	Win2	0.5789	n/a	Yes	2.878	n/a	n/a	GoodResponse	1	0.0	n/a	2	37	ISIslide	Win	True
364.217	0.25	Lose2	0.5897	0.0	Yes	2.833	0.017	n/a	GoodResponse	0	n/a	n/a	2	38	Cue	AvoidedLoss	False
364.467	3.95	Lose2	0.5897	0.0	Yes	2.833	0.0	2.0	GoodResponse	0	3.455	366.922	2	38	Fixation	AvoidedLoss	False
367.922	0.3	Lose2	0.5897	0.0	Yes	2.833	0.0	2.0	GoodResponse	0	3.455	n/a	2	38	ButtonPress	AvoidedLoss	False
368.412	0.24	Lose2	0.5897	0.005	Yes	2.833	-0.005	2.0	GoodResponse	0	0.183	367.595	2	38	Target	AvoidedLoss	False
368.595	0.3	Lose2	0.5897	0.005	Yes	2.833	-0.005	2.0	GoodResponse	0	0.183	n/a	2	38	ButtonPress	AvoidedLoss	False
368.663	0.46	Lose2	0.5897	n/a	Yes	2.833	n/a	n/a	GoodResponse	0	n/a	n/a	2	38	Blank	AvoidedLoss	False
369.115	1.45	Lose2	0.5897	n/a	Yes	2.833	n/a	5.0	GoodResponse	0	0.027	368.142	2	38	Feedback	AvoidedLoss	False
370.569	2.833	Lose2	0.5897	n/a	Yes	2.833	n/a	n/a	GoodResponse	0	0.0	n/a	2	38	ISIslide	AvoidedLoss	False
373.427	0.25	Win2	0.6	0.001	Yes	2.973	0.027	n/a	GoodResponse	1	n/a	n/a	3	39	Cue	Win	True
373.678	4.1	Win2	0.6	0.0	Yes	2.973	0.001	n/a	GoodResponse	1	n/a	n/a	3	39	Fixation	Win	True
377.774	0.25	Win2	0.6	0.003	Yes	2.973	-0.003	2.0	GoodResponse	1	0.179	376.953	3	39	Target	Win	True
377.953	0.3	Win2	0.6	0.003	Yes	2.973	-0.003	2.0	GoodResponse	1	0.179	n/a	3	39	ButtonPress	Win	True
378.025	0.45	Win2	0.6	n/a	Yes	2.973	n/a	n/a	GoodResponse	1	n/a	n/a	3	39	Blank	Win	True
378.476	1.45	Win2	0.6	n/a	Yes	2.973	n/a	5.0	GoodResponse	1	0.032	377.508	3	39	Feedback	Win	True
379.93	2.973	Win2	0.6	n/a	Yes	2.973	n/a	n/a	GoodResponse	1	0.0	n/a	3	39	ISIslide	Win	True
382.923	0.25	Win2	0.6098	0.0	Yes	2.727	0.023	n/a	GoodResponse	1	n/a	n/a	4	40	Cue	Win	True
383.173	3.95	Win2	0.6098	0.0	Yes	2.727	0.0	n/a	GoodResponse	1	n/a	n/a	4	40	Fixation	Win	True
387.118	0.26	Win2	0.6098	0.005	Yes	2.727	-0.005	2.0	GoodResponse	1	0.208	386.326	4	40	Target	Win	True
387.326	0.3	Win2	0.6098	0.005	Yes	2.727	-0.005	2.0	GoodResponse	1	0.208	n/a	4	40	ButtonPress	Win	True
387.386	0.44	Win2	0.6098	n/a	Yes	2.727	n/a	n/a	GoodResponse	1	n/a	n/a	4	40	Blank	Win	True
387.821	1.45	Win2	0.6098	n/a	Yes	2.727	n/a	5.0	GoodResponse	1	0.008	386.829	4	40	Feedback	Win	True
389.275	2.727	Win2	0.6098	n/a	Yes	2.727	n/a	n/a	GoodResponse	1	0.0	n/a	4	40	ISIslide	Win	True
392.016	0.25	Win2	0.619	0.001	Yes	2.784	0.016	n/a	GoodResponse	1	n/a	n/a	5	41	Cue	Win	True
392.267	3.9	Win2	0.619	0.0	Yes	2.784	0.001	n/a	GoodResponse	1	n/a	n/a	5	41	Fixation	Win	True
396.162	0.27	Win2	0.619	0.004	Yes	2.784	-0.004	2.0	GoodResponse	1	0.252	395.414	5	41	Target	Win	True
396.414	0.3	Win2	0.619	0.004	Yes	2.784	-0.004	2.0	GoodResponse	1	0.252	n/a	5	41	ButtonPress	Win	True
396.446	0.43	Win2	0.619	n/a	Yes	2.784	n/a	n/a	GoodResponse	1	n/a	n/a	5	41	Blank	Win	True
396.864	1.45	Win2	0.619	n/a	Yes	2.784	n/a	5.0	GoodResponse	1	0.034	395.898	5	41	Feedback	Win	True
398.319	2.784	Win2	0.619	n/a	Yes	2.784	n/a	n/a	GoodResponse	1	0.0	n/a	5	41	ISIslide	Win	True
401.127	0.25	Control	0.6279	0.0	Yes	2.923	0.027	n/a	GoodResponse	0	n/a	n/a	5	42	Cue	Neutral	True
401.378	3.85	Control	0.6279	0.0	Yes	2.923	0.001	n/a	GoodResponse	0	n/a	n/a	5	42	Fixation	Neutral	True
405.223	0.28	Control	0.6279	0.004	Yes	2.923	-0.004	2.0	GoodResponse	0	0.223	404.446	5	42	Target	Neutral	True
405.446	0.3	Control	0.6279	0.004	Yes	2.923	-0.004	2.0	GoodResponse	0	0.223	n/a	5	42	ButtonPress	Neutral	True
405.507	0.42	Control	0.6279	n/a	Yes	2.923	n/a	n/a	GoodResponse	0	n/a	n/a	5	42	Blank	Neutral	True
405.925	1.45	Control	0.6279	n/a	Yes	2.923	n/a	5.0	GoodResponse	0	0.045	404.97	5	42	Feedback	Neutral	True
407.379	2.923	Control	0.6279	n/a	Yes	2.923	n/a	n/a	GoodResponse	0	0.0	n/a	5	42	ISIslide	Neutral	True
410.321	0.25	Win2	0.6364	0.0	Yes	3.179	0.021	n/a	GoodResponse	1	n/a	n/a	6	43	Cue	Win	True
410.572	4.0	Win2	0.6364	0.0	Yes	3.179	0.001	n/a	GoodResponse	1	n/a	n/a	6	43	Fixation	Win	True
414.567	0.29	Win2	0.6364	0.004	Yes	3.179	-0.004	2.0	GoodResponse	1	0.223	413.79	6	43	Target	Win	True
414.79	0.3	Win2	0.6364	0.004	Yes	3.179	-0.004	2.0	GoodResponse	1	0.223	n/a	6	43	ButtonPress	Win	True
414.868	0.41	Win2	0.6364	n/a	Yes	3.179	n/a	n/a	GoodResponse	1	n/a	n/a	6	43	Blank	Win	True
415.269	1.45	Win2	0.6364	n/a	Yes	3.179	n/a	5.0	GoodResponse	1	0.019	414.288	6	43	Feedback	Win	True
416.724	3.179	Win2	0.6364	n/a	Yes	3.179	n/a	n/a	GoodResponse	1	0.0	n/a	6	43	ISIslide	Win	True
419.917	0.25	Win2	0.6444	0.0	Yes	2.983	0.017	n/a	GoodResponse	1	n/a	n/a	7	44	Cue	Win	True
420.167	4.0	Win2	0.6444	0.001	Yes	2.983	0.0	n/a	GoodResponse	1	n/a	n/a	7	44	Fixation	Win	True
424.163	0.3	Win2	0.6444	0.004	Yes	2.983	-0.004	2.0	GoodResponse	1	0.184	423.347	7	44	Target	Win	True
424.347	0.3	Win2	0.6444	0.004	Yes	2.983	-0.004	2.0	GoodResponse	1	0.184	n/a	7	44	ButtonPress	Win	True
424.464	0.4	Win2	0.6444	n/a	Yes	2.983	n/a	n/a	GoodResponse	1	n/a	n/a	7	44	Blank	Win	True
424.865	1.45	Win2	0.6444	n/a	Yes	2.983	n/a	5.0	GoodResponse	1	0.032	423.897	7	44	Feedback	Win	True
426.319	2.983	Win2	0.6444	n/a	Yes	2.983	n/a	n/a	GoodResponse	1	0.0	n/a	7	44	ISIslide	Win	True
429.328	0.25	Control	0.6522	0.0	Yes	2.872	0.028	n/a	GoodResponse	0	n/a	n/a	7	45	Cue	Neutral	False
429.579	4.1	Control	0.6522	0.0	Yes	2.872	0.001	2.0	GoodResponse	0	3.808	432.387	7	45	Fixation	Neutral	False
433.387	0.3	Control	0.6522	0.0	Yes	2.872	0.001	2.0	GoodResponse	0	3.808	n/a	7	45	ButtonPress	Neutral	False
433.675	0.31	Control	0.6522	0.003	Yes	2.872	-0.003	2.0	GoodResponse	0	0.191	432.866	7	45	Target	Neutral	False
433.866	0.3	Control	0.6522	0.003	Yes	2.872	-0.003	2.0	GoodResponse	0	0.191	n/a	7	45	ButtonPress	Neutral	False
433.992	0.39	Control	0.6522	n/a	Yes	2.872	n/a	n/a	GoodResponse	0	n/a	n/a	7	45	Blank	Neutral	False
434.377	1.45	Control	0.6522	n/a	Yes	2.872	n/a	5.0	GoodResponse	0	0.033	433.41	7	45	Feedback	Neutral	False
435.831	2.872	Control	0.6522	n/a	Yes	2.872	n/a	n/a	GoodResponse	0	0.0	n/a	7	45	ISIslide	Neutral	False
438.723	0.25	Lose2	0.6596	0.0	Yes	3.377	0.023	n/a	GoodResponse	0	n/a	n/a	7	46	Cue	AvoidedLoss	True
438.974	4.0	Lose2	0.6596	0.0	Yes	3.377	0.001	n/a	GoodResponse	0	n/a	n/a	7	46	Fixation	AvoidedLoss	True
442.969	0.32	Lose2	0.6596	0.004	Yes	3.377	-0.004	2.0	GoodResponse	0	0.237	442.206	7	46	Target	AvoidedLoss	True
443.206	0.3	Lose2	0.6596	0.004	Yes	3.377	-0.004	2.0	GoodResponse	0	0.237	n/a	7	46	ButtonPress	AvoidedLoss	True
443.303	0.38	Lose2	0.6596	n/a	Yes	3.377	n/a	n/a	GoodResponse	0	n/a	n/a	7	46	Blank	AvoidedLoss	True
443.671	1.45	Lose2	0.6596	n/a	Yes	3.377	n/a	5.0	GoodResponse	0	0.008	442.679	7	46	Feedback	AvoidedLoss	True
445.125	3.377	Lose2	0.6596	n/a	Yes	3.377	n/a	n/a	GoodResponse	0	0.0	n/a	7	46	ISIslide	AvoidedLoss	True
448.519	0.25	Lose2	0.6457999999999999	0.0	No	2.681	0.019	n/a	PrematurePress	-1	n/a	n/a	6	47	Cue	Loss	True
448.77	4.0	Lose2	0.6457999999999999	0.0	No	2.681	0.001	n/a	PrematurePress	-1	n/a	n/a	6	47	Fixation	Loss	True
452.765	0.32	Lose2	0.6457999999999999	0.004	No	2.681	-0.004	2.0	PrematurePress	-1	0.068	451.833	6	47	Target	Loss	True
452.833	0.3	Lose2	0.6457999999999999	0.004	No	2.681	-0.004	2.0	PrematurePress	-1	0.068	n/a	6	47	ButtonPress	Loss	True
453.099	0.38	Lose2	0.6457999999999999	n/a	No	2.681	n/a	n/a	PrematurePress	-1	n/a	n/a	6	47	Blank	Loss	True
453.467	1.45	Lose2	0.6457999999999999	n/a	No	2.681	n/a	5.0	PrematurePress	-1	0.016	452.483	6	47	Feedback	Loss	True
454.921	2.681	Lose2	0.6457999999999999	n/a	No	2.681	n/a	n/a	PrematurePress	-1	0.0	n/a	6	47	ISIslide	Loss	True
457.63	0.25	Lose2	0.6531	0.0	Yes	3.02	0.03	n/a	GoodResponse	0	n/a	n/a	6	48	Cue	AvoidedLoss	True
457.88	3.95	Lose2	0.6531	0.0	Yes	3.02	0.0	n/a	GoodResponse	0	n/a	n/a	6	48	Fixation	AvoidedLoss	True
461.842	0.33	Lose2	0.6531	0.0	Yes	3.02	0.012	2.0	GoodResponse	0	0.207	461.049	6	48	Target	AvoidedLoss	True
462.049	0.3	Lose2	0.6531	0.0	Yes	3.02	0.012	2.0	GoodResponse	0	0.207	n/a	6	48	ButtonPress	AvoidedLoss	True
462.16	0.37	Lose2	0.6531	n/a	Yes	3.02	n/a	n/a	GoodResponse	0	n/a	n/a	6	48	Blank	AvoidedLoss	True
462.528	1.45	Lose2	0.6531	n/a	Yes	3.02	n/a	5.0	GoodResponse	0	0.027	461.555	6	48	Feedback	AvoidedLoss	True
463.982	3.02	Lose2	0.6531	n/a	Yes	3.02	n/a	n/a	GoodResponse	0	0.0	n/a	6	48	ISIslide	AvoidedLoss	True
467.024	0.25	Control	0.66	0.0	Yes	2.876	0.024	n/a	GoodResponse	0	n/a	n/a	6	49	Cue	Neutral	True
467.275	4.0	Control	0.66	0.0	Yes	2.876	0.001	n/a	GoodResponse	0	n/a	n/a	6	49	Fixation	Neutral	True
471.27	0.34	Control	0.66	0.004	Yes	2.876	-0.004	2.0	GoodResponse	0	0.239	470.509	6	49	Target	Neutral	True
471.509	0.3	Control	0.66	0.004	Yes	2.876	-0.004	2.0	GoodResponse	0	0.239	n/a	6	49	ButtonPress	Neutral	True
471.621	0.36	Control	0.66	n/a	Yes	2.876	n/a	n/a	GoodResponse	0	n/a	n/a	6	49	Blank	Neutral	True
471.972	1.45	Control	0.66	n/a	Yes	2.876	n/a	5.0	GoodResponse	0	0.047	471.019	6	49	Feedback	Neutral	True
473.427	2.876	Control	0.66	n/a	Yes	2.876	n/a	n/a	GoodResponse	0	0.0	n/a	6	49	ISIslide	Neutral	True
476.319	0.25	Control	0.6667000000000001	0.0	Yes	2.781	0.019	n/a	GoodResponse	0	n/a	n/a	6	50	Cue	Neutral	True
476.57	4.0	Control	0.6667000000000001	0.0	Yes	2.781	0.001	n/a	GoodResponse	0	n/a	n/a	6	50	Fixation	Neutral	True
480.565	0.34	Control	0.6667000000000001	0.004	Yes	2.781	-0.004	2.0	GoodResponse	0	0.273	479.838	6	50	Target	Neutral	True
480.838	0.3	Control	0.6667000000000001	0.004	Yes	2.781	-0.004	2.0	GoodResponse	0	0.273	n/a	6	50	ButtonPress	Neutral	True
480.916	0.36	Control	0.6667000000000001	n/a	Yes	2.781	n/a	n/a	GoodResponse	0	n/a	n/a	6	50	Blank	Neutral	True
481.267	1.45	Control	0.6667000000000001	n/a	Yes	2.781	n/a	5.0	GoodResponse	0	0.02	480.287	6	50	Feedback	Neutral	True
482.721	2.781	Control	0.6667000000000001	n/a	Yes	2.781	n/a	n/a	GoodResponse	0	0.0	n/a	6	50	ISIslide	Neutral	True
485.53	0.25	Control	0.6731	0.0	Yes	2.72	0.03	n/a	GoodResponse	0	n/a	n/a	6	51	Cue	Neutral	True
485.78	3.95	Control	0.6731	0.001	Yes	2.72	0.0	n/a	GoodResponse	0	n/a	n/a	6	51	Fixation	Neutral	True
489.726	0.33	Control	0.6731	0.004	Yes	2.72	-0.004	2.0	GoodResponse	0	0.255	488.981	6	51	Target	Neutral	True
489.981	0.3	Control	0.6731	0.004	Yes	2.72	-0.004	2.0	GoodResponse	0	0.255	n/a	6	51	ButtonPress	Neutral	True
490.06	0.37	Control	0.6731	n/a	Yes	2.72	n/a	n/a	GoodResponse	0	n/a	n/a	6	51	Blank	Neutral	True
490.428	1.45	Control	0.6731	n/a	Yes	2.72	n/a	5.0	GoodResponse	0	0.03	489.458	6	51	Feedback	Neutral	True
491.882	2.72	Control	0.6731	n/a	Yes	2.72	n/a	n/a	GoodResponse	0	0.0	n/a	6	51	ISIslide	Neutral	True
494.624	0.25	Control	0.6604000000000001	0.0	No	2.626	0.024	n/a	LatePress	0	n/a	n/a	6	52	Cue	Neutral	True
494.874	4.05	Control	0.6604000000000001	0.0	No	2.626	0.0	n/a	LatePress	0	n/a	n/a	6	52	Fixation	Neutral	True
498.92	0.32	Control	0.6604000000000001	0.004	No	2.626	-0.004	2.0	LatePress	0	0.32	498.24	6	52	Target	Neutral	True
499.24	0.3	Control	0.6604000000000001	0.004	No	2.626	-0.004	2.0	LatePress	0	0.32	n/a	6	52	ButtonPress	Neutral	True
499.254	0.38	Control	0.6604000000000001	n/a	No	2.626	n/a	n/a	LatePress	0	n/a	n/a	6	52	Blank	Neutral	True
499.622	1.45	Control	0.6604000000000001	n/a	No	2.626	n/a	5.0	LatePress	0	0.007	498.629	6	52	Feedback	Neutral	True
501.076	2.626	Control	0.6604000000000001	n/a	No	2.626	n/a	n/a	LatePress	0	0.0	n/a	6	52	ISIslide	Neutral	True
503.717	0.25	Win2	0.6667000000000001	0.001	Yes	2.933	0.017	n/a	GoodResponse	1	n/a	n/a	7	53	Cue	Win	True
503.968	4.05	Win2	0.6667000000000001	0.0	Yes	2.933	0.001	n/a	GoodResponse	1	n/a	n/a	7	53	Fixation	Win	True
508.014	0.32	Win2	0.6667000000000001	0.003	Yes	2.933	-0.003	2.0	GoodResponse	1	0.19	507.204	7	53	Target	Win	True
508.204	0.3	Win2	0.6667000000000001	0.003	Yes	2.933	-0.003	2.0	GoodResponse	1	0.19	n/a	7	53	ButtonPress	Win	True
508.348	0.38	Win2	0.6667000000000001	n/a	Yes	2.933	n/a	n/a	GoodResponse	1	n/a	n/a	7	53	Blank	Win	True
508.716	1.45	Win2	0.6667000000000001	n/a	Yes	2.933	n/a	5.0	GoodResponse	1	0.034	507.75	7	53	Feedback	Win	True
510.17	2.933	Win2	0.6667000000000001	n/a	Yes	2.933	n/a	n/a	GoodResponse	1	0.0	n/a	7	53	ISIslide	Win	True
513.129	0.25	Win2	0.6727	0.0	Yes	2.721	0.029	n/a	GoodResponse	1	n/a	n/a	8	54	Cue	Win	True
513.38	3.95	Win2	0.6727	0.0	Yes	2.721	0.001	n/a	GoodResponse	1	n/a	n/a	8	54	Fixation	Win	True
517.325	0.31	Win2	0.6727	0.004	Yes	2.721	-0.004	2.0	GoodResponse	1	0.175	516.5	8	54	Target	Win	True
517.5	0.3	Win2	0.6727	0.004	Yes	2.721	-0.004	2.0	GoodResponse	1	0.175	n/a	8	54	ButtonPress	Win	True
517.643	0.39	Win2	0.6727	n/a	Yes	2.721	n/a	n/a	GoodResponse	1	n/a	n/a	8	54	Blank	Win	True
518.027	1.45	Win2	0.6727	n/a	Yes	2.721	n/a	5.0	GoodResponse	1	0.04	517.067	8	54	Feedback	Win	True
519.481	2.721	Win2	0.6727	n/a	Yes	2.721	n/a	n/a	GoodResponse	1	0.0	n/a	8	54	ISIslide	Win	True
522.223	0.25	Control	0.6786	0.0	Yes	3.027	0.023	n/a	GoodResponse	0	n/a	n/a	8	55	Cue	Neutral	True
522.474	3.95	Control	0.6786	0.0	Yes	3.027	0.001	n/a	GoodResponse	0	n/a	n/a	8	55	Fixation	Neutral	True
526.419	0.3	Control	0.6786	0.004	Yes	3.027	-0.004	2.0	GoodResponse	0	0.255	525.674	8	55	Target	Neutral	True
526.674	0.3	Control	0.6786	0.004	Yes	3.027	-0.004	2.0	GoodResponse	0	0.255	n/a	8	55	ButtonPress	Neutral	True
526.72	0.4	Control	0.6786	n/a	Yes	3.027	n/a	n/a	GoodResponse	0	n/a	n/a	8	55	Blank	Neutral	True
527.121	1.45	Control	0.6786	n/a	Yes	3.027	n/a	5.0	GoodResponse	0	0.019	526.14	8	55	Feedback	Neutral	True
528.575	3.027	Control	0.6786	n/a	Yes	3.027	n/a	n/a	GoodResponse	0	0.0	n/a	8	55	ISIslide	Neutral	True
531.618	0.25	Control	0.6842	0.0	Yes	2.832	0.018	n/a	GoodResponse	0	n/a	n/a	8	56	Cue	Neutral	True
531.868	3.95	Control	0.6842	0.0	Yes	2.832	0.0	n/a	GoodResponse	0	n/a	n/a	8	56	Fixation	Neutral	True
535.814	0.29	Control	0.6842	0.004	Yes	2.832	-0.004	2.0	GoodResponse	0	0.277	535.091	8	56	Target	Neutral	True
536.091	0.3	Control	0.6842	0.004	Yes	2.832	-0.004	2.0	GoodResponse	0	0.277	n/a	8	56	ButtonPress	Neutral	True
536.114	0.41	Control	0.6842	n/a	Yes	2.832	n/a	n/a	GoodResponse	0	n/a	n/a	8	56	Blank	Neutral	True
536.516	1.45	Control	0.6842	n/a	Yes	2.832	n/a	5.0	GoodResponse	0	0.039	535.555	8	56	Feedback	Neutral	True
537.97	2.832	Control	0.6842	n/a	Yes	2.832	n/a	n/a	GoodResponse	0	0.0	n/a	8	56	ISIslide	Neutral	True
540.829	0.25	Control	0.6724	0.0	No	3.471	0.029	n/a	NoResponse	0	n/a	n/a	8	57	Cue	Neutral	True
541.079	4.0	Control	0.6724	0.0	No	3.471	0.0	n/a	NoResponse	0	n/a	n/a	8	57	Fixation	Neutral	True
545.075	0.28	Control	0.6724	0.004	No	3.471	-0.004	2.0	NoResponse	0	0.333	544.408	8	57	Target	Neutral	True
545.359	0.42	Control	0.6724	n/a	No	3.471	n/a	n/a	NoResponse	0	n/a	n/a	8	57	Blank	Neutral	True
545.408	0.3	Control	0.6724	0.004	No	3.471	-0.004	2.0	NoResponse	0	0.333	n/a	8	57	ButtonPress	Neutral	True
545.777	1.45	Control	0.6724	n/a	No	3.471	n/a	5.0	NoResponse	0	0.047	544.824	8	57	Feedback	Neutral	True
547.231	3.471	Control	0.6724	n/a	No	3.471	n/a	n/a	NoResponse	0	0.0	n/a	8	57	ISIslide	Neutral	True
550.725	0.25	Win2	0.6779999999999999	0.0	Yes	2.725	0.025	n/a	GoodResponse	1	n/a	n/a	9	58	Cue	Win	True
550.976	4.05	Win2	0.6779999999999999	0.0	Yes	2.725	0.001	n/a	GoodResponse	1	n/a	n/a	9	58	Fixation	Win	True
555.021	0.27	Win2	0.6779999999999999	0.004	Yes	2.725	-0.004	2.0	GoodResponse	1	0.229	554.25	9	58	Target	Win	True
555.25	0.3	Win2	0.6779999999999999	0.004	Yes	2.725	-0.004	2.0	GoodResponse	1	0.229	n/a	9	58	ButtonPress	Win	True
555.305	0.43	Win2	0.6779999999999999	n/a	Yes	2.725	n/a	n/a	GoodResponse	1	n/a	n/a	9	58	Blank	Win	True
555.723	1.45	Win2	0.6779999999999999	n/a	Yes	2.725	n/a	5.0	GoodResponse	1	0.008	554.731	9	58	Feedback	Win	True
557.178	2.725	Win2	0.6779999999999999	n/a	Yes	2.725	n/a	n/a	GoodResponse	1	0.0	n/a	9	58	ISIslide	Win	True
559.919	0.25	Lose2	0.6833	0.0	Yes	2.681	0.019	n/a	GoodResponse	0	n/a	n/a	9	59	Cue	AvoidedLoss	True
560.17	4.0	Lose2	0.6833	0.0	Yes	2.681	0.001	n/a	GoodResponse	0	n/a	n/a	9	59	Fixation	AvoidedLoss	True
564.165	0.26	Lose2	0.6833	0.004	Yes	2.681	-0.004	2.0	GoodResponse	0	0.193	563.358	9	59	Target	AvoidedLoss	True
564.358	0.3	Lose2	0.6833	0.004	Yes	2.681	-0.004	2.0	GoodResponse	0	0.193	n/a	9	59	ButtonPress	AvoidedLoss	True
564.433	0.44	Lose2	0.6833	n/a	Yes	2.681	n/a	n/a	GoodResponse	0	n/a	n/a	9	59	Blank	AvoidedLoss	True
564.867	1.45	Lose2	0.6833	n/a	Yes	2.681	n/a	5.0	GoodResponse	0	0.029	563.896	9	59	Feedback	AvoidedLoss	True
566.322	2.681	Lose2	0.6833	n/a	Yes	2.681	n/a	n/a	GoodResponse	0	0.0	n/a	9	59	ISIslide	AvoidedLoss	True
569.03	0.25	Control	0.6720999999999999	0.0	No	2.67	0.03	n/a	NoResponse	0	n/a	n/a	9	60	Cue	Neutral	True
569.28	4.0	Control	0.6720999999999999	0.0	No	2.67	0.0	n/a	NoResponse	0	n/a	n/a	9	60	Fixation	Neutral	True
573.276	0.25	Control	0.6720999999999999	0.004	No	2.67	-0.004	2.0	NoResponse	0	0.292	572.568	9	60	Target	Neutral	True
573.526	0.45	Control	0.6720999999999999	n/a	No	2.67	n/a	n/a	NoResponse	0	n/a	n/a	9	60	Blank	Neutral	True
573.568	0.3	Control	0.6720999999999999	0.004	No	2.67	-0.004	2.0	NoResponse	0	0.292	n/a	9	60	ButtonPress	Neutral	True
573.978	1.45	Control	0.6720999999999999	n/a	No	2.67	n/a	5.0	NoResponse	0	0.04	573.018	9	60	Feedback	Neutral	True
575.432	2.67	Control	0.6720999999999999	n/a	No	2.67	n/a	n/a	NoResponse	0	0.0	n/a	9	60	ISIslide	Neutral	True
578.124	0.25	Lose2	0.6613	0.0	No	2.976	0.024	n/a	NoResponse	-1	n/a	n/a	8	61	Cue	Loss	True
578.374	4.0	Lose2	0.6613	0.0	No	2.976	0.0	n/a	NoResponse	-1	n/a	n/a	8	61	Fixation	Loss	True
582.37	0.24	Lose2	0.6613	0.004	No	2.976	-0.004	2.0	NoResponse	-1	0.285	581.655	8	61	Target	Loss	True
582.62	0.46	Lose2	0.6613	n/a	No	2.976	n/a	n/a	NoResponse	-1	n/a	n/a	8	61	Blank	Loss	True
582.655	0.3	Lose2	0.6613	0.004	No	2.976	-0.004	2.0	NoResponse	-1	0.285	n/a	8	61	ButtonPress	Loss	True
583.072	1.45	Lose2	0.6613	n/a	No	2.976	n/a	5.0	NoResponse	-1	0.019	582.091	8	61	Feedback	Loss	True
584.526	2.976	Lose2	0.6613	n/a	No	2.976	n/a	n/a	NoResponse	-1	0.0	n/a	8	61	ISIslide	Loss	True
587.518	0.25	Lose2	0.6667000000000001	0.0	Yes	2.882	0.018	n/a	GoodResponse	0	n/a	n/a	8	62	Cue	AvoidedLoss	True
587.769	3.9	Lose2	0.6667000000000001	0.0	Yes	2.882	0.001	n/a	GoodResponse	0	n/a	n/a	8	62	Fixation	AvoidedLoss	True
591.664	0.24	Lose2	0.6667000000000001	0.004	Yes	2.882	-0.004	2.0	GoodResponse	0	0.206	590.87	8	62	Target	AvoidedLoss	True
591.87	0.3	Lose2	0.6667000000000001	0.004	Yes	2.882	-0.004	2.0	GoodResponse	0	0.206	n/a	8	62	ButtonPress	AvoidedLoss	True
591.915	0.46	Lose2	0.6667000000000001	n/a	Yes	2.882	n/a	n/a	GoodResponse	0	n/a	n/a	8	62	Blank	AvoidedLoss	True
592.366	1.45	Lose2	0.6667000000000001	n/a	Yes	2.882	n/a	5.0	GoodResponse	0	0.042	591.408	8	62	Feedback	AvoidedLoss	True
593.821	2.882	Lose2	0.6667000000000001	n/a	Yes	2.882	n/a	n/a	GoodResponse	0	0.0	n/a	8	62	ISIslide	AvoidedLoss	True
596.729	0.25	Lose2	0.6718999999999999	0.0	Yes	2.621	0.029	n/a	GoodResponse	0	n/a	n/a	8	63	Cue	AvoidedLoss	True
596.98	4.05	Lose2	0.6718999999999999	0.0	Yes	2.621	0.001	n/a	GoodResponse	0	n/a	n/a	8	63	Fixation	AvoidedLoss	True
601.025	0.23	Lose2	0.6718999999999999	0.004	Yes	2.621	-0.004	2.0	GoodResponse	0	0.193	600.218	8	63	Target	AvoidedLoss	True
601.218	0.3	Lose2	0.6718999999999999	0.004	Yes	2.621	-0.004	2.0	GoodResponse	0	0.193	n/a	8	63	ButtonPress	AvoidedLoss	True
601.259	0.47	Lose2	0.6718999999999999	n/a	Yes	2.621	n/a	n/a	GoodResponse	0	n/a	n/a	8	63	Blank	AvoidedLoss	True
601.728	1.45	Lose2	0.6718999999999999	n/a	Yes	2.621	n/a	5.0	GoodResponse	0	0.046	600.774	8	63	Feedback	AvoidedLoss	True
603.182	2.621	Lose2	0.6718999999999999	n/a	Yes	2.621	n/a	n/a	GoodResponse	0	0.0	n/a	8	63	ISIslide	AvoidedLoss	True
605.823	0.25	Win2	0.6769	0.0	Yes	3.127	0.023	n/a	GoodResponse	1	n/a	n/a	9	64	Cue	Win	False
606.074	4.15	Win2	0.6769	0.0	Yes	3.127	0.001	2.0	GoodResponse	1	3.896	608.97	9	64	Fixation	Win	False
609.97	0.3	Win2	0.6769	0.0	Yes	3.127	0.001	2.0	GoodResponse	1	3.896	n/a	9	64	ButtonPress	Win	False
610.22	0.22	Win2	0.6769	0.003	Yes	3.127	-0.003	2.0	GoodResponse	1	0.163	609.383	9	64	Target	Win	False
610.383	0.3	Win2	0.6769	0.003	Yes	3.127	-0.003	2.0	GoodResponse	1	0.163	n/a	9	64	ButtonPress	Win	False
610.454	0.48	Win2	0.6769	n/a	Yes	3.127	n/a	n/a	GoodResponse	1	n/a	n/a	9	64	Blank	Win	False
610.922	1.45	Win2	0.6769	n/a	Yes	3.127	n/a	5.0	GoodResponse	1	0.022	609.944	9	64	Feedback	Win	False
612.376	3.127	Win2	0.6769	n/a	Yes	3.127	n/a	n/a	GoodResponse	1	0.0	n/a	9	64	ISIslide	Win	False
615.519	0.25	Control	0.6818000000000001	0.0	Yes	2.781	0.019	n/a	GoodResponse	0	n/a	n/a	9	65	Cue	Neutral	True
615.77	4.0	Control	0.6818000000000001	0.0	Yes	2.781	0.001	n/a	GoodResponse	0	n/a	n/a	9	65	Fixation	Neutral	True
619.765	0.21	Control	0.6818000000000001	0.004	Yes	2.781	-0.004	2.0	GoodResponse	0	0.209	618.974	9	65	Target	Neutral	True
619.974	0.3	Control	0.6818000000000001	0.004	Yes	2.781	-0.004	2.0	GoodResponse	0	0.209	n/a	9	65	ButtonPress	Neutral	True
619.982	0.49	Control	0.6818000000000001	n/a	Yes	2.781	n/a	n/a	GoodResponse	0	n/a	n/a	9	65	Blank	Neutral	True
620.467	1.45	Control	0.6818000000000001	n/a	Yes	2.781	n/a	5.0	GoodResponse	0	0.038	619.505	9	65	Feedback	Neutral	True
621.921	2.781	Control	0.6818000000000001	n/a	Yes	2.781	n/a	n/a	GoodResponse	0	0.0	n/a	9	65	ISIslide	Neutral	True
624.73	0.25	Win2	0.6716	0.0	No	2.77	0.03	n/a	NoResponse	0	n/a	n/a	9	66	Cue	MissedWin	True
624.98	3.9	Win2	0.6716	0.001	No	2.77	0.0	n/a	NoResponse	0	n/a	n/a	9	66	Fixation	MissedWin	True
628.875	0.2	Win2	0.6716	0.005	No	2.77	-0.005	2.0	NoResponse	0	0.213	628.088	9	66	Target	MissedWin	True
629.076	0.5	Win2	0.6716	n/a	No	2.77	n/a	n/a	NoResponse	0	n/a	n/a	9	66	Blank	MissedWin	True
629.088	0.3	Win2	0.6716	0.005	No	2.77	-0.005	2.0	NoResponse	0	0.213	n/a	9	66	ButtonPress	MissedWin	True
629.578	1.45	Win2	0.6716	n/a	No	2.77	n/a	5.0	NoResponse	0	0.001	628.579	9	66	Feedback	MissedWin	True
631.032	2.77	Win2	0.6716	n/a	No	2.77	n/a	n/a	NoResponse	0	0.0	n/a	9	66	ISIslide	MissedWin	True
633.824	0.25	Control	0.6618	0.0	No	2.726	0.024	n/a	LatePress	0	n/a	n/a	9	67	Cue	Neutral	True
634.074	3.95	Control	0.6618	0.0	No	2.726	0.0	n/a	LatePress	0	n/a	n/a	9	67	Fixation	Neutral	True
638.019	0.19	Control	0.6618	0.005	No	2.726	-0.005	2.0	LatePress	0	0.201	637.22	9	67	Target	Neutral	True
638.22	0.51	Control	0.6618	n/a	No	2.726	n/a	n/a	LatePress	0	n/a	n/a	9	67	Blank	Neutral	True
638.22	0.3	Control	0.6618	0.005	No	2.726	-0.005	2.0	LatePress	0	0.201	n/a	9	67	ButtonPress	Neutral	True
638.722	1.45	Control	0.6618	n/a	No	2.726	n/a	5.0	LatePress	0	0.027	637.749	9	67	Feedback	Neutral	True
640.176	2.726	Control	0.6618	n/a	No	2.726	n/a	n/a	LatePress	0	0.0	n/a	9	67	ISIslide	Neutral	True
642.918	0.25	Win2	0.6522	0.0	No	3.082	0.018	n/a	NoResponse	0	n/a	n/a	9	68	Cue	MissedWin	True
643.168	4.0	Win2	0.6522	0.0	No	3.082	0.0	n/a	NoResponse	0	n/a	n/a	9	68	Fixation	MissedWin	True
647.164	0.19	Win2	0.6522	0.004	No	3.082	-0.004	2.0	NoResponse	0	0.21	646.374	9	68	Target	MissedWin	True
647.364	0.51	Win2	0.6522	n/a	No	3.082	n/a	n/a	NoResponse	0	n/a	n/a	9	68	Blank	MissedWin	True
647.374	0.3	Win2	0.6522	0.004	No	3.082	-0.004	2.0	NoResponse	0	0.21	n/a	9	68	ButtonPress	MissedWin	True
647.866	1.45	Win2	0.6522	n/a	No	3.082	n/a	5.0	NoResponse	0	0.008	646.874	9	68	Feedback	MissedWin	True
649.32	3.082	Win2	0.6522	n/a	No	3.082	n/a	n/a	NoResponse	0	0.0	n/a	9	68	ISIslide	MissedWin	True
652.429	0.25	Win2	0.6429	0.0	No	3.221	0.029	n/a	NoResponse	0	n/a	n/a	9	69	Cue	MissedWin	True
652.68	3.95	Win2	0.6429	0.0	No	3.221	0.001	n/a	NoResponse	0	n/a	n/a	9	69	Fixation	MissedWin	True
656.625	0.2	Win2	0.6429	0.004	No	3.221	-0.004	2.0	NoResponse	0	0.215	655.84	9	69	Target	MissedWin	True
656.826	0.5	Win2	0.6429	n/a	No	3.221	n/a	n/a	NoResponse	0	n/a	n/a	9	69	Blank	MissedWin	True
656.84	0.3	Win2	0.6429	0.004	No	3.221	-0.004	2.0	NoResponse	0	0.215	n/a	9	69	ButtonPress	MissedWin	True
657.327	1.45	Win2	0.6429	n/a	No	3.221	n/a	5.0	NoResponse	0	0.008	656.335	9	69	Feedback	MissedWin	True
658.782	3.221	Win2	0.6429	n/a	No	3.221	n/a	n/a	NoResponse	0	0.0	n/a	9	69	ISIslide	MissedWin	True
662.025	0.25	Lose2	0.6479	0.0	Yes	3.025	0.025	n/a	GoodResponse	0	n/a	n/a	9	70	Cue	AvoidedLoss	True
662.275	4.05	Lose2	0.6479	0.001	Yes	3.025	0.0	n/a	GoodResponse	0	n/a	n/a	9	70	Fixation	AvoidedLoss	True
666.321	0.21	Lose2	0.6479	0.004	Yes	3.025	-0.004	2.0	GoodResponse	0	0.208	665.529	9	70	Target	AvoidedLoss	True
666.529	0.3	Lose2	0.6479	0.004	Yes	3.025	-0.004	2.0	GoodResponse	0	0.208	n/a	9	70	ButtonPress	AvoidedLoss	True
666.538	0.49	Lose2	0.6479	n/a	Yes	3.025	n/a	n/a	GoodResponse	0	n/a	n/a	9	70	Blank	AvoidedLoss	True
667.023	1.45	Lose2	0.6479	n/a	Yes	3.025	n/a	5.0	GoodResponse	0	0.018	666.041	9	70	Feedback	AvoidedLoss	True
668.477	3.025	Lose2	0.6479	n/a	Yes	3.025	n/a	n/a	GoodResponse	0	0.0	n/a	9	70	ISIslide	AvoidedLoss	True
671.52	0.25	Win2	0.6389	0.0	No	2.73	0.02	n/a	NoResponse	0	n/a	n/a	9	71	Cue	MissedWin	True
671.771	4.05	Win2	0.6389	0.0	No	2.73	0.001	n/a	NoResponse	0	n/a	n/a	9	71	Fixation	MissedWin	True
675.816	0.22	Win2	0.6389	0.004	No	2.73	-0.004	2.0	NoResponse	0	0.245	675.061	9	71	Target	MissedWin	True
676.05	0.48	Win2	0.6389	n/a	No	2.73	n/a	n/a	NoResponse	0	n/a	n/a	9	71	Blank	MissedWin	True
676.061	0.3	Win2	0.6389	0.004	No	2.73	-0.004	2.0	NoResponse	0	0.245	n/a	9	71	ButtonPress	MissedWin	True
676.518	1.45	Win2	0.6389	n/a	No	2.73	n/a	5.0	NoResponse	0	0.036	675.554	9	71	Feedback	MissedWin	True
677.972	2.73	Win2	0.6389	n/a	No	2.73	n/a	n/a	NoResponse	0	0.0	n/a	9	71	ISIslide	MissedWin	True
680.731	0.25	Win2	0.6437999999999999	0.0	Yes	2.769	0.031	n/a	GoodResponse	1	n/a	n/a	10	72	Cue	Win	True
680.981	4.1	Win2	0.6437999999999999	0.0	Yes	2.769	0.0	n/a	GoodResponse	1	n/a	n/a	10	72	Fixation	Win	True
685.077	0.23	Win2	0.6437999999999999	0.004	Yes	2.769	-0.004	2.0	GoodResponse	1	0.161	684.238	10	72	Target	Win	True
685.238	0.3	Win2	0.6437999999999999	0.004	Yes	2.769	-0.004	2.0	GoodResponse	1	0.161	n/a	10	72	ButtonPress	Win	True
685.311	0.47	Win2	0.6437999999999999	n/a	Yes	2.769	n/a	n/a	GoodResponse	1	n/a	n/a	10	72	Blank	Win	True
685.779	1.45	Win2	0.6437999999999999	n/a	Yes	2.769	n/a	5.0	GoodResponse	1	0.043	684.822	10	72	Feedback	Win	True
687.233	2.769	Win2	0.6437999999999999	n/a	Yes	2.769	n/a	n/a	GoodResponse	1	0.0	n/a	10	72	ISIslide	Win	True
690.025	0.25	Win2	0.6486	0.0	Yes	2.675	0.025	n/a	GoodResponse	1	n/a	n/a	11	73	Cue	Win	True
690.276	4.0	Win2	0.6486	0.0	Yes	2.675	0.001	n/a	GoodResponse	1	n/a	n/a	11	73	Fixation	Win	True
694.271	0.24	Win2	0.6486	0.004	Yes	2.675	-0.004	2.0	GoodResponse	1	0.196	693.467	11	73	Target	Win	True
694.467	0.3	Win2	0.6486	0.004	Yes	2.675	-0.004	2.0	GoodResponse	1	0.196	n/a	11	73	ButtonPress	Win	True
694.522	0.46	Win2	0.6486	n/a	Yes	2.675	n/a	n/a	GoodResponse	1	n/a	n/a	11	73	Blank	Win	True
694.973	1.45	Win2	0.6486	n/a	Yes	2.675	n/a	5.0	GoodResponse	1	0.02	693.993	11	73	Feedback	Win	True
696.428	2.675	Win2	0.6486	n/a	Yes	2.675	n/a	n/a	GoodResponse	1	0.0	n/a	11	73	ISIslide	Win	True
699.119	0.25	Lose2	0.6533	0.0	Yes	2.631	0.019	n/a	GoodResponse	0	n/a	n/a	11	74	Cue	AvoidedLoss	True
699.37	4.05	Lose2	0.6533	0.0	Yes	2.631	0.001	n/a	GoodResponse	0	n/a	n/a	11	74	Fixation	AvoidedLoss	True
703.415	0.25	Lose2	0.6533	0.004	Yes	2.631	-0.004	2.0	GoodResponse	0	0.205	702.62	11	74	Target	AvoidedLoss	True
703.62	0.3	Lose2	0.6533	0.004	Yes	2.631	-0.004	2.0	GoodResponse	0	0.205	n/a	11	74	ButtonPress	AvoidedLoss	True
703.666	0.45	Lose2	0.6533	n/a	Yes	2.631	n/a	n/a	GoodResponse	0	n/a	n/a	11	74	Blank	AvoidedLoss	True
704.117	1.45	Lose2	0.6533	n/a	Yes	2.631	n/a	5.0	GoodResponse	0	0.047	703.164	11	74	Feedback	AvoidedLoss	True
705.572	2.631	Lose2	0.6533	n/a	Yes	2.631	n/a	n/a	GoodResponse	0	0.0	n/a	11	74	ISIslide	AvoidedLoss	True
708.23	0.25	Lose2	0.6579	0.0	Yes	2.92	0.03	n/a	GoodResponse	0	n/a	n/a	11	75	Cue	AvoidedLoss	True
708.48	3.95	Lose2	0.6579	0.001	Yes	2.92	0.0	n/a	GoodResponse	0	n/a	n/a	11	75	Fixation	AvoidedLoss	True
712.426	0.26	Lose2	0.6579	0.004	Yes	2.92	-0.004	2.0	GoodResponse	0	0.236	711.662	11	75	Target	AvoidedLoss	True
712.662	0.3	Lose2	0.6579	0.004	Yes	2.92	-0.004	2.0	GoodResponse	0	0.236	n/a	11	75	ButtonPress	AvoidedLoss	True
712.693	0.44	Lose2	0.6579	n/a	Yes	2.92	n/a	n/a	GoodResponse	0	n/a	n/a	11	75	Blank	AvoidedLoss	True
713.128	1.45	Lose2	0.6579	n/a	Yes	2.92	n/a	5.0	GoodResponse	0	0.01	712.138	11	75	Feedback	AvoidedLoss	True
714.582	2.92	Lose2	0.6579	n/a	Yes	2.92	n/a	n/a	GoodResponse	0	0.0	n/a	11	75	ISIslide	AvoidedLoss	True
717.524	0.25	Control	0.6494	0.0	No	3.226	0.024	n/a	NoResponse	0	n/a	n/a	11	76	Cue	Neutral	True
717.775	4.05	Control	0.6494	0.0	No	3.226	0.001	n/a	NoResponse	0	n/a	n/a	11	76	Fixation	Neutral	True
721.82	0.26	Control	0.6494	0.004	No	3.226	-0.004	2.0	NoResponse	0	0.268	721.088	11	76	Target	Neutral	True
722.088	0.44	Control	0.6494	n/a	No	3.226	n/a	n/a	NoResponse	0	n/a	n/a	11	76	Blank	Neutral	True
722.088	0.3	Control	0.6494	0.004	No	3.226	-0.004	2.0	NoResponse	0	0.268	n/a	11	76	ButtonPress	Neutral	True
722.522	1.45	Control	0.6494	n/a	No	3.226	n/a	5.0	NoResponse	0	0.031	721.553	11	76	Feedback	Neutral	True
723.977	3.226	Control	0.6494	n/a	No	3.226	n/a	n/a	NoResponse	0	0.0	n/a	11	76	ISIslide	Neutral	True
727.22	0.25	Lose2	0.6537999999999999	0.0	Yes	2.58	0.02	n/a	GoodResponse	0	n/a	n/a	11	77	Cue	AvoidedLoss	True
727.471	3.95	Lose2	0.6537999999999999	0.0	Yes	2.58	0.001	n/a	GoodResponse	0	n/a	n/a	11	77	Fixation	AvoidedLoss	True
731.416	0.27	Lose2	0.6537999999999999	0.004	Yes	2.58	-0.004	2.0	GoodResponse	0	0.199	730.615	11	77	Target	AvoidedLoss	True
731.615	0.3	Lose2	0.6537999999999999	0.004	Yes	2.58	-0.004	2.0	GoodResponse	0	0.199	n/a	11	77	ButtonPress	AvoidedLoss	True
731.7	0.43	Lose2	0.6537999999999999	n/a	Yes	2.58	n/a	n/a	GoodResponse	0	n/a	n/a	11	77	Blank	AvoidedLoss	True
732.118	1.45	Lose2	0.6537999999999999	n/a	Yes	2.58	n/a	5.0	GoodResponse	0	0.045	731.163	11	77	Feedback	AvoidedLoss	True
733.572	2.58	Lose2	0.6537999999999999	n/a	Yes	2.58	n/a	n/a	GoodResponse	0	0.0	n/a	11	77	ISIslide	AvoidedLoss	True
