onset	duration	cue_type	current_mean_accuracy	duration_error	is_hit	isi_adjusted	onset_delay	response	response_type	reward	rt	rt_time	total_reward	trial_number	trial_phase	trial_type	one_press
11.11	0.25	Control	1.0	0.0	Yes	2.94	0.01	n/a	GoodResponse	0	n/a	n/a	0	0	Cue	Neutral	True
11.36	3.85	Control	1.0	0.0	Yes	2.94	0.0	n/a	GoodResponse	0	n/a	n/a	0	0	Fixation	Neutral	True
15.209	0.4	Control	1.0	0.001	Yes	2.94	-0.001	4.0	GoodResponse	0	0.268	14.477	0	0	Target	Neutral	True
15.477	0.3	Control	1.0	0.001	Yes	2.94	-0.001	4.0	GoodResponse	0	0.268	n/a	0	0	ButtonPress	Neutral	True
15.609	0.3	Control	1.0	n/a	Yes	2.94	n/a	n/a	GoodResponse	0	n/a	n/a	0	0	Blank	Neutral	True
15.909	1.45	Control	1.0	n/a	Yes	2.94	n/a	5.0	GoodResponse	0	0.018	14.927	0	0	Feedback	Neutral	True
17.358	2.94	Control	1.0	n/a	Yes	2.94	n/a	n/a	GoodResponse	0	0.0	n/a	0	0	ISIslide	Neutral	True
20.324	0.25	Lose2	1.0	0.0	Yes	2.776	0.024	n/a	GoodResponse	0	n/a	n/a	0	1	Cue	AvoidedLoss	True
20.574	4.0	Lose2	1.0	0.0	Yes	2.776	0.0	n/a	GoodResponse	0	n/a	n/a	0	1	Fixation	AvoidedLoss	True
24.572	0.39	Lose2	1.0	0.002	Yes	2.776	-0.002	4.0	GoodResponse	0	0.224	23.796	0	1	Target	AvoidedLoss	True
24.796	0.3	Lose2	1.0	0.002	Yes	2.776	-0.002	4.0	GoodResponse	0	0.224	n/a	0	1	ButtonPress	AvoidedLoss	True
24.972	0.31	Lose2	1.0	n/a	Yes	2.776	n/a	n/a	GoodResponse	0	n/a	n/a	0	1	Blank	AvoidedLoss	True
25.272	1.45	Lose2	1.0	n/a	Yes	2.776	n/a	5.0	GoodResponse	0	0.02	24.292	0	1	Feedback	AvoidedLoss	True
26.722	2.776	Lose2	1.0	n/a	Yes	2.776	n/a	n/a	GoodResponse	0	0.0	n/a	0	1	ISIslide	AvoidedLoss	True
29.521	0.25	Control	1.0	0.0	Yes	2.579	0.021	n/a	GoodResponse	0	n/a	n/a	0	2	Cue	Neutral	True
29.77	4.1	Control	1.0	0.001	Yes	2.579	-0.001	n/a	GoodResponse	0	n/a	n/a	0	2	Fixation	Neutral	True
33.869	0.38	Control	1.0	0.002	Yes	2.579	-0.002	4.0	GoodResponse	0	0.262	33.131	0	2	Target	Neutral	True
34.131	0.3	Control	1.0	0.002	Yes	2.579	-0.002	4.0	GoodResponse	0	0.262	n/a	0	2	ButtonPress	Neutral	True
34.252	0.32	Control	1.0	n/a	Yes	2.579	n/a	n/a	GoodResponse	0	n/a	n/a	0	2	Blank	Neutral	True
34.569	1.45	Control	1.0	n/a	Yes	2.579	n/a	5.0	GoodResponse	0	0.04	33.609	0	2	Feedback	Neutral	True
36.018	2.579	Control	1.0	n/a	Yes	2.579	n/a	n/a	GoodResponse	0	0.0	n/a	0	2	ISIslide	Neutral	True
38.617	0.25	Win2	1.0	0.0	Yes	2.833	0.017	n/a	GoodResponse	1	n/a	n/a	1	3	Cue	Win	True
38.867	3.95	Win2	1.0	0.0	Yes	2.833	0.0	n/a	GoodResponse	1	n/a	n/a	1	3	Fixation	Win	True
42.816	0.37	Win2	1.0	0.001	Yes	2.833	-0.001	4.0	GoodResponse	1	0.227	42.043	1	3	Target	Win	True
43.043	0.3	Win2	1.0	0.001	Yes	2.833	-0.001	4.0	GoodResponse	1	0.227	n/a	1	3	ButtonPress	Win	True
43.182	0.33	Win2	1.0	n/a	Yes	2.833	n/a	n/a	GoodResponse	1	n/a	n/a	1	3	Blank	Win	True
43.516	1.45	Win2	1.0	n/a	Yes	2.833	n/a	5.0	GoodResponse	1	0.02	42.536	1	3	Feedback	Win	True
44.965	2.833	Win2	1.0	n/a	Yes	2.833	n/a	n/a	GoodResponse	1	0.0	n/a	1	3	ISIslide	Win	True
47.814	0.25	Win2	1.0	0.0	Yes	3.286	0.014	n/a	GoodResponse	1	n/a	n/a	2	4	Cue	Win	True
48.064	4.0	Win2	1.0	0.0	Yes	3.286	0.0	n/a	GoodResponse	1	n/a	n/a	2	4	Fixation	Win	True
52.063	0.36	Win2	1.0	0.001	Yes	3.286	-0.001	4.0	GoodResponse	1	0.342	51.405	2	4	Target	Win	True
52.405	0.3	Win2	1.0	0.001	Yes	3.286	-0.001	4.0	GoodResponse	1	0.342	n/a	2	4	ButtonPress	Win	True
52.429	0.34	Win2	1.0	n/a	Yes	3.286	n/a	n/a	GoodResponse	1	n/a	n/a	2	4	Blank	Win	True
52.762	1.45	Win2	1.0	n/a	Yes	3.286	n/a	5.0	GoodResponse	1	0.042	51.804	2	4	Feedback	Win	True
54.212	3.286	Win2	1.0	n/a	Yes	3.286	n/a	n/a	GoodResponse	1	0.0	n/a	2	4	ISIslide	Win	True
57.527	0.25	Win2	1.0	0.0	Yes	2.773	0.027	n/a	GoodResponse	1	n/a	n/a	3	5	Cue	Win	True
57.777	4.0	Win2	1.0	0.0	Yes	2.773	0.0	n/a	GoodResponse	1	n/a	n/a	3	5	Fixation	Win	True
61.776	0.35	Win2	1.0	0.001	Yes	2.773	-0.001	4.0	GoodResponse	1	0.214	60.99	3	5	Target	Win	True
61.99	0.3	Win2	1.0	0.001	Yes	2.773	-0.001	4.0	GoodResponse	1	0.214	n/a	3	5	ButtonPress	Win	True
62.126	0.35	Win2	1.0	n/a	Yes	2.773	n/a	n/a	GoodResponse	1	n/a	n/a	3	5	Blank	Win	True
62.476	1.45	Win2	1.0	n/a	Yes	2.773	n/a	5.0	GoodResponse	1	0.035	61.511	3	5	Feedback	Win	True
63.925	2.773	Win2	1.0	n/a	Yes	2.773	n/a	n/a	GoodResponse	1	0.0	n/a	3	5	ISIslide	Win	True
66.724	0.25	Lose2	1.0	0.0	Yes	2.726	0.024	n/a	GoodResponse	0	n/a	n/a	3	6	Cue	AvoidedLoss	True
66.974	3.95	Lose2	1.0	0.0	Yes	2.726	0.0	n/a	GoodResponse	0	n/a	n/a	3	6	Fixation	AvoidedLoss	True
70.923	0.34	Lose2	1.0	0.001	Yes	2.726	-0.001	4.0	GoodResponse	0	0.196	70.119	3	6	Target	AvoidedLoss	True
71.119	0.3	Lose2	1.0	0.001	Yes	2.726	-0.001	4.0	GoodResponse	0	0.196	n/a	3	6	ButtonPress	AvoidedLoss	True
71.272	0.36	Lose2	1.0	n/a	Yes	2.726	n/a	n/a	GoodResponse	0	n/a	n/a	3	6	Blank	AvoidedLoss	True
71.622	1.45	Lose2	1.0	n/a	Yes	2.726	n/a	5.0	GoodResponse	0	0.011	70.633	3	6	Feedback	AvoidedLoss	True
73.072	2.726	Lose2	1.0	n/a	Yes	2.726	n/a	n/a	GoodResponse	0	0.0	n/a	3	6	ISIslide	AvoidedLoss	True
75.821	0.25	Lose2	1.0	0.0	Yes	4.029	0.021	n/a	GoodResponse	0	n/a	n/a	3	7	Cue	AvoidedLoss	True
76.071	4.05	Lose2	1.0	0.0	Yes	4.029	0.0	n/a	GoodResponse	0	n/a	n/a	3	7	Fixation	AvoidedLoss	True
80.119	0.33	Lose2	1.0	0.002	Yes	4.029	-0.002	4.0	GoodResponse	0	0.218	79.337	3	7	Target	AvoidedLoss	True
80.337	0.3	Lose2	1.0	0.002	Yes	4.029	-0.002	4.0	GoodResponse	0	0.218	n/a	3	7	ButtonPress	AvoidedLoss	True
80.453	0.37	Lose2	1.0	n/a	Yes	4.029	n/a	n/a	GoodResponse	0	n/a	n/a	3	7	Blank	AvoidedLoss	True
80.819	1.45	Lose2	1.0	n/a	Yes	4.029	n/a	5.0	GoodResponse	0	0.033	79.852	3	7	Feedback	AvoidedLoss	True
82.269	4.029	Lose2	1.0	n/a	Yes	4.029	n/a	n/a	GoodResponse	0	0.0	n/a	3	7	ISIslide	AvoidedLoss	True
86.317	0.25	Lose2	1.0	0.0	Yes	3.033	0.017	n/a	GoodResponse	0	n/a	n/a	3	8	Cue	AvoidedLoss	True
86.567	3.95	Lose2	1.0	0.0	Yes	3.033	0.0	n/a	GoodResponse	0	n/a	n/a	3	8	Fixation	AvoidedLoss	True
90.516	0.32	Lose2	1.0	0.001	Yes	3.033	-0.001	4.0	GoodResponse	0	0.197	89.713	3	8	Target	AvoidedLoss	True
90.713	0.3	Lose2	1.0	0.001	Yes	3.033	-0.001	4.0	GoodResponse	0	0.197	n/a	3	8	ButtonPress	AvoidedLoss	True
90.849	0.38	Lose2	1.0	n/a	Yes	3.033	n/a	n/a	GoodResponse	0	n/a	n/a	3	8	Blank	AvoidedLoss	True
91.215	1.45	Lose2	1.0	n/a	Yes	3.033	n/a	5.0	GoodResponse	0	0.028	90.243	3	8	Feedback	AvoidedLoss	True
92.665	3.033	Lose2	1.0	n/a	Yes	3.033	n/a	n/a	GoodResponse	0	0.0	n/a	3	8	ISIslide	AvoidedLoss	True
95.731	0.25	Lose2	1.0	0.0	Yes	3.119	0.031	n/a	GoodResponse	0	n/a	n/a	3	9	Cue	AvoidedLoss	True
95.98	3.95	Lose2	1.0	0.001	Yes	3.119	-0.001	n/a	GoodResponse	0	n/a	n/a	3	9	Fixation	AvoidedLoss	True
99.929	0.31	Lose2	1.0	0.002	Yes	3.119	-0.002	4.0	GoodResponse	0	0.274	99.203	3	9	Target	AvoidedLoss	True
100.203	0.3	Lose2	1.0	0.002	Yes	3.119	-0.002	4.0	GoodResponse	0	0.274	n/a	3	9	ButtonPress	AvoidedLoss	True
100.246	0.39	Lose2	1.0	n/a	Yes	3.119	n/a	n/a	GoodResponse	0	n/a	n/a	3	9	Blank	AvoidedLoss	True
100.629	1.45	Lose2	1.0	n/a	Yes	3.119	n/a	5.0	GoodResponse	0	0.029	99.658	3	9	Feedback	AvoidedLoss	True
102.078	3.119	Lose2	1.0	n/a	Yes	3.119	n/a	n/a	GoodResponse	0	0.0	n/a	3	9	ISIslide	AvoidedLoss	True
105.227	0.25	Control	1.0	0.0	Yes	3.273	0.027	n/a	GoodResponse	0	n/a	n/a	3	10	Cue	Neutral	True
105.477	4.0	Control	1.0	0.0	Yes	3.273	0.0	n/a	GoodResponse	0	n/a	n/a	3	10	Fixation	Neutral	True
109.476	0.3	Control	1.0	0.001	Yes	3.273	-0.001	4.0	GoodResponse	0	0.223	108.699	3	10	Target	Neutral	True
109.699	0.3	Control	1.0	0.001	Yes	3.273	-0.001	4.0	GoodResponse	0	0.223	n/a	3	10	ButtonPress	Neutral	True
109.776	0.4	Control	1.0	n/a	Yes	3.273	n/a	n/a	GoodResponse	0	n/a	n/a	3	10	Blank	Neutral	True
110.175	1.45	Control	1.0	n/a	Yes	3.273	n/a	5.0	GoodResponse	0	0.043	109.218	3	10	Feedback	Neutral	True
111.625	3.273	Control	1.0	n/a	Yes	3.273	n/a	n/a	GoodResponse	0	0.0	n/a	3	10	ISIslide	Neutral	True
114.924	0.25	Lose2	0.9167000000000001	0.0	No	2.726	0.024	n/a	NoResponse	-1	n/a	n/a	2	11	Cue	Loss	True
115.174	4.05	Lose2	0.9167000000000001	0.0	No	2.726	0.0	n/a	NoResponse	-1	n/a	n/a	2	11	Fixation	Loss	True
119.222	0.29	Lose2	0.9167000000000001	0.002	No	2.726	-0.002	4.0	NoResponse	-1	0.308	118.53	2	11	Target	Loss	True
119.522	0.41	Lose2	0.9167000000000001	n/a	No	2.726	n/a	n/a	NoResponse	-1	n/a	n/a	2	11	Blank	Loss	True
119.53	0.3	Lose2	0.9167000000000001	0.002	No	2.726	-0.002	4.0	NoResponse	-1	0.308	n/a	2	11	ButtonPress	Loss	True
119.922	1.45	Lose2	0.9167000000000001	n/a	No	2.726	n/a	5.0	NoResponse	-1	0.007	118.929	2	11	Feedback	Loss	True
121.371	2.726	Lose2	0.9167000000000001	n/a	No	2.726	n/a	n/a	NoResponse	-1	0.0	n/a	2	11	ISIslide	Loss	True
124.121	0.25	Control	0.9231	0.0	Yes	2.979	0.021	n/a	GoodResponse	0	n/a	n/a	2	12	Cue	Neutral	True
124.37	3.9	Control	0.9231	0.001	Yes	2.979	-0.001	n/a	GoodResponse	0	n/a	n/a	2	12	Fixation	Neutral	True
128.269	0.28	Control	0.9231	0.002	Yes	2.979	-0.002	4.0	GoodResponse	0	0.212	127.481	2	12	Target	Neutral	True
128.481	0.3	Control	0.9231	0.002	Yes	2.979	-0.002	4.0	GoodResponse	0	0.212	n/a	2	12	ButtonPress	Neutral	True
128.552	0.42	Control	0.9231	n/a	Yes	2.979	n/a	n/a	GoodResponse	0	n/a	n/a	2	12	Blank	Neutral	True
128.969	1.45	Control	0.9231	n/a	Yes	2.979	n/a	5.0	GoodResponse	0	0.029	127.998	2	12	Feedback	Neutral	True
130.418	2.979	Control	0.9231	n/a	Yes	2.979	n/a	n/a	GoodResponse	0	0.0	n/a	2	12	ISIslide	Neutral	True
133.417	0.25	Control	0.9286	0.0	Yes	2.783	0.017	n/a	GoodResponse	0	n/a	n/a	2	13	Cue	Neutral	True
133.667	4.0	Control	0.9286	0.0	Yes	2.783	0.0	n/a	GoodResponse	0	n/a	n/a	2	13	Fixation	Neutral	True
137.666	0.27	Control	0.9286	0.001	Yes	2.783	-0.001	4.0	GoodResponse	0	0.251	136.917	2	13	Target	Neutral	True
137.917	0.3	Control	0.9286	0.001	Yes	2.783	-0.001	4.0	GoodResponse	0	0.251	n/a	2	13	ButtonPress	Neutral	True
137.949	0.43	Control	0.9286	n/a	Yes	2.783	n/a	n/a	GoodResponse	0	n/a	n/a	2	13	Blank	Neutral	True
138.366	1.45	Control	0.9286	n/a	Yes	2.783	n/a	5.0	GoodResponse	0	0.047	137.413	2	13	Feedback	Neutral	True
139.815	2.783	Control	0.9286	n/a	Yes	2.783	n/a	n/a	GoodResponse	0	0.0	n/a	2	13	ISIslide	Neutral	True
142.614	0.25	Win2	0.9333	0.0	Yes	2.686	0.014	n/a	GoodResponse	1	n/a	n/a	3	14	Cue	Win	True
142.864	4.1	Win2	0.9333	0.0	Yes	2.686	0.0	n/a	GoodResponse	1	n/a	n/a	3	14	Fixation	Win	True
146.962	0.26	Win2	0.9333	0.002	Yes	2.686	-0.002	4.0	GoodResponse	1	0.221	146.183	3	14	Target	Win	True
147.183	0.3	Win2	0.9333	0.002	Yes	2.686	-0.002	4.0	GoodResponse	1	0.221	n/a	3	14	ButtonPress	Win	True
147.229	0.44	Win2	0.9333	n/a	Yes	2.686	n/a	n/a	GoodResponse	1	n/a	n/a	3	14	Blank	Win	True
147.662	1.45	Win2	0.9333	n/a	Yes	2.686	n/a	5.0	GoodResponse	1	0.019	146.681	3	14	Feedback	Win	True
149.112	2.686	Win2	0.9333	n/a	Yes	2.686	n/a	n/a	GoodResponse	1	0.0	n/a	3	14	ISIslide	Win	True
151.827	0.25	Control	0.9375	0.001	Yes	2.973	0.027	n/a	GoodResponse	0	n/a	n/a	3	15	Cue	Neutral	True
152.077	4.0	Control	0.9375	0.0	Yes	2.973	0.0	n/a	GoodResponse	0	n/a	n/a	3	15	Fixation	Neutral	True
156.076	0.25	Control	0.9375	0.001	Yes	2.973	-0.001	4.0	GoodResponse	0	0.236	155.312	3	15	Target	Neutral	True
156.312	0.3	Control	0.9375	0.001	Yes	2.973	-0.001	4.0	GoodResponse	0	0.236	n/a	3	15	ButtonPress	Neutral	True
156.326	0.45	Control	0.9375	n/a	Yes	2.973	n/a	n/a	GoodResponse	0	n/a	n/a	3	15	Blank	Neutral	True
156.776	1.45	Control	0.9375	n/a	Yes	2.973	n/a	5.0	GoodResponse	0	0.027	155.803	3	15	Feedback	Neutral	True
158.225	2.973	Control	0.9375	n/a	Yes	2.973	n/a	n/a	GoodResponse	0	0.0	n/a	3	15	ISIslide	Neutral	True
161.224	0.25	Win2	0.9412	0.0	Yes	2.876	0.024	n/a	GoodResponse	1	n/a	n/a	4	16	Cue	Win	True
161.474	4.0	Win2	0.9412	0.0	Yes	2.876	0.0	n/a	GoodResponse	1	n/a	n/a	4	16	Fixation	Win	True
165.473	0.24	Win2	0.9412	0.001	Yes	2.876	-0.001	4.0	GoodResponse	1	0.221	164.694	4	16	Target	Win	True
165.694	0.3	Win2	0.9412	0.001	Yes	2.876	-0.001	4.0	GoodResponse	1	0.221	n/a	4	16	ButtonPress	Win	True
165.723	0.46	Win2	0.9412	n/a	Yes	2.876	n/a	n/a	GoodResponse	1	n/a	n/a	4	16	Blank	Win	True
166.172	1.45	Win2	0.9412	n/a	Yes	2.876	n/a	5.0	GoodResponse	1	0.045	165.217	4	16	Feedback	Win	True
167.622	2.876	Win2	0.9412	n/a	Yes	2.876	n/a	n/a	GoodResponse	1	0.0	n/a	4	16	ISIslide	Win	True
170.521	0.25	Lose2	0.9444	0.0	Yes	2.729	0.021	n/a	GoodResponse	0	n/a	n/a	4	17	Cue	AvoidedLoss	True
170.771	3.95	Lose2	0.9444	0.0	Yes	2.729	0.0	n/a	GoodResponse	0	n/a	n/a	4	17	Fixation	AvoidedLoss	True
174.719	0.23	Lose2	0.9444	0.002	Yes	2.729	-0.002	4.0	GoodResponse	0	0.204	173.923	4	17	Target	AvoidedLoss	True
174.923	0.3	Lose2	0.9444	0.002	Yes	2.729	-0.002	4.0	GoodResponse	0	0.204	n/a	4	17	ButtonPress	AvoidedLoss	True
174.953	0.47	Lose2	0.9444	n/a	Yes	2.729	n/a	n/a	GoodResponse	0	n/a	n/a	4	17	Blank	AvoidedLoss	True
175.419	1.45	Lose2	0.9444	n/a	Yes	2.729	n/a	5.0	GoodResponse	0	0.018	174.437	4	17	Feedback	AvoidedLoss	True
176.869	2.729	Lose2	0.9444	n/a	Yes	2.729	n/a	n/a	GoodResponse	0	0.0	n/a	4	17	ISIslide	AvoidedLoss	True
179.618	0.25	Lose2	0.9473999999999999	0.0	Yes	2.732	0.018	n/a	GoodResponse	0	n/a	n/a	4	18	Cue	AvoidedLoss	True
179.868	4.05	Lose2	0.9473999999999999	0.0	Yes	2.732	0.0	n/a	GoodResponse	0	n/a	n/a	4	18	Fixation	AvoidedLoss	True
183.916	0.22	Lose2	0.9473999999999999	0.002	Yes	2.732	-0.002	4.0	GoodResponse	0	0.192	183.108	4	18	Target	AvoidedLoss	True
184.108	0.3	Lose2	0.9473999999999999	0.002	Yes	2.732	-0.002	4.0	GoodResponse	0	0.192	n/a	4	18	ButtonPress	AvoidedLoss	True
184.149	0.48	Lose2	0.9473999999999999	n/a	Yes	2.732	n/a	n/a	GoodResponse	0	n/a	n/a	4	18	Blank	AvoidedLoss	True
184.616	1.45	Lose2	0.9473999999999999	n/a	Yes	2.732	n/a	5.0	GoodResponse	0	0.041	183.657	4	18	Feedback	AvoidedLoss	True
186.065	2.732	Lose2	0.9473999999999999	n/a	Yes	2.732	n/a	n/a	GoodResponse	0	0.0	n/a	4	18	ISIslide	AvoidedLoss	True
188.814	0.25	Control	0.95	0.0	Yes	2.936	0.014	n/a	GoodResponse	0	n/a	n/a	4	19	Cue	Neutral	True
189.064	3.95	Control	0.95	0.0	Yes	2.936	0.0	n/a	GoodResponse	0	n/a	n/a	4	19	Fixation	Neutral	True
193.013	0.21	Control	0.95	0.001	Yes	2.936	-0.001	4.0	GoodResponse	0	0.188	192.201	4	19	Target	Neutral	True
193.201	0.3	Control	0.95	0.001	Yes	2.936	-0.001	4.0	GoodResponse	0	0.188	n/a	4	19	ButtonPress	Neutral	True
193.23	0.49	Control	0.95	n/a	Yes	2.936	n/a	n/a	GoodResponse	0	n/a	n/a	4	19	Blank	Neutral	True
193.713	1.45	Control	0.95	n/a	Yes	2.936	n/a	5.0	GoodResponse	0	0.016	192.729	4	19	Feedback	Neutral	True
195.162	2.936	Control	0.95	n/a	Yes	2.936	n/a	n/a	GoodResponse	0	0.0	n/a	4	19	ISIslide	Neutral	True
198.128	0.25	Control	0.9048	0.0	No	2.622	0.028	n/a	NoResponse	0	n/a	n/a	4	20	Cue	Neutral	True
198.378	4.05	Control	0.9048	0.0	No	2.622	0.0	n/a	NoResponse	0	n/a	n/a	4	20	Fixation	Neutral	True
202.426	0.2	Control	0.9048	0.002	No	2.622	-0.002	4.0	NoResponse	0	0.283	201.709	4	20	Target	Neutral	True
202.626	0.5	Control	0.9048	n/a	No	2.622	n/a	n/a	NoResponse	0	n/a	n/a	4	20	Blank	Neutral	True
202.709	0.3	Control	0.9048	0.002	No	2.622	-0.002	4.0	NoResponse	0	0.283	n/a	4	20	ButtonPress	Neutral	True
203.126	1.45	Control	0.9048	n/a	No	2.622	n/a	5.0	NoResponse	0	0.018	202.144	4	20	Feedback	Neutral	True
204.576	2.622	Control	0.9048	n/a	No	2.622	n/a	n/a	NoResponse	0	0.0	n/a	4	20	ISIslide	Neutral	True
207.225	0.25	Control	0.8636	0.0	No	2.775	0.025	n/a	NoResponse	0	n/a	n/a	4	21	Cue	Neutral	True
207.475	4.1	Control	0.8636	0.0	No	2.775	0.0	n/a	NoResponse	0	n/a	n/a	4	21	Fixation	Neutral	True
211.573	0.19	Control	0.8636	0.002	No	2.775	-0.002	4.0	NoResponse	0	0.209	210.782	4	21	Target	Neutral	True
211.773	0.51	Control	0.8636	n/a	No	2.775	n/a	n/a	NoResponse	0	n/a	n/a	4	21	Blank	Neutral	True
211.782	0.3	Control	0.8636	0.002	No	2.775	-0.002	4.0	NoResponse	0	0.209	n/a	4	21	ButtonPress	Neutral	True
212.273	1.45	Control	0.8636	n/a	No	2.775	n/a	5.0	NoResponse	0	0.042	211.315	4	21	Feedback	Neutral	True
213.722	2.775	Control	0.8636	n/a	No	2.775	n/a	n/a	NoResponse	0	0.0	n/a	4	21	ISIslide	Neutral	True
216.521	0.25	Control	0.8261	0.0	No	2.779	0.021	n/a	NoResponse	0	n/a	n/a	4	22	Cue	Neutral	True
216.771	4.0	Control	0.8261	0.0	No	2.779	0.0	n/a	NoResponse	0	n/a	n/a	4	22	Fixation	Neutral	True
220.77	0.18	Control	0.8261	0.001	No	2.779	-0.001	4.0	NoResponse	0	0.2	219.97	4	22	Target	Neutral	True
220.953	0.52	Control	0.8261	n/a	No	2.779	n/a	n/a	NoResponse	0	n/a	n/a	4	22	Blank	Neutral	True
220.97	0.3	Control	0.8261	0.001	No	2.779	-0.001	4.0	NoResponse	0	0.2	n/a	4	22	ButtonPress	Neutral	True
221.47	1.45	Control	0.8261	n/a	No	2.779	n/a	5.0	NoResponse	0	0.015	220.485	4	22	Feedback	Neutral	True
222.919	2.779	Control	0.8261	n/a	No	2.779	n/a	n/a	NoResponse	0	0.0	n/a	4	22	ISIslide	Neutral	True
225.718	0.25	Control	0.7917000000000001	0.0	No	2.782	0.018	n/a	NoResponse	0	n/a	n/a	4	23	Cue	Neutral	True
225.968	3.9	Control	0.7917000000000001	0.0	No	2.782	0.0	n/a	NoResponse	0	n/a	n/a	4	23	Fixation	Neutral	True
229.867	0.17	Control	0.7917000000000001	0.001	No	2.782	-0.001	4.0	NoResponse	0	0.229	229.096	4	23	Target	Neutral	True
230.05	0.53	Control	0.7917000000000001	n/a	No	2.782	n/a	n/a	NoResponse	0	n/a	n/a	4	23	Blank	Neutral	True
230.096	0.3	Control	0.7917000000000001	0.001	No	2.782	-0.001	4.0	NoResponse	0	0.229	n/a	4	23	ButtonPress	Neutral	True
230.566	1.45	Control	0.7917000000000001	n/a	No	2.782	n/a	5.0	NoResponse	0	0.041	229.607	4	23	Feedback	Neutral	True
232.016	2.782	Control	0.7917000000000001	n/a	No	2.782	n/a	n/a	NoResponse	0	0.0	n/a	4	23	ISIslide	Neutral	True
234.815	0.25	Win2	0.76	0.0	No	3.135	0.015	n/a	NoResponse	0	n/a	n/a	4	24	Cue	MissedWin	True
235.065	3.95	Win2	0.76	0.0	No	3.135	0.0	n/a	NoResponse	0	n/a	n/a	4	24	Fixation	MissedWin	True
239.013	0.16	Win2	0.76	0.002	No	3.135	-0.002	4.0	NoResponse	0	0.225	238.238	4	24	Target	MissedWin	True
239.18	0.54	Win2	0.76	n/a	No	3.135	n/a	n/a	NoResponse	0	n/a	n/a	4	24	Blank	MissedWin	True
239.238	0.3	Win2	0.76	0.002	No	3.135	-0.002	4.0	NoResponse	0	0.225	n/a	4	24	ButtonPress	MissedWin	True
239.713	1.45	Win2	0.76	n/a	No	3.135	n/a	5.0	NoResponse	0	0.016	238.729	4	24	Feedback	MissedWin	True
241.163	3.135	Win2	0.76	n/a	No	3.135	n/a	n/a	NoResponse	0	0.0	n/a	4	24	ISIslide	MissedWin	True
244.328	0.25	Win2	0.7308	0.0	No	3.072	0.028	n/a	NoResponse	0	n/a	n/a	4	25	Cue	MissedWin	True
244.578	4.0	Win2	0.7308	0.0	No	3.072	0.0	n/a	NoResponse	0	n/a	n/a	4	25	Fixation	MissedWin	True
248.577	0.15	Win2	0.7308	0.001	No	3.072	-0.001	4.0	NoResponse	0	0.203	247.78	4	25	Target	MissedWin	True
248.727	0.55	Win2	0.7308	n/a	No	3.072	n/a	n/a	NoResponse	0	n/a	n/a	4	25	Blank	MissedWin	True
248.78	0.3	Win2	0.7308	0.001	No	3.072	-0.001	4.0	NoResponse	0	0.203	n/a	4	25	ButtonPress	MissedWin	True
249.276	1.45	Win2	0.7308	n/a	No	3.072	n/a	5.0	NoResponse	0	0.014	248.29	4	25	Feedback	MissedWin	True
250.726	3.072	Win2	0.7308	n/a	No	3.072	n/a	n/a	NoResponse	0	0.0	n/a	4	25	ISIslide	MissedWin	True
253.825	0.25	Win2	0.7037	0.0	No	2.925	0.025	n/a	NoResponse	0	n/a	n/a	4	26	Cue	MissedWin	True
254.075	3.95	Win2	0.7037	0.0	No	2.925	0.0	n/a	NoResponse	0	n/a	n/a	4	26	Fixation	MissedWin	True
258.023	0.15	Win2	0.7037	0.002	No	2.925	-0.002	4.0	NoResponse	0	0.18	257.203	4	26	Target	MissedWin	True
258.173	0.55	Win2	0.7037	n/a	No	2.925	n/a	n/a	NoResponse	0	n/a	n/a	4	26	Blank	MissedWin	True
258.203	0.3	Win2	0.7037	0.002	No	2.925	-0.002	4.0	NoResponse	0	0.18	n/a	4	26	ButtonPress	MissedWin	True
258.723	1.45	Win2	0.7037	n/a	No	2.925	n/a	5.0	NoResponse	0	0.03	257.753	4	26	Feedback	MissedWin	True
260.173	2.925	Win2	0.7037	n/a	No	2.925	n/a	n/a	NoResponse	0	0.0	n/a	4	26	ISIslide	MissedWin	True
263.122	0.25	Lose2	0.6786	0.0	No	2.828	0.022	n/a	NoResponse	-1	n/a	n/a	3	27	Cue	Loss	True
263.371	4.05	Lose2	0.6786	0.001	No	2.828	-0.001	n/a	NoResponse	-1	n/a	n/a	3	27	Fixation	Loss	True
267.42	0.15	Lose2	0.6786	0.002	No	2.828	-0.002	4.0	NoResponse	-1	0.187	266.607	3	27	Target	Loss	True
267.57	0.55	Lose2	0.6786	n/a	No	2.828	n/a	n/a	NoResponse	-1	n/a	n/a	3	27	Blank	Loss	True
267.607	0.3	Lose2	0.6786	0.002	No	2.828	-0.002	4.0	NoResponse	-1	0.187	n/a	3	27	ButtonPress	Loss	True
268.12	1.45	Lose2	0.6786	n/a	No	2.828	n/a	5.0	NoResponse	-1	0.048	267.168	3	27	Feedback	Loss	True
269.569	2.828	Lose2	0.6786	n/a	No	2.828	n/a	n/a	NoResponse	-1	0.0	n/a	3	27	ISIslide	Loss	True
272.418	0.25	Control	0.6552	0.0	No	2.832	0.018	n/a	NoResponse	0	n/a	n/a	3	28	Cue	Neutral	True
272.668	4.05	Control	0.6552	0.0	No	2.832	0.0	n/a	NoResponse	0	n/a	n/a	3	28	Fixation	Neutral	True
276.717	0.15	Control	0.6552	0.001	No	2.832	-0.001	4.0	NoResponse	0	0.184	275.901	3	28	Target	Neutral	True
276.867	0.55	Control	0.6552	n/a	No	2.832	n/a	n/a	NoResponse	0	n/a	n/a	3	28	Blank	Neutral	True
276.901	0.3	Control	0.6552	0.001	No	2.832	-0.001	4.0	NoResponse	0	0.184	n/a	3	28	ButtonPress	Neutral	True
277.417	1.45	Control	0.6552	n/a	No	2.832	n/a	5.0	NoResponse	0	0.018	276.435	3	28	Feedback	Neutral	True
278.866	2.832	Control	0.6552	n/a	No	2.832	n/a	n/a	NoResponse	0	0.0	n/a	3	28	ISIslide	Neutral	True
281.715	0.25	Lose2	0.6333	0.0	No	2.835	0.015	n/a	NoResponse	-1	n/a	n/a	2	29	Cue	Loss	True
281.965	3.95	Lose2	0.6333	0.0	No	2.835	0.0	n/a	NoResponse	-1	n/a	n/a	2	29	Fixation	Loss	True
285.914	0.15	Lose2	0.6333	0.001	No	2.835	-0.001	4.0	NoResponse	-1	0.185	285.099	2	29	Target	Loss	True
286.063	0.55	Lose2	0.6333	n/a	No	2.835	n/a	n/a	NoResponse	-1	n/a	n/a	2	29	Blank	Loss	True
286.099	0.3	Lose2	0.6333	0.001	No	2.835	-0.001	4.0	NoResponse	-1	0.185	n/a	2	29	ButtonPress	Loss	True
286.613	1.45	Lose2	0.6333	n/a	No	2.835	n/a	5.0	NoResponse	-1	0.042	285.655	2	29	Feedback	Loss	True
288.063	2.835	Lose2	0.6333	n/a	No	2.835	n/a	n/a	NoResponse	-1	0.0	n/a	2	29	ISIslide	Loss	True
290.928	0.25	Win2	0.6129	0.001	No	2.772	0.028	n/a	NoResponse	0	n/a	n/a	2	30	Cue	MissedWin	True
291.178	3.9	Win2	0.6129	0.0	No	2.772	0.0	4.0	NoResponse	0	3.466	293.644	2	30	Fixation	MissedWin	True
294.644	0.3	Win2	0.6129	0.0	No	2.772	0.0	4.0	NoResponse	0	3.466	n/a	2	30	ButtonPress	MissedWin	True
295.077	0.16	Win2	0.6129	0.001	No	2.772	-0.001	n/a	NoResponse	0	n/a	n/a	2	30	Target	MissedWin	True
295.244	0.54	Win2	0.6129	n/a	No	2.772	n/a	n/a	NoResponse	0	n/a	n/a	2	30	Blank	MissedWin	True
295.777	1.45	Win2	0.6129	n/a	No	2.772	n/a	5.0	NoResponse	0	0.0	294.777	2	30	Feedback	MissedWin	True
297.226	2.772	Win2	0.6129	n/a	No	2.772	n/a	n/a	NoResponse	0	0.0	n/a	2	30	ISIslide	MissedWin	True
300.025	0.25	Lose2	0.5938	0.0	No	2.825	0.025	n/a	NoResponse	-1	n/a	n/a	1	31	Cue	Loss	True
300.275	4.05	Lose2	0.5938	0.0	No	2.825	0.0	n/a	NoResponse	-1	n/a	n/a	1	31	Fixation	Loss	True
304.324	0.17	Lose2	0.5938	0.001	No	2.825	-0.001	4.0	NoResponse	-1	0.188	303.512	1	31	Target	Loss	True
304.507	0.53	Lose2	0.5938	n/a	No	2.825	n/a	n/a	NoResponse	-1	n/a	n/a	1	31	Blank	Loss	True
304.512	0.3	Lose2	0.5938	0.001	No	2.825	-0.001	4.0	NoResponse	-1	0.188	n/a	1	31	ButtonPress	Loss	True
305.023	1.45	Lose2	0.5938	n/a	No	2.825	n/a	5.0	NoResponse	-1	0.022	304.045	1	31	Feedback	Loss	True
306.473	2.825	Lose2	0.5938	n/a	No	2.825	n/a	n/a	NoResponse	-1	0.0	n/a	1	31	ISIslide	Loss	True
309.322	0.25	Lose2	0.6061	0.0	Yes	2.628	0.022	n/a	GoodResponse	0	n/a	n/a	1	32	Cue	AvoidedLoss	True
309.572	4.15	Lose2	0.6061	0.0	Yes	2.628	0.0	n/a	GoodResponse	0	n/a	n/a	1	32	Fixation	AvoidedLoss	True
313.72	0.18	Lose2	0.6061	0.002	Yes	2.628	-0.002	4.0	GoodResponse	0	0.178	312.898	1	32	Target	AvoidedLoss	True
313.898	0.3	Lose2	0.6061	0.002	Yes	2.628	-0.002	4.0	GoodResponse	0	0.178	n/a	1	32	ButtonPress	AvoidedLoss	True
313.904	0.52	Lose2	0.6061	n/a	Yes	2.628	n/a	n/a	GoodResponse	0	n/a	n/a	1	32	Blank	AvoidedLoss	True
314.42	1.45	Lose2	0.6061	n/a	Yes	2.628	n/a	5.0	GoodResponse	0	0.04	313.46	1	32	Feedback	AvoidedLoss	True
315.87	2.628	Lose2	0.6061	n/a	Yes	2.628	n/a	n/a	GoodResponse	0	0.0	n/a	1	32	ISIslide	AvoidedLoss	True
318.519	0.25	Win2	0.6175999999999999	0.0	Yes	2.681	0.019	n/a	GoodResponse	1	n/a	n/a	2	33	Cue	Win	True
318.769	4.0	Win2	0.6175999999999999	0.0	Yes	2.681	0.0	n/a	GoodResponse	1	n/a	n/a	2	33	Fixation	Win	True
322.767	0.19	Win2	0.6175999999999999	0.002	Yes	2.681	-0.002	4.0	GoodResponse	1	0.177	321.944	2	33	Target	Win	True
322.944	0.3	Win2	0.6175999999999999	0.002	Yes	2.681	-0.002	4.0	GoodResponse	1	0.177	n/a	2	33	ButtonPress	Win	True
322.967	0.51	Win2	0.6175999999999999	n/a	Yes	2.681	n/a	n/a	GoodResponse	1	n/a	n/a	2	33	Blank	Win	True
323.467	1.45	Win2	0.6175999999999999	n/a	Yes	2.681	n/a	5.0	GoodResponse	1	0.017	322.484	2	33	Feedback	Win	True
324.916	2.681	Win2	0.6175999999999999	n/a	Yes	2.681	n/a	n/a	GoodResponse	1	0.0	n/a	2	33	ISIslide	Win	True
327.616	0.25	Lose2	0.6286	0.0	Yes	2.634	0.016	n/a	GoodResponse	0	n/a	n/a	2	34	Cue	AvoidedLoss	True
327.865	4.05	Lose2	0.6286	0.001	Yes	2.634	-0.001	n/a	GoodResponse	0	n/a	n/a	2	34	Fixation	AvoidedLoss	True
331.914	0.2	Lose2	0.6286	0.002	Yes	2.634	-0.002	4.0	GoodResponse	0	0.184	331.098	2	34	Target	AvoidedLoss	True
332.098	0.3	Lose2	0.6286	0.002	Yes	2.634	-0.002	4.0	GoodResponse	0	0.184	n/a	2	34	ButtonPress	AvoidedLoss	True
332.114	0.5	Lose2	0.6286	n/a	Yes	2.634	n/a	n/a	GoodResponse	0	n/a	n/a	2	34	Blank	AvoidedLoss	True
332.614	1.45	Lose2	0.6286	n/a	Yes	2.634	n/a	5.0	GoodResponse	0	0.04	331.654	2	34	Feedback	AvoidedLoss	True
334.063	2.634	Lose2	0.6286	n/a	Yes	2.634	n/a	n/a	GoodResponse	0	0.0	n/a	2	34	ISIslide	AvoidedLoss	True
336.712	0.25	Lose2	0.6389	0.0	Yes	2.688	0.012	n/a	GoodResponse	0	n/a	n/a	2	35	Cue	AvoidedLoss	True
336.962	4.0	Lose2	0.6389	0.0	Yes	2.688	0.0	n/a	GoodResponse	0	n/a	n/a	2	35	Fixation	AvoidedLoss	True
340.961	0.21	Lose2	0.6389	0.001	Yes	2.688	-0.001	4.0	GoodResponse	0	0.177	340.138	2	35	Target	AvoidedLoss	True
341.138	0.3	Lose2	0.6389	0.001	Yes	2.688	-0.001	4.0	GoodResponse	0	0.177	n/a	2	35	ButtonPress	AvoidedLoss	True
341.177	0.49	Lose2	0.6389	n/a	Yes	2.688	n/a	n/a	GoodResponse	0	n/a	n/a	2	35	Blank	AvoidedLoss	True
341.661	1.45	Lose2	0.6389	n/a	Yes	2.688	n/a	5.0	GoodResponse	0	0.018	340.679	2	35	Feedback	AvoidedLoss	True
343.11	2.688	Lose2	0.6389	n/a	Yes	2.688	n/a	n/a	GoodResponse	0	0.0	n/a	2	35	ISIslide	AvoidedLoss	True
345.826	0.25	Control	0.6215999999999999	0.0	No	2.674	0.026	n/a	NoResponse	0	n/a	n/a	2	36	Cue	Neutral	False
346.076	4.0	Control	0.6215999999999999	0.0	No	2.674	0.0	4.0	NoResponse	0	3.835	348.911	2	36	Fixation	Neutral	False
349.911	0.3	Control	0.6215999999999999	0.0	No	2.674	0.0	4.0	NoResponse	0	3.835	n/a	2	36	ButtonPress	Neutral	False
350.074	0.22	Control	0.6215999999999999	0.002	No	2.674	-0.002	4.0	NoResponse	0	0.25	349.324	2	36	Target	Neutral	False
350.308	0.48	Control	0.6215999999999999	n/a	No	2.674	n/a	n/a	NoResponse	0	n/a	n/a	2	36	Blank	Neutral	False
350.324	0.3	Control	0.6215999999999999	0.002	No	2.674	-0.002	4.0	NoResponse	0	0.25	n/a	2	36	ButtonPress	Neutral	False
350.774	1.45	Control	0.6215999999999999	n/a	No	2.674	n/a	5.0	NoResponse	0	0.027	349.801	2	36	Feedback	Neutral	False
352.224	2.674	Control	0.6215999999999999	n/a	No	2.674	n/a	n/a	NoResponse	0	0.0	n/a	2	36	ISIslide	Neutral	False
354.923	0.25	Win2	0.6053000000000001	0.0	No	2.877	0.023	n/a	PrematurePress	0	n/a	n/a	2	37	Cue	MissedWin	False
355.172	4.0	Win2	0.6053000000000001	0.001	No	2.877	-0.001	4.0	PrematurePress	0	3.823	357.995	2	37	Fixation	MissedWin	False
358.995	0.3	Win2	0.6053000000000001	0.001	No	2.877	-0.001	4.0	PrematurePress	0	3.823	n/a	2	37	ButtonPress	MissedWin	False
359.171	0.23	Win2	0.6053000000000001	0.002	No	2.877	-0.002	4.0	PrematurePress	0	0.005	358.176	2	37	Target	MissedWin	False
359.176	0.3	Win2	0.6053000000000001	0.002	No	2.877	-0.002	4.0	PrematurePress	0	0.005	n/a	2	37	ButtonPress	MissedWin	False
359.404	0.47	Win2	0.6053000000000001	n/a	No	2.877	n/a	n/a	PrematurePress	0	n/a	n/a	2	37	Blank	MissedWin	False
359.871	1.45	Win2	0.6053000000000001	n/a	No	2.877	n/a	5.0	PrematurePress	0	0.005	358.876	2	37	Feedback	MissedWin	False
361.32	2.877	Win2	0.6053000000000001	n/a	No	2.877	n/a	n/a	PrematurePress	0	0.0	n/a	2	37	ISIslide	MissedWin	False
364.219	0.25	Lose2	0.6154	0.0	Yes	2.831	0.019	n/a	GoodResponse	0	n/a	n/a	2	38	Cue	AvoidedLoss	True
364.469	3.95	Lose2	0.6154	0.0	Yes	2.831	0.0	n/a	GoodResponse	0	n/a	n/a	2	38	Fixation	AvoidedLoss	True
368.418	0.24	Lose2	0.6154	0.001	Yes	2.831	-0.001	4.0	GoodResponse	0	0.211	367.629	2	38	Target	AvoidedLoss	True
368.629	0.3	Lose2	0.6154	0.001	Yes	2.831	-0.001	4.0	GoodResponse	0	0.211	n/a	2	38	ButtonPress	AvoidedLoss	True
368.668	0.46	Lose2	0.6154	n/a	Yes	2.831	n/a	n/a	GoodResponse	0	n/a	n/a	2	38	Blank	AvoidedLoss	True
369.118	1.45	Lose2	0.6154	n/a	Yes	2.831	n/a	5.0	GoodResponse	0	0.024	368.142	2	38	Feedback	AvoidedLoss	True
370.567	2.831	Lose2	0.6154	n/a	Yes	2.831	n/a	n/a	GoodResponse	0	0.0	n/a	2	38	ISIslide	AvoidedLoss	True
373.416	0.25	Win2	0.625	0.0	Yes	2.984	0.016	n/a	GoodResponse	1	n/a	n/a	3	39	Cue	Win	True
373.666	4.1	Win2	0.625	0.0	Yes	2.984	0.0	n/a	GoodResponse	1	n/a	n/a	3	39	Fixation	Win	True
377.765	0.25	Win2	0.625	0.001	Yes	2.984	-0.001	4.0	GoodResponse	1	0.184	376.949	3	39	Target	Win	True
377.949	0.3	Win2	0.625	0.001	Yes	2.984	-0.001	4.0	GoodResponse	1	0.184	n/a	3	39	ButtonPress	Win	True
378.014	0.45	Win2	0.625	n/a	Yes	2.984	n/a	n/a	GoodResponse	1	n/a	n/a	3	39	Blank	Win	True
378.464	1.45	Win2	0.625	n/a	Yes	2.984	n/a	5.0	GoodResponse	1	0.044	377.508	3	39	Feedback	Win	True
379.914	2.984	Win2	0.625	n/a	Yes	2.984	n/a	n/a	GoodResponse	1	0.0	n/a	3	39	ISIslide	Win	True
382.913	0.25	Win2	0.6341	0.0	Yes	2.737	0.013	n/a	GoodResponse	1	n/a	n/a	4	40	Cue	Win	True
383.163	3.95	Win2	0.6341	0.0	Yes	2.737	0.0	n/a	GoodResponse	1	n/a	n/a	4	40	Fixation	Win	True
387.111	0.26	Win2	0.6341	0.002	Yes	2.737	-0.002	4.0	GoodResponse	1	0.237	386.348	4	40	Target	Win	True
387.348	0.3	Win2	0.6341	0.002	Yes	2.737	-0.002	4.0	GoodResponse	1	0.237	n/a	4	40	ButtonPress	Win	True
387.378	0.44	Win2	0.6341	n/a	Yes	2.737	n/a	n/a	GoodResponse	1	n/a	n/a	4	40	Blank	Win	True
387.811	1.45	Win2	0.6341	n/a	Yes	2.737	n/a	5.0	GoodResponse	1	0.014	386.825	4	40	Feedback	Win	True
389.26	2.737	Win2	0.6341	n/a	Yes	2.737	n/a	n/a	GoodResponse	1	0.0	n/a	4	40	ISIslide	Win	True
392.026	0.25	Win2	0.6429	0.0	Yes	2.774	0.026	n/a	GoodResponse	1	n/a	n/a	5	41	Cue	Win	True
392.276	3.9	Win2	0.6429	0.0	Yes	2.774	0.0	n/a	GoodResponse	1	n/a	n/a	5	41	Fixation	Win	True
396.175	0.27	Win2	0.6429	0.001	Yes	2.774	-0.001	4.0	GoodResponse	1	0.188	395.363	5	41	Target	Win	True
396.363	0.3	Win2	0.6429	0.001	Yes	2.774	-0.001	4.0	GoodResponse	1	0.188	n/a	5	41	ButtonPress	Win	True
396.441	0.43	Win2	0.6429	n/a	Yes	2.774	n/a	n/a	GoodResponse	1	n/a	n/a	5	41	Blank	Win	True
396.874	1.45	Win2	0.6429	n/a	Yes	2.774	n/a	5.0	GoodResponse	1	0.024	395.898	5	41	Feedback	Win	True
398.324	2.774	Win2	0.6429	n/a	Yes	2.774	n/a	n/a	GoodResponse	1	0.0	n/a	5	41	ISIslide	Win	True
401.123	0.25	Control	0.6512	0.0	Yes	2.927	0.023	n/a	GoodResponse	0	n/a	n/a	5	42	Cue	Neutral	True
401.373	3.85	Control	0.6512	0.0	Yes	2.927	0.0	n/a	GoodResponse	0	n/a	n/a	5	42	Fixation	Neutral	True
405.221	0.28	Control	0.6512	0.002	Yes	2.927	-0.002	4.0	GoodResponse	0	0.187	404.408	5	42	Target	Neutral	True
405.408	0.3	Control	0.6512	0.002	Yes	2.927	-0.002	4.0	GoodResponse	0	0.187	n/a	5	42	ButtonPress	Neutral	True
405.505	0.42	Control	0.6512	n/a	Yes	2.927	n/a	n/a	GoodResponse	0	n/a	n/a	5	42	Blank	Neutral	True
405.921	1.45	Control	0.6512	n/a	Yes	2.927	n/a	5.0	GoodResponse	0	0.001	404.922	5	42	Feedback	Neutral	True
407.371	2.927	Control	0.6512	n/a	Yes	2.927	n/a	n/a	GoodResponse	0	0.0	n/a	5	42	ISIslide	Neutral	True
410.32	0.25	Win2	0.6591	0.0	Yes	3.18	0.02	n/a	GoodResponse	1	n/a	n/a	6	43	Cue	Win	True
410.57	4.0	Win2	0.6591	0.0	Yes	3.18	0.0	n/a	GoodResponse	1	n/a	n/a	6	43	Fixation	Win	True
414.568	0.29	Win2	0.6591	0.002	Yes	3.18	-0.002	4.0	GoodResponse	1	0.184	413.752	6	43	Target	Win	True
414.752	0.3	Win2	0.6591	0.002	Yes	3.18	-0.002	4.0	GoodResponse	1	0.184	n/a	6	43	ButtonPress	Win	True
414.868	0.41	Win2	0.6591	n/a	Yes	3.18	n/a	n/a	GoodResponse	1	n/a	n/a	6	43	Blank	Win	True
415.268	1.45	Win2	0.6591	n/a	Yes	3.18	n/a	5.0	GoodResponse	1	0.02	414.288	6	43	Feedback	Win	True
416.717	3.18	Win2	0.6591	n/a	Yes	3.18	n/a	n/a	GoodResponse	1	0.0	n/a	6	43	ISIslide	Win	True
419.916	0.25	Win2	0.6667000000000001	0.0	Yes	2.984	0.016	n/a	GoodResponse	1	n/a	n/a	7	44	Cue	Win	True
420.166	4.0	Win2	0.6667000000000001	0.0	Yes	2.984	0.0	n/a	GoodResponse	1	n/a	n/a	7	44	Fixation	Win	True
424.165	0.29	Win2	0.6667000000000001	0.001	Yes	2.984	-0.001	4.0	GoodResponse	1	0.212	423.377	7	44	Target	Win	True
424.377	0.3	Win2	0.6667000000000001	0.001	Yes	2.984	-0.001	4.0	GoodResponse	1	0.212	n/a	7	44	ButtonPress	Win	True
424.465	0.41	Win2	0.6667000000000001	n/a	Yes	2.984	n/a	n/a	GoodResponse	1	n/a	n/a	7	44	Blank	Win	True
424.865	1.45	Win2	0.6667000000000001	n/a	Yes	2.984	n/a	5.0	GoodResponse	1	0.033	423.898	7	44	Feedback	Win	True
426.314	2.984	Win2	0.6667000000000001	n/a	Yes	2.984	n/a	n/a	GoodResponse	1	0.0	n/a	7	44	ISIslide	Win	True
429.313	0.25	Control	0.6739	0.0	Yes	2.887	0.013	n/a	GoodResponse	0	n/a	n/a	7	45	Cue	Neutral	True
429.563	4.1	Control	0.6739	0.0	Yes	2.887	0.0	n/a	GoodResponse	0	n/a	n/a	7	45	Fixation	Neutral	True
433.661	0.28	Control	0.6739	0.002	Yes	2.887	-0.002	4.0	GoodResponse	0	0.188	432.849	7	45	Target	Neutral	True
433.849	0.3	Control	0.6739	0.002	Yes	2.887	-0.002	4.0	GoodResponse	0	0.188	n/a	7	45	ButtonPress	Neutral	True
433.945	0.42	Control	0.6739	n/a	Yes	2.887	n/a	n/a	GoodResponse	0	n/a	n/a	7	45	Blank	Neutral	True
434.361	1.45	Control	0.6739	n/a	Yes	2.887	n/a	5.0	GoodResponse	0	0.049	433.41	7	45	Feedback	Neutral	True
435.811	2.887	Control	0.6739	n/a	Yes	2.887	n/a	n/a	GoodResponse	0	0.0	n/a	7	45	ISIslide	Neutral	True
438.726	0.25	Lose2	0.6596	0.0	No	3.374	0.026	n/a	NoResponse	-1	n/a	n/a	6	46	Cue	Loss	False
438.976	4.0	Lose2	0.6596	0.0	No	3.374	0.0	4.0	NoResponse	-1	3.789	441.765	6	46	Fixation	Loss	False
442.765	0.3	Lose2	0.6596	0.0	No	3.374	0.0	4.0	NoResponse	-1	3.789	n/a	6	46	ButtonPress	Loss	False
442.975	0.27	Lose2	0.6596	0.001	No	3.374	-0.001	4.0	NoResponse	-1	0.418	442.393	6	46	Target	Loss	False
443.241	0.43	Lose2	0.6596	n/a	No	3.374	n/a	n/a	NoResponse	-1	n/a	n/a	6	46	Blank	Loss	False
443.393	0.3	Lose2	0.6596	0.001	No	3.374	-0.001	4.0	NoResponse	-1	0.418	n/a	6	46	ButtonPress	Loss	False
443.675	1.45	Lose2	0.6596	n/a	No	3.374	n/a	5.0	NoResponse	-1	0.003	442.678	6	46	Feedback	Loss	False
445.124	3.374	Lose2	0.6596	n/a	No	3.374	n/a	n/a	NoResponse	-1	0.0	n/a	6	46	ISIslide	Loss	False
448.523	0.25	Lose2	0.6667000000000001	0.0	Yes	2.677	0.023	n/a	GoodResponse	0	n/a	n/a	6	47	Cue	AvoidedLoss	True
448.773	4.0	Lose2	0.6667000000000001	0.0	Yes	2.677	0.0	n/a	GoodResponse	0	n/a	n/a	6	47	Fixation	AvoidedLoss	True
452.771	0.27	Lose2	0.6667000000000001	0.002	Yes	2.677	-0.002	4.0	GoodResponse	0	0.231	452.002	6	47	Target	AvoidedLoss	True
453.002	0.3	Lose2	0.6667000000000001	0.002	Yes	2.677	-0.002	4.0	GoodResponse	0	0.231	n/a	6	47	ButtonPress	AvoidedLoss	True
453.055	0.43	Lose2	0.6667000000000001	n/a	Yes	2.677	n/a	n/a	GoodResponse	0	n/a	n/a	6	47	Blank	AvoidedLoss	True
453.471	1.45	Lose2	0.6667000000000001	n/a	Yes	2.677	n/a	5.0	GoodResponse	0	0.011	452.482	6	47	Feedback	AvoidedLoss	True
454.921	2.677	Lose2	0.6667000000000001	n/a	Yes	2.677	n/a	n/a	GoodResponse	0	0.0	n/a	6	47	ISIslide	AvoidedLoss	True
457.62	0.25	Lose2	0.6735	0.0	Yes	3.03	0.02	n/a	GoodResponse	0	n/a	n/a	6	48	Cue	AvoidedLoss	True
457.87	3.95	Lose2	0.6735	0.0	Yes	3.03	0.0	n/a	GoodResponse	0	n/a	n/a	6	48	Fixation	AvoidedLoss	True
461.818	0.26	Lose2	0.6735	0.002	Yes	3.03	-0.002	4.0	GoodResponse	0	0.206	461.024	6	48	Target	AvoidedLoss	True
462.024	0.3	Lose2	0.6735	0.002	Yes	3.03	-0.002	4.0	GoodResponse	0	0.206	n/a	6	48	ButtonPress	AvoidedLoss	True
462.085	0.44	Lose2	0.6735	n/a	Yes	3.03	n/a	n/a	GoodResponse	0	n/a	n/a	6	48	Blank	AvoidedLoss	True
462.518	1.45	Lose2	0.6735	n/a	Yes	3.03	n/a	5.0	GoodResponse	0	0.038	461.556	6	48	Feedback	AvoidedLoss	True
463.967	3.03	Lose2	0.6735	n/a	Yes	3.03	n/a	n/a	GoodResponse	0	0.0	n/a	6	48	ISIslide	AvoidedLoss	True
467.016	0.25	Control	0.68	0.001	Yes	2.884	0.016	n/a	GoodResponse	0	n/a	n/a	6	49	Cue	Neutral	True
467.266	4.0	Control	0.68	0.0	Yes	2.884	0.0	n/a	GoodResponse	0	n/a	n/a	6	49	Fixation	Neutral	True
471.265	0.25	Control	0.68	0.001	Yes	2.884	-0.001	4.0	GoodResponse	0	0.195	470.46	6	49	Target	Neutral	True
471.46	0.3	Control	0.68	0.001	Yes	2.884	-0.001	4.0	GoodResponse	0	0.195	n/a	6	49	ButtonPress	Neutral	True
471.515	0.45	Control	0.68	n/a	Yes	2.884	n/a	n/a	GoodResponse	0	n/a	n/a	6	49	Blank	Neutral	True
471.965	1.45	Control	0.68	n/a	Yes	2.884	n/a	5.0	GoodResponse	0	0.005	470.97	6	49	Feedback	Neutral	True
473.414	2.884	Control	0.68	n/a	Yes	2.884	n/a	n/a	GoodResponse	0	0.0	n/a	6	49	ISIslide	Neutral	True
476.313	0.25	Control	0.6862999999999999	0.0	Yes	2.787	0.013	n/a	GoodResponse	0	n/a	n/a	6	50	Cue	Neutral	False
476.563	4.0	Control	0.6862999999999999	0.0	Yes	2.787	0.0	4.0	GoodResponse	0	3.783	479.346	6	50	Fixation	Neutral	False
480.346	0.3	Control	0.6862999999999999	0.0	Yes	2.787	0.0	4.0	GoodResponse	0	3.783	n/a	6	50	ButtonPress	Neutral	False
480.562	0.24	Control	0.6862999999999999	0.001	Yes	2.787	-0.001	4.0	GoodResponse	0	0.165	479.727	6	50	Target	Neutral	False
480.727	0.3	Control	0.6862999999999999	0.001	Yes	2.787	-0.001	4.0	GoodResponse	0	0.165	n/a	6	50	ButtonPress	Neutral	False
480.812	0.46	Control	0.6862999999999999	n/a	Yes	2.787	n/a	n/a	GoodResponse	0	n/a	n/a	6	50	Blank	Neutral	False
481.261	1.45	Control	0.6862999999999999	n/a	Yes	2.787	n/a	5.0	GoodResponse	0	0.027	480.288	6	50	Feedback	Neutral	False
482.711	2.787	Control	0.6862999999999999	n/a	Yes	2.787	n/a	n/a	GoodResponse	0	0.0	n/a	6	50	ISIslide	Neutral	False
485.527	0.25	Control	0.6923	0.0	Yes	2.723	0.027	n/a	GoodResponse	0	n/a	n/a	6	51	Cue	Neutral	True
485.776	3.95	Control	0.6923	0.001	Yes	2.723	-0.001	n/a	GoodResponse	0	n/a	n/a	6	51	Fixation	Neutral	True
489.725	0.23	Control	0.6923	0.002	Yes	2.723	-0.002	4.0	GoodResponse	0	0.202	488.927	6	51	Target	Neutral	True
489.927	0.3	Control	0.6923	0.002	Yes	2.723	-0.002	4.0	GoodResponse	0	0.202	n/a	6	51	ButtonPress	Neutral	True
489.958	0.47	Control	0.6923	n/a	Yes	2.723	n/a	n/a	GoodResponse	0	n/a	n/a	6	51	Blank	Neutral	True
490.425	1.45	Control	0.6923	n/a	Yes	2.723	n/a	5.0	GoodResponse	0	0.033	489.458	6	51	Feedback	Neutral	True
491.874	2.723	Control	0.6923	n/a	Yes	2.723	n/a	n/a	GoodResponse	0	0.0	n/a	6	51	ISIslide	Neutral	True
494.623	0.25	Control	0.6981	0.0	Yes	2.627	0.023	n/a	GoodResponse	0	n/a	n/a	6	52	Cue	Neutral	True
494.873	4.05	Control	0.6981	0.0	Yes	2.627	0.0	n/a	GoodResponse	0	n/a	n/a	6	52	Fixation	Neutral	True
498.922	0.22	Control	0.6981	0.001	Yes	2.627	-0.001	4.0	GoodResponse	0	0.177	498.099	6	52	Target	Neutral	True
499.099	0.3	Control	0.6981	0.001	Yes	2.627	-0.001	4.0	GoodResponse	0	0.177	n/a	6	52	ButtonPress	Neutral	True
499.138	0.48	Control	0.6981	n/a	Yes	2.627	n/a	n/a	GoodResponse	0	n/a	n/a	6	52	Blank	Neutral	True
499.622	1.45	Control	0.6981	n/a	Yes	2.627	n/a	5.0	GoodResponse	0	0.006	498.628	6	52	Feedback	Neutral	True
501.071	2.627	Control	0.6981	n/a	Yes	2.627	n/a	n/a	GoodResponse	0	0.0	n/a	6	52	ISIslide	Neutral	True
503.72	0.25	Win2	0.7037	0.0	Yes	2.93	0.02	n/a	GoodResponse	1	n/a	n/a	7	53	Cue	Win	True
503.97	4.05	Win2	0.7037	0.0	Yes	2.93	0.0	n/a	GoodResponse	1	n/a	n/a	7	53	Fixation	Win	True
508.019	0.21	Win2	0.7037	0.001	Yes	2.93	-0.001	4.0	GoodResponse	1	0.163	507.182	7	53	Target	Win	True
508.182	0.3	Win2	0.7037	0.001	Yes	2.93	-0.001	4.0	GoodResponse	1	0.163	n/a	7	53	ButtonPress	Win	True
508.235	0.49	Win2	0.7037	n/a	Yes	2.93	n/a	n/a	GoodResponse	1	n/a	n/a	7	53	Blank	Win	True
508.718	1.45	Win2	0.7037	n/a	Yes	2.93	n/a	5.0	GoodResponse	1	0.032	507.75	7	53	Feedback	Win	True
510.168	2.93	Win2	0.7037	n/a	Yes	2.93	n/a	n/a	GoodResponse	1	0.0	n/a	7	53	ISIslide	Win	True
513.117	0.25	Win2	0.7091	0.0	Yes	2.733	0.017	n/a	GoodResponse	1	n/a	n/a	8	54	Cue	Win	True
513.367	3.95	Win2	0.7091	0.0	Yes	2.733	0.0	n/a	GoodResponse	1	n/a	n/a	8	54	Fixation	Win	True
517.315	0.2	Win2	0.7091	0.002	Yes	2.733	-0.002	4.0	GoodResponse	1	0.195	516.51	8	54	Target	Win	True
517.51	0.3	Win2	0.7091	0.002	Yes	2.733	-0.002	4.0	GoodResponse	1	0.195	n/a	8	54	ButtonPress	Win	True
517.515	0.5	Win2	0.7091	n/a	Yes	2.733	n/a	n/a	GoodResponse	1	n/a	n/a	8	54	Blank	Win	True
518.015	1.45	Win2	0.7091	n/a	Yes	2.733	n/a	5.0	GoodResponse	1	0.004	517.019	8	54	Feedback	Win	True
519.465	2.733	Win2	0.7091	n/a	Yes	2.733	n/a	n/a	GoodResponse	1	0.0	n/a	8	54	ISIslide	Win	True
522.214	0.25	Control	0.6964	0.0	No	3.036	0.014	n/a	LatePress	0	n/a	n/a	8	55	Cue	Neutral	True
522.464	3.95	Control	0.6964	0.0	No	3.036	0.0	n/a	LatePress	0	n/a	n/a	8	55	Fixation	Neutral	True
526.412	0.19	Control	0.6964	0.002	No	3.036	-0.002	4.0	LatePress	0	0.199	525.611	8	55	Target	Neutral	True
526.611	0.3	Control	0.6964	0.002	No	3.036	-0.002	4.0	LatePress	0	0.199	n/a	8	55	ButtonPress	Neutral	True
526.612	0.51	Control	0.6964	n/a	No	3.036	n/a	n/a	LatePress	0	n/a	n/a	8	55	Blank	Neutral	True
527.112	1.45	Control	0.6964	n/a	No	3.036	n/a	5.0	LatePress	0	0.029	526.141	8	55	Feedback	Neutral	True
528.561	3.036	Control	0.6964	n/a	No	3.036	n/a	n/a	LatePress	0	0.0	n/a	8	55	ISIslide	Neutral	True
531.61	0.25	Control	0.6842	0.0	No	2.84	0.01	n/a	NoResponse	0	n/a	n/a	8	56	Cue	Neutral	True
531.86	3.95	Control	0.6842	0.0	No	2.84	0.0	n/a	NoResponse	0	n/a	n/a	8	56	Fixation	Neutral	True
535.809	0.18	Control	0.6842	0.001	No	2.84	-0.001	4.0	NoResponse	0	0.224	535.033	8	56	Target	Neutral	True
535.992	0.52	Control	0.6842	n/a	No	2.84	n/a	n/a	NoResponse	0	n/a	n/a	8	56	Blank	Neutral	True
536.033	0.3	Control	0.6842	0.001	No	2.84	-0.001	4.0	NoResponse	0	0.224	n/a	8	56	ButtonPress	Neutral	True
536.509	1.45	Control	0.6842	n/a	No	2.84	n/a	5.0	NoResponse	0	0.046	535.555	8	56	Feedback	Neutral	True
537.958	2.84	Control	0.6842	n/a	No	2.84	n/a	n/a	NoResponse	0	0.0	n/a	8	56	ISIslide	Neutral	True
540.824	0.25	Control	0.6897	0.0	Yes	3.476	0.024	n/a	GoodResponse	0	n/a	n/a	8	57	Cue	Neutral	True
541.074	4.0	Control	0.6897	0.0	Yes	3.476	0.0	n/a	GoodResponse	0	n/a	n/a	8	57	Fixation	Neutral	True
545.072	0.17	Control	0.6897	0.002	Yes	3.476	-0.002	4.0	GoodResponse	0	0.16	544.232	8	57	Target	Neutral	True
545.232	0.3	Control	0.6897	0.002	Yes	3.476	-0.002	4.0	GoodResponse	0	0.16	n/a	8	57	ButtonPress	Neutral	True
545.256	0.53	Control	0.6897	n/a	Yes	3.476	n/a	n/a	GoodResponse	0	n/a	n/a	8	57	Blank	Neutral	True
545.772	1.45	Control	0.6897	n/a	Yes	3.476	n/a	5.0	GoodResponse	0	0.004	544.776	8	57	Feedback	Neutral	True
547.221	3.476	Control	0.6897	n/a	Yes	3.476	n/a	n/a	GoodResponse	0	0.0	n/a	8	57	ISIslide	Neutral	True
550.72	0.25	Win2	0.6779999999999999	0.0	No	2.73	0.02	n/a	NoResponse	0	n/a	n/a	8	58	Cue	MissedWin	True
550.97	4.05	Win2	0.6779999999999999	0.0	No	2.73	0.0	n/a	NoResponse	0	n/a	n/a	8	58	Fixation	MissedWin	True
555.019	0.16	Win2	0.6779999999999999	0.001	No	2.73	-0.001	4.0	NoResponse	0	0.176	554.195	8	58	Target	MissedWin	True
555.185	0.54	Win2	0.6779999999999999	n/a	No	2.73	n/a	n/a	NoResponse	0	n/a	n/a	8	58	Blank	MissedWin	True
555.195	0.3	Win2	0.6779999999999999	0.001	No	2.73	-0.001	4.0	NoResponse	0	0.176	n/a	8	58	ButtonPress	MissedWin	True
555.718	1.45	Win2	0.6779999999999999	n/a	No	2.73	n/a	5.0	NoResponse	0	0.007	554.725	8	58	Feedback	MissedWin	True
557.168	2.73	Win2	0.6779999999999999	n/a	No	2.73	n/a	n/a	NoResponse	0	0.0	n/a	8	58	ISIslide	MissedWin	True
559.917	0.25	Lose2	0.6667000000000001	0.0	No	2.683	0.017	n/a	NoResponse	-1	n/a	n/a	7	59	Cue	Loss	True
560.167	4.0	Lose2	0.6667000000000001	0.0	No	2.683	0.0	4.0	NoResponse	-1	1.788	560.955	7	59	Fixation	Loss	True
561.955	0.3	Lose2	0.6667000000000001	0.0	No	2.683	0.0	4.0	NoResponse	-1	1.788	n/a	7	59	ButtonPress	Loss	True
564.166	0.15	Lose2	0.6667000000000001	0.001	No	2.683	-0.001	n/a	NoResponse	-1	n/a	n/a	7	59	Target	Loss	True
564.315	0.55	Lose2	0.6667000000000001	n/a	No	2.683	n/a	n/a	NoResponse	-1	n/a	n/a	7	59	Blank	Loss	True
564.865	1.45	Lose2	0.6667000000000001	n/a	No	2.683	n/a	5.0	NoResponse	-1	0.031	563.896	7	59	Feedback	Loss	True
566.315	2.683	Lose2	0.6667000000000001	n/a	No	2.683	n/a	n/a	NoResponse	-1	0.0	n/a	7	59	ISIslide	Loss	True
569.014	0.25	Control	0.6557	0.0	No	2.686	0.014	n/a	NoResponse	0	n/a	n/a	7	60	Cue	Neutral	True
569.264	4.0	Control	0.6557	0.0	No	2.686	0.0	n/a	NoResponse	0	n/a	n/a	7	60	Fixation	Neutral	True
573.262	0.15	Control	0.6557	0.002	No	2.686	-0.002	4.0	NoResponse	0	0.174	572.436	7	60	Target	Neutral	True
573.412	0.55	Control	0.6557	n/a	No	2.686	n/a	n/a	NoResponse	0	n/a	n/a	7	60	Blank	Neutral	True
573.436	0.3	Control	0.6557	0.002	No	2.686	-0.002	4.0	NoResponse	0	0.174	n/a	7	60	ButtonPress	Neutral	True
573.962	1.45	Control	0.6557	n/a	No	2.686	n/a	5.0	NoResponse	0	0.008	572.97	7	60	Feedback	Neutral	True
575.412	2.686	Control	0.6557	n/a	No	2.686	n/a	n/a	NoResponse	0	0.0	n/a	7	60	ISIslide	Neutral	True
578.127	0.25	Lose2	0.6452	0.0	No	2.973	0.027	n/a	NoResponse	-1	n/a	n/a	6	61	Cue	Loss	True
578.377	4.0	Lose2	0.6452	0.0	No	2.973	0.0	n/a	NoResponse	-1	n/a	n/a	6	61	Fixation	Loss	True
582.376	0.15	Lose2	0.6452	0.001	No	2.973	-0.001	4.0	NoResponse	-1	0.186	581.562	6	61	Target	Loss	True
582.526	0.55	Lose2	0.6452	n/a	No	2.973	n/a	n/a	NoResponse	-1	n/a	n/a	6	61	Blank	Loss	True
582.562	0.3	Lose2	0.6452	0.001	No	2.973	-0.001	4.0	NoResponse	-1	0.186	n/a	6	61	ButtonPress	Loss	True
583.076	1.45	Lose2	0.6452	n/a	No	2.973	n/a	5.0	NoResponse	-1	0.015	582.091	6	61	Feedback	Loss	True
584.525	2.973	Lose2	0.6452	n/a	No	2.973	n/a	n/a	NoResponse	-1	0.0	n/a	6	61	ISIslide	Loss	True
587.524	0.25	Lose2	0.6349	0.0	No	2.876	0.024	n/a	NoResponse	-1	n/a	n/a	5	62	Cue	Loss	True
587.774	3.9	Lose2	0.6349	0.0	No	2.876	0.0	n/a	NoResponse	-1	n/a	n/a	5	62	Fixation	Loss	True
591.672	0.16	Lose2	0.6349	0.002	No	2.876	-0.002	4.0	NoResponse	-1	0.172	590.844	5	62	Target	Loss	True
591.839	0.54	Lose2	0.6349	n/a	No	2.876	n/a	n/a	NoResponse	-1	n/a	n/a	5	62	Blank	Loss	True
591.844	0.3	Lose2	0.6349	0.002	No	2.876	-0.002	4.0	NoResponse	-1	0.172	n/a	5	62	ButtonPress	Loss	True
592.372	1.45	Lose2	0.6349	n/a	No	2.876	n/a	5.0	NoResponse	-1	0.036	591.408	5	62	Feedback	Loss	True
593.822	2.876	Lose2	0.6349	n/a	No	2.876	n/a	n/a	NoResponse	-1	0.0	n/a	5	62	ISIslide	Loss	True
596.721	0.25	Lose2	0.625	0.0	No	2.629	0.021	n/a	NoResponse	-1	n/a	n/a	4	63	Cue	Loss	True
596.971	4.05	Lose2	0.625	0.0	No	2.629	0.0	n/a	NoResponse	-1	n/a	n/a	4	63	Fixation	Loss	True
601.019	0.17	Lose2	0.625	0.002	No	2.629	-0.002	4.0	NoResponse	-1	0.199	600.218	4	63	Target	Loss	True
601.202	0.53	Lose2	0.625	n/a	No	2.629	n/a	n/a	NoResponse	-1	n/a	n/a	4	63	Blank	Loss	True
601.218	0.3	Lose2	0.625	0.002	No	2.629	-0.002	4.0	NoResponse	-1	0.199	n/a	4	63	ButtonPress	Loss	True
601.719	1.45	Lose2	0.625	n/a	No	2.629	n/a	5.0	NoResponse	-1	0.006	600.725	4	63	Feedback	Loss	True
603.168	2.629	Lose2	0.625	n/a	No	2.629	n/a	n/a	NoResponse	-1	0.0	n/a	4	63	ISIslide	Loss	True
605.818	0.25	Win2	0.6308	0.0	Yes	3.132	0.018	n/a	GoodResponse	1	n/a	n/a	5	64	Cue	Win	False
606.067	4.15	Win2	0.6308	0.001	Yes	3.132	-0.001	4.0	GoodResponse	1	2.902	607.969	5	64	Fixation	Win	False
608.969	0.3	Win2	0.6308	0.001	Yes	3.132	-0.001	4.0	GoodResponse	1	2.902	n/a	5	64	ButtonPress	Win	False
610.216	0.18	Win2	0.6308	0.002	Yes	3.132	-0.002	4.0	GoodResponse	1	0.145	609.361	5	64	Target	Win	False
610.361	0.3	Win2	0.6308	0.002	Yes	3.132	-0.002	4.0	GoodResponse	1	0.145	n/a	5	64	ButtonPress	Win	False
610.399	0.52	Win2	0.6308	n/a	Yes	3.132	n/a	n/a	GoodResponse	1	n/a	n/a	5	64	Blank	Win	False
610.916	1.45	Win2	0.6308	n/a	Yes	3.132	n/a	5.0	GoodResponse	1	0.029	609.945	5	64	Feedback	Win	False
612.365	3.132	Win2	0.6308	n/a	Yes	3.132	n/a	n/a	GoodResponse	1	0.0	n/a	5	64	ISIslide	Win	False
615.514	0.25	Control	0.6212	0.0	No	2.786	0.014	n/a	PrematurePress	0	n/a	n/a	5	65	Cue	Neutral	True
615.764	4.0	Control	0.6212	0.0	No	2.786	0.0	n/a	PrematurePress	0	n/a	n/a	5	65	Fixation	Neutral	True
619.763	0.19	Control	0.6212	0.001	No	2.786	-0.001	4.0	PrematurePress	0	0.031	618.794	5	65	Target	Neutral	True
619.794	0.3	Control	0.6212	0.001	No	2.786	-0.001	4.0	PrematurePress	0	0.031	n/a	5	65	ButtonPress	Neutral	True
619.963	0.51	Control	0.6212	n/a	No	2.786	n/a	n/a	PrematurePress	0	n/a	n/a	5	65	Blank	Neutral	True
620.462	1.45	Control	0.6212	n/a	No	2.786	n/a	5.0	PrematurePress	0	0.043	619.505	5	65	Feedback	Neutral	True
621.912	2.786	Control	0.6212	n/a	No	2.786	n/a	n/a	PrematurePress	0	0.0	n/a	5	65	ISIslide	Neutral	True
624.728	0.25	Win2	0.6269	0.0	Yes	2.772	0.028	n/a	GoodResponse	1	n/a	n/a	6	66	Cue	Win	True
624.977	3.9	Win2	0.6269	0.001	Yes	2.772	-0.001	n/a	GoodResponse	1	n/a	n/a	6	66	Fixation	Win	True
628.876	0.2	Win2	0.6269	0.002	Yes	2.772	-0.002	4.0	GoodResponse	1	0.133	628.009	6	66	Target	Win	True
629.009	0.3	Win2	0.6269	0.002	Yes	2.772	-0.002	4.0	GoodResponse	1	0.133	n/a	6	66	ButtonPress	Win	True
629.076	0.5	Win2	0.6269	n/a	Yes	2.772	n/a	n/a	GoodResponse	1	n/a	n/a	6	66	Blank	Win	True
629.576	1.45	Win2	0.6269	n/a	Yes	2.772	n/a	5.0	GoodResponse	1	0.004	628.58	6	66	Feedback	Win	True
631.025	2.772	Win2	0.6269	n/a	Yes	2.772	n/a	n/a	GoodResponse	1	0.0	n/a	6	66	ISIslide	Win	True
633.824	0.25	Control	0.6324000000000001	0.0	Yes	2.726	0.024	n/a	GoodResponse	0	n/a	n/a	6	67	Cue	Neutral	True
634.074	3.95	Control	0.6324000000000001	0.0	Yes	2.726	0.0	n/a	GoodResponse	0	n/a	n/a	6	67	Fixation	Neutral	True
638.023	0.21	Control	0.6324000000000001	0.001	Yes	2.726	-0.001	4.0	GoodResponse	0	0.192	637.215	6	67	Target	Neutral	True
638.215	0.3	Control	0.6324000000000001	0.001	Yes	2.726	-0.001	4.0	GoodResponse	0	0.192	n/a	6	67	ButtonPress	Neutral	True
638.239	0.49	Control	0.6324000000000001	n/a	Yes	2.726	n/a	n/a	GoodResponse	0	n/a	n/a	6	67	Blank	Neutral	True
638.723	1.45	Control	0.6324000000000001	n/a	Yes	2.726	n/a	5.0	GoodResponse	0	0.026	637.749	6	67	Feedback	Neutral	True
640.172	2.726	Control	0.6324000000000001	n/a	Yes	2.726	n/a	n/a	GoodResponse	0	0.0	n/a	6	67	ISIslide	Neutral	True
642.921	0.25	Win2	0.6377	0.0	Yes	3.079	0.021	n/a	GoodResponse	1	n/a	n/a	7	68	Cue	Win	True
643.171	4.0	Win2	0.6377	0.0	Yes	3.079	0.0	n/a	GoodResponse	1	n/a	n/a	7	68	Fixation	Win	True
647.17	0.22	Win2	0.6377	0.001	Yes	3.079	-0.001	4.0	GoodResponse	1	0.162	646.332	7	68	Target	Win	True
647.332	0.3	Win2	0.6377	0.001	Yes	3.079	-0.001	4.0	GoodResponse	1	0.162	n/a	7	68	ButtonPress	Win	True
647.403	0.48	Win2	0.6377	n/a	Yes	3.079	n/a	n/a	GoodResponse	1	n/a	n/a	7	68	Blank	Win	True
647.869	1.45	Win2	0.6377	n/a	Yes	3.079	n/a	5.0	GoodResponse	1	0.002	646.871	7	68	Feedback	Win	True
649.319	3.079	Win2	0.6377	n/a	Yes	3.079	n/a	n/a	GoodResponse	1	0.0	n/a	7	68	ISIslide	Win	True
652.418	0.25	Win2	0.6429	0.0	Yes	3.232	0.018	n/a	GoodResponse	1	n/a	n/a	8	69	Cue	Win	True
652.668	3.95	Win2	0.6429	0.0	Yes	3.232	0.0	n/a	GoodResponse	1	n/a	n/a	8	69	Fixation	Win	True
656.616	0.23	Win2	0.6429	0.002	Yes	3.232	-0.002	4.0	GoodResponse	1	0.175	655.791	8	69	Target	Win	True
656.791	0.3	Win2	0.6429	0.002	Yes	3.232	-0.002	4.0	GoodResponse	1	0.175	n/a	8	69	ButtonPress	Win	True
656.85	0.47	Win2	0.6429	n/a	Yes	3.232	n/a	n/a	GoodResponse	1	n/a	n/a	8	69	Blank	Win	True
657.316	1.45	Win2	0.6429	n/a	Yes	3.232	n/a	5.0	GoodResponse	1	0.018	656.334	8	69	Feedback	Win	True
658.766	3.232	Win2	0.6429	n/a	Yes	3.232	n/a	n/a	GoodResponse	1	0.0	n/a	8	69	ISIslide	Win	True
662.014	0.25	Lose2	0.6479	0.0	Yes	3.036	0.014	n/a	GoodResponse	0	n/a	n/a	8	70	Cue	AvoidedLoss	False
662.264	4.05	Lose2	0.6479	0.0	Yes	3.036	0.0	4.0	GoodResponse	0	3.913	665.177	8	70	Fixation	AvoidedLoss	False
666.177	0.3	Lose2	0.6479	0.0	Yes	3.036	0.0	4.0	GoodResponse	0	3.913	n/a	8	70	ButtonPress	AvoidedLoss	False
666.313	0.24	Lose2	0.6479	0.001	Yes	3.036	-0.001	4.0	GoodResponse	0	0.155	665.468	8	70	Target	AvoidedLoss	False
666.468	0.3	Lose2	0.6479	0.001	Yes	3.036	-0.001	4.0	GoodResponse	0	0.155	n/a	8	70	ButtonPress	AvoidedLoss	False
666.563	0.46	Lose2	0.6479	n/a	Yes	3.036	n/a	n/a	GoodResponse	0	n/a	n/a	8	70	Blank	AvoidedLoss	False
667.013	1.45	Lose2	0.6479	n/a	Yes	3.036	n/a	5.0	GoodResponse	0	0.028	666.041	8	70	Feedback	AvoidedLoss	False
668.462	3.036	Lose2	0.6479	n/a	Yes	3.036	n/a	4.0	GoodResponse	0	0.709	n/a	8	70	ISIslide	AvoidedLoss	False
671.511	0.25	Win2	0.6528	0.0	Yes	2.739	0.011	n/a	GoodResponse	1	n/a	n/a	9	71	Cue	Win	True
671.761	4.05	Win2	0.6528	0.0	Yes	2.739	0.0	n/a	GoodResponse	1	n/a	n/a	9	71	Fixation	Win	True
675.81	0.25	Win2	0.6528	0.001	Yes	2.739	-0.001	4.0	GoodResponse	1	0.145	674.955	9	71	Target	Win	True
675.955	0.3	Win2	0.6528	0.001	Yes	2.739	-0.001	4.0	GoodResponse	1	0.145	n/a	9	71	ButtonPress	Win	True
676.059	0.45	Win2	0.6528	n/a	Yes	2.739	n/a	n/a	GoodResponse	1	n/a	n/a	9	71	Blank	Win	True
676.509	1.45	Win2	0.6528	n/a	Yes	2.739	n/a	5.0	GoodResponse	1	0.044	675.553	9	71	Feedback	Win	True
677.959	2.739	Win2	0.6528	n/a	Yes	2.739	n/a	n/a	GoodResponse	1	0.0	n/a	9	71	ISIslide	Win	True
680.724	0.25	Win2	0.6575	0.001	Yes	2.776	0.024	n/a	GoodResponse	1	n/a	n/a	10	72	Cue	Win	True
680.974	4.1	Win2	0.6575	0.0	Yes	2.776	0.0	n/a	GoodResponse	1	n/a	n/a	10	72	Fixation	Win	True
685.073	0.26	Win2	0.6575	0.001	Yes	2.776	-0.001	4.0	GoodResponse	1	0.101	684.174	10	72	Target	Win	True
685.174	0.3	Win2	0.6575	0.001	Yes	2.776	-0.001	4.0	GoodResponse	1	0.101	n/a	10	72	ButtonPress	Win	True
685.339	0.44	Win2	0.6575	n/a	Yes	2.776	n/a	n/a	GoodResponse	1	n/a	n/a	10	72	Blank	Win	True
685.773	1.45	Win2	0.6575	n/a	Yes	2.776	n/a	5.0	GoodResponse	1	0.0	684.773	10	72	Feedback	Win	True
687.222	2.776	Win2	0.6575	n/a	Yes	2.776	n/a	n/a	GoodResponse	1	0.0	n/a	10	72	ISIslide	Win	True
690.021	0.25	Win2	0.6486	0.0	No	2.679	0.021	n/a	PrematurePress	0	n/a	n/a	10	73	Cue	MissedWin	True
690.271	4.0	Win2	0.6486	0.0	No	2.679	0.0	n/a	PrematurePress	0	n/a	n/a	10	73	Fixation	MissedWin	True
694.27	0.26	Win2	0.6486	0.001	No	2.679	-0.001	4.0	PrematurePress	0	0.053	693.323	10	73	Target	MissedWin	True
694.323	0.3	Win2	0.6486	0.001	No	2.679	-0.001	4.0	PrematurePress	0	0.053	n/a	10	73	ButtonPress	MissedWin	True
694.536	0.44	Win2	0.6486	n/a	No	2.679	n/a	n/a	PrematurePress	0	n/a	n/a	10	73	Blank	MissedWin	True
694.969	1.45	Win2	0.6486	n/a	No	2.679	n/a	5.0	PrematurePress	0	0.024	693.993	10	73	Feedback	MissedWin	True
696.419	2.679	Win2	0.6486	n/a	No	2.679	n/a	4.0	PrematurePress	0	0.806	n/a	10	73	ISIslide	MissedWin	True
699.101	0.25	Lose2	0.6533	0.0	Yes	2.649	0.001	n/a	GoodResponse	0	n/a	n/a	10	74	Cue	AvoidedLoss	False
699.351	4.05	Lose2	0.6533	0.0	Yes	2.649	0.0	4.0	GoodResponse	0	2.831	701.182	10	74	Fixation	AvoidedLoss	False
702.182	0.3	Lose2	0.6533	0.0	Yes	2.649	0.0	4.0	GoodResponse	0	2.831	n/a	10	74	ButtonPress	AvoidedLoss	False
703.4	0.27	Lose2	0.6533	0.001	Yes	2.649	-0.001	4.0	GoodResponse	0	0.131	702.531	10	74	Target	AvoidedLoss	False
703.531	0.3	Lose2	0.6533	0.001	Yes	2.649	-0.001	4.0	GoodResponse	0	0.131	n/a	10	74	ButtonPress	AvoidedLoss	False
703.666	0.43	Lose2	0.6533	n/a	Yes	2.649	n/a	n/a	GoodResponse	0	n/a	n/a	10	74	Blank	AvoidedLoss	False
704.1	1.45	Lose2	0.6533	n/a	Yes	2.649	n/a	5.0	GoodResponse	0	0.015	703.115	10	74	Feedback	AvoidedLoss	False
705.549	2.649	Lose2	0.6533	n/a	Yes	2.649	n/a	n/a	GoodResponse	0	0.0	n/a	10	74	ISIslide	AvoidedLoss	False
708.215	0.25	Lose2	0.6579	0.0	Yes	2.935	0.015	n/a	GoodResponse	0	n/a	n/a	10	75	Cue	AvoidedLoss	True
708.465	3.95	Lose2	0.6579	0.0	Yes	2.935	0.0	n/a	GoodResponse	0	n/a	n/a	10	75	Fixation	AvoidedLoss	True
712.413	0.28	Lose2	0.6579	0.002	Yes	2.935	-0.002	4.0	GoodResponse	0	0.221	711.634	10	75	Target	AvoidedLoss	True
712.634	0.3	Lose2	0.6579	0.002	Yes	2.935	-0.002	4.0	GoodResponse	0	0.221	n/a	10	75	ButtonPress	AvoidedLoss	True
712.697	0.42	Lose2	0.6579	n/a	Yes	2.935	n/a	n/a	GoodResponse	0	n/a	n/a	10	75	Blank	AvoidedLoss	True
713.113	1.45	Lose2	0.6579	n/a	Yes	2.935	n/a	5.0	GoodResponse	0	0.025	712.138	10	75	Feedback	AvoidedLoss	True
714.563	2.935	Lose2	0.6579	n/a	Yes	2.935	n/a	n/a	GoodResponse	0	0.0	n/a	10	75	ISIslide	AvoidedLoss	True
717.511	0.25	Control	0.6494	0.001	No	3.239	0.011	n/a	PrematurePress	0	n/a	n/a	10	76	Cue	Neutral	True
717.761	4.05	Control	0.6494	0.0	No	3.239	0.0	n/a	PrematurePress	0	n/a	n/a	10	76	Fixation	Neutral	True
721.81	0.28	Control	0.6494	0.001	No	3.239	-0.001	4.0	PrematurePress	0	0.097	720.907	10	76	Target	Neutral	True
721.907	0.3	Control	0.6494	0.001	No	3.239	-0.001	4.0	PrematurePress	0	0.097	n/a	10	76	ButtonPress	Neutral	True
722.093	0.42	Control	0.6494	n/a	No	3.239	n/a	n/a	PrematurePress	0	n/a	n/a	10	76	Blank	Neutral	True
722.51	1.45	Control	0.6494	n/a	No	3.239	n/a	5.0	PrematurePress	0	0.043	721.553	10	76	Feedback	Neutral	True
723.959	3.239	Control	0.6494	n/a	No	3.239	n/a	n/a	PrematurePress	0	0.0	n/a	10	76	ISIslide	Neutral	True
727.225	0.25	Lose2	0.6537999999999999	0.0	Yes	2.575	0.025	n/a	GoodResponse	0	n/a	n/a	10	77	Cue	AvoidedLoss	True
727.475	3.95	Lose2	0.6537999999999999	0.0	Yes	2.575	0.0	n/a	GoodResponse	0	n/a	n/a	10	77	Fixation	AvoidedLoss	True
731.423	0.29	Lose2	0.6537999999999999	0.002	Yes	2.575	-0.002	4.0	GoodResponse	0	0.166	730.589	10	77	Target	AvoidedLoss	True
731.589	0.3	Lose2	0.6537999999999999	0.002	Yes	2.575	-0.002	4.0	GoodResponse	0	0.166	n/a	10	77	ButtonPress	AvoidedLoss	True
731.723	0.41	Lose2	0.6537999999999999	n/a	Yes	2.575	n/a	n/a	GoodResponse	0	n/a	n/a	10	77	Blank	AvoidedLoss	True
732.123	1.45	Lose2	0.6537999999999999	n/a	Yes	2.575	n/a	5.0	GoodResponse	0	0.04	731.163	10	77	Feedback	AvoidedLoss	True
733.573	2.575	Lose2	0.6537999999999999	n/a	Yes	2.575	n/a	n/a	GoodResponse	0	0.0	n/a	10	77	ISIslide	AvoidedLoss	True
