onset	duration	cue_type	current_mean_accuracy	duration_error	is_hit	isi_adjusted	onset_delay	response	response_type	reward	rt	rt_time	total_reward	trial_number	trial_phase	trial_type	one_press
11.111	0.25	Control	1.0	0.0	Yes	2.939	0.011	n/a	GoodResponse	0	n/a	n/a	0	0	Cue	Neutral	True
11.361	3.85	Control	1.0	0.0	Yes	2.939	0.0	n/a	GoodResponse	0	n/a	n/a	0	0	Fixation	Neutral	True
15.21	0.4	Control	1.0	0.001	Yes	2.939	-0.001	2.0	GoodResponse	0	0.215	14.425	0	0	Target	Neutral	True
15.425	0.3	Control	1.0	0.001	Yes	2.939	-0.001	2.0	GoodResponse	0	0.215	n/a	0	0	ButtonPress	Neutral	True
15.61	0.3	Control	1.0	n/a	Yes	2.939	n/a	n/a	GoodResponse	0	n/a	n/a	0	0	Blank	Neutral	True
15.909	1.45	Control	1.0	n/a	Yes	2.939	n/a	5.0	GoodResponse	0	0.017	14.926	0	0	Feedback	Neutral	True
17.359	2.939	Control	1.0	n/a	Yes	2.939	n/a	n/a	GoodResponse	0	0.0	n/a	0	0	ISIslide	Neutral	True
20.325	0.25	Lose2	1.0	0.0	Yes	2.775	0.025	n/a	GoodResponse	0	n/a	n/a	0	1	Cue	AvoidedLoss	True
20.574	4.0	Lose2	1.0	0.001	Yes	2.775	-0.001	n/a	GoodResponse	0	n/a	n/a	0	1	Fixation	AvoidedLoss	True
24.573	0.39	Lose2	1.0	0.002	Yes	2.775	-0.002	2.0	GoodResponse	0	0.233	23.806	0	1	Target	AvoidedLoss	True
24.806	0.3	Lose2	1.0	0.002	Yes	2.775	-0.002	2.0	GoodResponse	0	0.233	n/a	0	1	ButtonPress	AvoidedLoss	True
24.973	0.31	Lose2	1.0	n/a	Yes	2.775	n/a	n/a	GoodResponse	0	n/a	n/a	0	1	Blank	AvoidedLoss	True
25.273	1.45	Lose2	1.0	n/a	Yes	2.775	n/a	5.0	GoodResponse	0	0.019	24.292	0	1	Feedback	AvoidedLoss	True
26.722	2.775	Lose2	1.0	n/a	Yes	2.775	n/a	n/a	GoodResponse	0	0.0	n/a	0	1	ISIslide	AvoidedLoss	True
29.521	0.25	Control	1.0	0.0	Yes	2.579	0.021	n/a	GoodResponse	0	n/a	n/a	0	2	Cue	Neutral	True
29.771	4.1	Control	1.0	0.0	Yes	2.579	0.0	n/a	GoodResponse	0	n/a	n/a	0	2	Fixation	Neutral	True
33.87	0.38	Control	1.0	0.001	Yes	2.579	-0.001	2.0	GoodResponse	0	0.231	33.101	0	2	Target	Neutral	True
34.101	0.3	Control	1.0	0.001	Yes	2.579	-0.001	2.0	GoodResponse	0	0.231	n/a	0	2	ButtonPress	Neutral	True
34.253	0.32	Control	1.0	n/a	Yes	2.579	n/a	n/a	GoodResponse	0	n/a	n/a	0	2	Blank	Neutral	True
34.57	1.45	Control	1.0	n/a	Yes	2.579	n/a	5.0	GoodResponse	0	0.039	33.609	0	2	Feedback	Neutral	True
36.019	2.579	Control	1.0	n/a	Yes	2.579	n/a	n/a	GoodResponse	0	0.0	n/a	0	2	ISIslide	Neutral	True
38.668	0.25	Win2	1.0	0.0	Yes	2.782	0.068	n/a	GoodResponse	1	n/a	n/a	1	3	Cue	Win	True
38.918	3.95	Win2	1.0	0.0	Yes	2.782	0.0	n/a	GoodResponse	1	n/a	n/a	1	3	Fixation	Win	True
42.867	0.37	Win2	1.0	0.001	Yes	2.782	-0.001	2.0	GoodResponse	1	0.248	42.115	1	3	Target	Win	True
43.115	0.3	Win2	1.0	0.001	Yes	2.782	-0.001	2.0	GoodResponse	1	0.248	n/a	1	3	ButtonPress	Win	True
43.25	0.33	Win2	1.0	n/a	Yes	2.782	n/a	n/a	GoodResponse	1	n/a	n/a	1	3	Blank	Win	True
43.566	1.45	Win2	1.0	n/a	Yes	2.782	n/a	5.0	GoodResponse	1	0.019	42.585	1	3	Feedback	Win	True
45.016	2.782	Win2	1.0	n/a	Yes	2.782	n/a	n/a	GoodResponse	1	0.0	n/a	1	3	ISIslide	Win	True
47.815	0.25	Win2	1.0	0.0	Yes	3.285	0.015	n/a	GoodResponse	1	n/a	n/a	2	4	Cue	Win	True
48.065	4.0	Win2	1.0	0.0	Yes	3.285	0.0	n/a	GoodResponse	1	n/a	n/a	2	4	Fixation	Win	True
52.063	0.36	Win2	1.0	0.002	Yes	3.285	-0.002	2.0	GoodResponse	1	0.236	51.299	2	4	Target	Win	True
52.299	0.3	Win2	1.0	0.002	Yes	3.285	-0.002	2.0	GoodResponse	1	0.236	n/a	2	4	ButtonPress	Win	True
52.43	0.34	Win2	1.0	n/a	Yes	3.285	n/a	n/a	GoodResponse	1	n/a	n/a	2	4	Blank	Win	True
52.763	1.45	Win2	1.0	n/a	Yes	3.285	n/a	5.0	GoodResponse	1	0.04	51.803	2	4	Feedback	Win	True
54.213	3.285	Win2	1.0	n/a	Yes	3.285	n/a	n/a	GoodResponse	1	0.0	n/a	2	4	ISIslide	Win	True
57.528	0.25	Win2	1.0	0.0	Yes	2.772	0.028	n/a	GoodResponse	1	n/a	n/a	3	5	Cue	Win	True
57.778	4.0	Win2	1.0	0.0	Yes	2.772	0.0	n/a	GoodResponse	1	n/a	n/a	3	5	Fixation	Win	True
61.777	0.35	Win2	1.0	0.001	Yes	2.772	-0.001	2.0	GoodResponse	1	0.313	61.09	3	5	Target	Win	True
62.09	0.3	Win2	1.0	0.001	Yes	2.772	-0.001	2.0	GoodResponse	1	0.313	n/a	3	5	ButtonPress	Win	True
62.127	0.35	Win2	1.0	n/a	Yes	2.772	n/a	n/a	GoodResponse	1	n/a	n/a	3	5	Blank	Win	True
62.476	1.45	Win2	1.0	n/a	Yes	2.772	n/a	5.0	GoodResponse	1	0.035	61.511	3	5	Feedback	Win	True
63.926	2.772	Win2	1.0	n/a	Yes	2.772	n/a	n/a	GoodResponse	1	0.0	n/a	3	5	ISIslide	Win	True
66.725	0.25	Lose2	0.8571	0.0	No	2.725	0.025	n/a	NoResponse	-1	n/a	n/a	2	6	Cue	Loss	True
66.975	3.95	Lose2	0.8571	0.0	No	2.725	0.0	n/a	NoResponse	-1	n/a	n/a	2	6	Fixation	Loss	True
70.924	0.34	Lose2	0.8571	0.001	No	2.725	-0.001	2.0	NoResponse	-1	0.362	70.286	2	6	Target	Loss	True
71.273	0.36	Lose2	0.8571	n/a	No	2.725	n/a	n/a	NoResponse	-1	n/a	n/a	2	6	Blank	Loss	True
71.286	0.3	Lose2	0.8571	0.001	No	2.725	-0.001	2.0	NoResponse	-1	0.362	n/a	2	6	ButtonPress	Loss	True
71.623	1.45	Lose2	0.8571	n/a	No	2.725	n/a	5.0	NoResponse	-1	0.01	70.633	2	6	Feedback	Loss	True
73.073	2.725	Lose2	0.8571	n/a	No	2.725	n/a	n/a	NoResponse	-1	0.0	n/a	2	6	ISIslide	Loss	True
75.822	0.25	Lose2	0.875	0.0	Yes	4.028	0.022	n/a	GoodResponse	0	n/a	n/a	2	7	Cue	AvoidedLoss	True
76.072	4.05	Lose2	0.875	0.0	Yes	4.028	0.0	n/a	GoodResponse	0	n/a	n/a	2	7	Fixation	AvoidedLoss	True
80.12	0.33	Lose2	0.875	0.002	Yes	4.028	-0.002	2.0	GoodResponse	0	0.25	79.37	2	7	Target	AvoidedLoss	True
80.37	0.3	Lose2	0.875	0.002	Yes	4.028	-0.002	2.0	GoodResponse	0	0.25	n/a	2	7	ButtonPress	AvoidedLoss	True
80.454	0.37	Lose2	0.875	n/a	Yes	4.028	n/a	n/a	GoodResponse	0	n/a	n/a	2	7	Blank	AvoidedLoss	True
80.82	1.45	Lose2	0.875	n/a	Yes	4.028	n/a	5.0	GoodResponse	0	0.033	79.853	2	7	Feedback	AvoidedLoss	True
82.27	4.028	Lose2	0.875	n/a	Yes	4.028	n/a	n/a	GoodResponse	0	0.0	n/a	2	7	ISIslide	AvoidedLoss	True
86.318	0.25	Lose2	0.8889	0.0	Yes	3.032	0.018	n/a	GoodResponse	0	n/a	n/a	2	8	Cue	AvoidedLoss	True
86.568	3.95	Lose2	0.8889	0.0	Yes	3.032	0.0	n/a	GoodResponse	0	n/a	n/a	2	8	Fixation	AvoidedLoss	True
90.517	0.32	Lose2	0.8889	0.001	Yes	3.032	-0.001	2.0	GoodResponse	0	0.225	89.742	2	8	Target	AvoidedLoss	True
90.742	0.3	Lose2	0.8889	0.001	Yes	3.032	-0.001	2.0	GoodResponse	0	0.225	n/a	2	8	ButtonPress	AvoidedLoss	True
90.85	0.38	Lose2	0.8889	n/a	Yes	3.032	n/a	n/a	GoodResponse	0	n/a	n/a	2	8	Blank	AvoidedLoss	True
91.216	1.45	Lose2	0.8889	n/a	Yes	3.032	n/a	5.0	GoodResponse	0	0.027	90.243	2	8	Feedback	AvoidedLoss	True
92.666	3.032	Lose2	0.8889	n/a	Yes	3.032	n/a	n/a	GoodResponse	0	0.0	n/a	2	8	ISIslide	AvoidedLoss	True
95.715	0.25	Lose2	0.9	0.0	Yes	3.135	0.015	n/a	GoodResponse	0	n/a	n/a	2	9	Cue	AvoidedLoss	True
95.965	3.95	Lose2	0.9	0.0	Yes	3.135	0.0	n/a	GoodResponse	0	n/a	n/a	2	9	Fixation	AvoidedLoss	True
99.913	0.31	Lose2	0.9	0.002	Yes	3.135	-0.002	2.0	GoodResponse	0	0.23	99.143	2	9	Target	AvoidedLoss	True
100.143	0.3	Lose2	0.9	0.002	Yes	3.135	-0.002	2.0	GoodResponse	0	0.23	n/a	2	9	ButtonPress	AvoidedLoss	True
100.23	0.39	Lose2	0.9	n/a	Yes	3.135	n/a	n/a	GoodResponse	0	n/a	n/a	2	9	Blank	AvoidedLoss	True
100.613	1.45	Lose2	0.9	n/a	Yes	3.135	n/a	5.0	GoodResponse	0	0.0	99.613	2	9	Feedback	AvoidedLoss	True
102.063	3.135	Lose2	0.9	n/a	Yes	3.135	n/a	n/a	GoodResponse	0	0.0	n/a	2	9	ISIslide	AvoidedLoss	True
105.228	0.25	Control	0.9091	0.0	Yes	3.272	0.028	n/a	GoodResponse	0	n/a	n/a	2	10	Cue	Neutral	True
105.478	4.0	Control	0.9091	0.0	Yes	3.272	0.0	n/a	GoodResponse	0	n/a	n/a	2	10	Fixation	Neutral	True
109.477	0.3	Control	0.9091	0.001	Yes	3.272	-0.001	2.0	GoodResponse	0	0.233	108.71	2	10	Target	Neutral	True
109.71	0.3	Control	0.9091	0.001	Yes	3.272	-0.001	2.0	GoodResponse	0	0.233	n/a	2	10	ButtonPress	Neutral	True
109.777	0.4	Control	0.9091	n/a	Yes	3.272	n/a	n/a	GoodResponse	0	n/a	n/a	2	10	Blank	Neutral	True
110.177	1.45	Control	0.9091	n/a	Yes	3.272	n/a	5.0	GoodResponse	0	0.0	109.177	2	10	Feedback	Neutral	True
111.626	3.272	Control	0.9091	n/a	Yes	3.272	n/a	n/a	GoodResponse	0	0.0	n/a	2	10	ISIslide	Neutral	True
114.925	0.25	Lose2	0.9167000000000001	0.0	Yes	2.725	0.025	n/a	GoodResponse	0	n/a	n/a	2	11	Cue	AvoidedLoss	True
115.175	4.05	Lose2	0.9167000000000001	0.0	Yes	2.725	0.0	n/a	GoodResponse	0	n/a	n/a	2	11	Fixation	AvoidedLoss	True
119.223	0.29	Lose2	0.9167000000000001	0.002	Yes	2.725	-0.002	2.0	GoodResponse	0	0.238	118.461	2	11	Target	AvoidedLoss	True
119.461	0.3	Lose2	0.9167000000000001	0.002	Yes	2.725	-0.002	2.0	GoodResponse	0	0.238	n/a	2	11	ButtonPress	AvoidedLoss	True
119.523	0.41	Lose2	0.9167000000000001	n/a	Yes	2.725	n/a	n/a	GoodResponse	0	n/a	n/a	2	11	Blank	AvoidedLoss	True
119.923	1.45	Lose2	0.9167000000000001	n/a	Yes	2.725	n/a	5.0	GoodResponse	0	0.002	118.925	2	11	Feedback	AvoidedLoss	True
121.373	2.725	Lose2	0.9167000000000001	n/a	Yes	2.725	n/a	n/a	GoodResponse	0	0.0	n/a	2	11	ISIslide	AvoidedLoss	True
124.122	0.25	Control	0.9231	0.0	Yes	2.978	0.022	n/a	GoodResponse	0	n/a	n/a	2	12	Cue	Neutral	True
124.372	3.9	Control	0.9231	0.0	Yes	2.978	0.0	n/a	GoodResponse	0	n/a	n/a	2	12	Fixation	Neutral	True
128.27	0.28	Control	0.9231	0.002	Yes	2.978	-0.002	2.0	GoodResponse	0	0.226	127.496	2	12	Target	Neutral	True
128.496	0.3	Control	0.9231	0.002	Yes	2.978	-0.002	2.0	GoodResponse	0	0.226	n/a	2	12	ButtonPress	Neutral	True
128.553	0.42	Control	0.9231	n/a	Yes	2.978	n/a	n/a	GoodResponse	0	n/a	n/a	2	12	Blank	Neutral	True
128.97	1.45	Control	0.9231	n/a	Yes	2.978	n/a	5.0	GoodResponse	0	0.029	127.999	2	12	Feedback	Neutral	True
130.419	2.978	Control	0.9231	n/a	Yes	2.978	n/a	n/a	GoodResponse	0	0.0	n/a	2	12	ISIslide	Neutral	True
133.418	0.25	Control	0.9286	0.0	Yes	2.782	0.018	n/a	GoodResponse	0	n/a	n/a	2	13	Cue	Neutral	True
133.668	4.0	Control	0.9286	0.0	Yes	2.782	0.0	n/a	GoodResponse	0	n/a	n/a	2	13	Fixation	Neutral	True
137.667	0.27	Control	0.9286	0.001	Yes	2.782	-0.001	2.0	GoodResponse	0	0.225	136.892	2	13	Target	Neutral	True
137.892	0.3	Control	0.9286	0.001	Yes	2.782	-0.001	2.0	GoodResponse	0	0.225	n/a	2	13	ButtonPress	Neutral	True
137.934	0.43	Control	0.9286	n/a	Yes	2.782	n/a	n/a	GoodResponse	0	n/a	n/a	2	13	Blank	Neutral	True
138.367	1.45	Control	0.9286	n/a	Yes	2.782	n/a	5.0	GoodResponse	0	0.046	137.413	2	13	Feedback	Neutral	True
139.816	2.782	Control	0.9286	n/a	Yes	2.782	n/a	n/a	GoodResponse	0	0.0	n/a	2	13	ISIslide	Neutral	True
142.632	0.25	Win2	0.9333	0.0	Yes	2.668	0.032	n/a	GoodResponse	1	n/a	n/a	3	14	Cue	Win	True
142.882	4.1	Win2	0.9333	0.0	Yes	2.668	0.0	n/a	GoodResponse	1	n/a	n/a	3	14	Fixation	Win	True
146.98	0.26	Win2	0.9333	0.002	Yes	2.668	-0.002	2.0	GoodResponse	1	0.231	146.211	3	14	Target	Win	True
147.211	0.3	Win2	0.9333	0.002	Yes	2.668	-0.002	2.0	GoodResponse	1	0.231	n/a	3	14	ButtonPress	Win	True
147.247	0.44	Win2	0.9333	n/a	Yes	2.668	n/a	n/a	GoodResponse	1	n/a	n/a	3	14	Blank	Win	True
147.68	1.45	Win2	0.9333	n/a	Yes	2.668	n/a	5.0	GoodResponse	1	0.002	146.682	3	14	Feedback	Win	True
149.13	2.668	Win2	0.9333	n/a	Yes	2.668	n/a	n/a	GoodResponse	1	0.0	n/a	3	14	ISIslide	Win	True
151.829	0.25	Control	0.875	0.0	No	2.971	0.029	n/a	NoResponse	0	n/a	n/a	3	15	Cue	Neutral	True
152.079	4.0	Control	0.875	0.0	No	2.971	0.0	n/a	NoResponse	0	n/a	n/a	3	15	Fixation	Neutral	True
156.077	0.25	Control	0.875	0.002	No	2.971	-0.002	2.0	NoResponse	0	0.26	155.337	3	15	Target	Neutral	True
156.327	0.45	Control	0.875	n/a	No	2.971	n/a	n/a	NoResponse	0	n/a	n/a	3	15	Blank	Neutral	True
156.337	0.3	Control	0.875	0.002	No	2.971	-0.002	2.0	NoResponse	0	0.26	n/a	3	15	ButtonPress	Neutral	True
156.777	1.45	Control	0.875	n/a	No	2.971	n/a	5.0	NoResponse	0	0.026	155.803	3	15	Feedback	Neutral	True
158.226	2.971	Control	0.875	n/a	No	2.971	n/a	n/a	NoResponse	0	0.0	n/a	3	15	ISIslide	Neutral	True
161.225	0.25	Win2	0.8234999999999999	0.0	No	2.875	0.025	n/a	LatePress	0	n/a	n/a	3	16	Cue	MissedWin	True
161.475	4.0	Win2	0.8234999999999999	0.0	No	2.875	0.0	n/a	LatePress	0	n/a	n/a	3	16	Fixation	MissedWin	True
165.474	0.24	Win2	0.8234999999999999	0.001	No	2.875	-0.001	2.0	LatePress	0	0.244	164.718	3	16	Target	MissedWin	True
165.718	0.3	Win2	0.8234999999999999	0.001	No	2.875	-0.001	2.0	LatePress	0	0.244	n/a	3	16	ButtonPress	MissedWin	True
165.724	0.46	Win2	0.8234999999999999	n/a	No	2.875	n/a	n/a	LatePress	0	n/a	n/a	3	16	Blank	MissedWin	True
166.174	1.45	Win2	0.8234999999999999	n/a	No	2.875	n/a	5.0	LatePress	0	0.0	165.174	3	16	Feedback	MissedWin	True
167.623	2.875	Win2	0.8234999999999999	n/a	No	2.875	n/a	n/a	LatePress	0	0.0	n/a	3	16	ISIslide	MissedWin	True
170.522	0.25	Lose2	0.7778	0.0	No	2.728	0.022	n/a	NoResponse	-1	n/a	n/a	2	17	Cue	Loss	True
170.772	3.95	Lose2	0.7778	0.0	No	2.728	0.0	n/a	NoResponse	-1	n/a	n/a	2	17	Fixation	Loss	True
174.721	0.23	Lose2	0.7778	0.001	No	2.728	-0.001	2.0	NoResponse	-1	0.233	173.954	2	17	Target	Loss	True
174.954	0.47	Lose2	0.7778	n/a	No	2.728	n/a	n/a	NoResponse	-1	n/a	n/a	2	17	Blank	Loss	True
174.954	0.3	Lose2	0.7778	0.001	No	2.728	-0.001	2.0	NoResponse	-1	0.233	n/a	2	17	ButtonPress	Loss	True
175.42	1.45	Lose2	0.7778	n/a	No	2.728	n/a	5.0	NoResponse	-1	0.017	174.437	2	17	Feedback	Loss	True
176.87	2.728	Lose2	0.7778	n/a	No	2.728	n/a	n/a	NoResponse	-1	0.0	n/a	2	17	ISIslide	Loss	True
179.619	0.25	Lose2	0.7368000000000001	0.0	No	2.731	0.019	n/a	LatePress	-1	n/a	n/a	1	18	Cue	Loss	True
179.869	4.05	Lose2	0.7368000000000001	0.0	No	2.731	0.0	n/a	LatePress	-1	n/a	n/a	1	18	Fixation	Loss	True
183.917	0.22	Lose2	0.7368000000000001	0.002	No	2.731	-0.002	2.0	LatePress	-1	0.233	183.15	1	18	Target	Loss	True
184.15	0.3	Lose2	0.7368000000000001	0.002	No	2.731	-0.002	2.0	LatePress	-1	0.233	n/a	1	18	ButtonPress	Loss	True
184.151	0.48	Lose2	0.7368000000000001	n/a	No	2.731	n/a	n/a	LatePress	-1	n/a	n/a	1	18	Blank	Loss	True
184.617	1.45	Lose2	0.7368000000000001	n/a	No	2.731	n/a	5.0	LatePress	-1	0.04	183.657	1	18	Feedback	Loss	True
186.067	2.731	Lose2	0.7368000000000001	n/a	No	2.731	n/a	n/a	LatePress	-1	0.0	n/a	1	18	ISIslide	Loss	True
188.816	0.25	Control	0.7	0.0	No	2.934	0.016	n/a	NoResponse	0	n/a	n/a	1	19	Cue	Neutral	True
189.066	3.95	Control	0.7	0.0	No	2.934	0.0	n/a	NoResponse	0	n/a	n/a	1	19	Fixation	Neutral	True
193.014	0.21	Control	0.7	0.002	No	2.934	-0.002	2.0	NoResponse	0	0.218	192.232	1	19	Target	Neutral	True
193.231	0.49	Control	0.7	n/a	No	2.934	n/a	n/a	NoResponse	0	n/a	n/a	1	19	Blank	Neutral	True
193.232	0.3	Control	0.7	0.002	No	2.934	-0.002	2.0	NoResponse	0	0.218	n/a	1	19	ButtonPress	Neutral	True
193.714	1.45	Control	0.7	n/a	No	2.934	n/a	5.0	NoResponse	0	0.016	192.73	1	19	Feedback	Neutral	True
195.164	2.934	Control	0.7	n/a	No	2.934	n/a	n/a	NoResponse	0	0.0	n/a	1	19	ISIslide	Neutral	True
198.129	0.25	Control	0.7143	0.0	Yes	2.621	0.029	n/a	GoodResponse	0	n/a	n/a	1	20	Cue	Neutral	True
198.379	4.05	Control	0.7143	0.0	Yes	2.621	0.0	n/a	GoodResponse	0	n/a	n/a	1	20	Fixation	Neutral	True
202.428	0.2	Control	0.7143	0.001	Yes	2.621	-0.001	2.0	GoodResponse	0	0.191	201.619	1	20	Target	Neutral	True
202.619	0.3	Control	0.7143	0.001	Yes	2.621	-0.001	2.0	GoodResponse	0	0.191	n/a	1	20	ButtonPress	Neutral	True
202.628	0.5	Control	0.7143	n/a	Yes	2.621	n/a	n/a	GoodResponse	0	n/a	n/a	1	20	Blank	Neutral	True
203.127	1.45	Control	0.7143	n/a	Yes	2.621	n/a	5.0	GoodResponse	0	0.018	202.145	1	20	Feedback	Neutral	True
204.577	2.621	Control	0.7143	n/a	Yes	2.621	n/a	n/a	GoodResponse	0	0.0	n/a	1	20	ISIslide	Neutral	True
207.226	0.25	Control	0.6818000000000001	0.0	No	2.774	0.026	n/a	NoResponse	0	n/a	n/a	1	21	Cue	Neutral	True
207.476	4.1	Control	0.6818000000000001	0.0	No	2.774	0.0	n/a	NoResponse	0	n/a	n/a	1	21	Fixation	Neutral	True
211.574	0.19	Control	0.6818000000000001	0.002	No	2.774	-0.002	2.0	NoResponse	0	0.21	210.784	1	21	Target	Neutral	True
211.774	0.51	Control	0.6818000000000001	n/a	No	2.774	n/a	n/a	NoResponse	0	n/a	n/a	1	21	Blank	Neutral	True
211.784	0.3	Control	0.6818000000000001	0.002	No	2.774	-0.002	2.0	NoResponse	0	0.21	n/a	1	21	ButtonPress	Neutral	True
212.274	1.45	Control	0.6818000000000001	n/a	No	2.774	n/a	5.0	NoResponse	0	0.041	211.315	1	21	Feedback	Neutral	True
213.724	2.774	Control	0.6818000000000001	n/a	No	2.774	n/a	n/a	NoResponse	0	0.0	n/a	1	21	ISIslide	Neutral	True
216.523	0.25	Control	0.6522	0.0	No	2.777	0.023	n/a	NoResponse	0	n/a	n/a	1	22	Cue	Neutral	True
216.773	4.0	Control	0.6522	0.0	No	2.777	0.0	n/a	NoResponse	0	n/a	n/a	1	22	Fixation	Neutral	True
220.771	0.18	Control	0.6522	0.002	No	2.777	-0.002	2.0	NoResponse	0	0.224	219.995	1	22	Target	Neutral	True
220.955	0.52	Control	0.6522	n/a	No	2.777	n/a	n/a	NoResponse	0	n/a	n/a	1	22	Blank	Neutral	True
220.995	0.3	Control	0.6522	0.002	No	2.777	-0.002	2.0	NoResponse	0	0.224	n/a	1	22	ButtonPress	Neutral	True
221.471	1.45	Control	0.6522	n/a	No	2.777	n/a	5.0	NoResponse	0	0.015	220.486	1	22	Feedback	Neutral	True
222.921	2.777	Control	0.6522	n/a	No	2.777	n/a	n/a	NoResponse	0	0.0	n/a	1	22	ISIslide	Neutral	True
225.72	0.25	Control	0.625	0.0	No	2.78	0.02	n/a	NoResponse	0	n/a	n/a	1	23	Cue	Neutral	True
225.969	3.9	Control	0.625	0.001	No	2.78	-0.001	n/a	NoResponse	0	n/a	n/a	1	23	Fixation	Neutral	True
229.868	0.19	Control	0.625	0.002	No	2.78	-0.002	2.0	NoResponse	0	0.256	229.124	1	23	Target	Neutral	True
230.068	0.51	Control	0.625	n/a	No	2.78	n/a	n/a	NoResponse	0	n/a	n/a	1	23	Blank	Neutral	True
230.124	0.3	Control	0.625	0.002	No	2.78	-0.002	2.0	NoResponse	0	0.256	n/a	1	23	ButtonPress	Neutral	True
230.568	1.45	Control	0.625	n/a	No	2.78	n/a	5.0	NoResponse	0	0.04	229.608	1	23	Feedback	Neutral	True
232.017	2.78	Control	0.625	n/a	No	2.78	n/a	n/a	NoResponse	0	0.0	n/a	1	23	ISIslide	Neutral	True
234.816	0.25	Win2	0.64	0.0	Yes	3.134	0.016	n/a	GoodResponse	1	n/a	n/a	2	24	Cue	Win	True
235.066	3.95	Win2	0.64	0.0	Yes	3.134	0.0	n/a	GoodResponse	1	n/a	n/a	2	24	Fixation	Win	True
239.015	0.2	Win2	0.64	0.001	Yes	3.134	-0.001	2.0	GoodResponse	1	0.192	238.207	2	24	Target	Win	True
239.207	0.3	Win2	0.64	0.001	Yes	3.134	-0.001	2.0	GoodResponse	1	0.192	n/a	2	24	ButtonPress	Win	True
239.215	0.5	Win2	0.64	n/a	Yes	3.134	n/a	n/a	GoodResponse	1	n/a	n/a	2	24	Blank	Win	True
239.715	1.45	Win2	0.64	n/a	Yes	3.134	n/a	5.0	GoodResponse	1	0.015	238.73	2	24	Feedback	Win	True
241.164	3.134	Win2	0.64	n/a	Yes	3.134	n/a	n/a	GoodResponse	1	0.0	n/a	2	24	ISIslide	Win	True
244.33	0.25	Win2	0.6537999999999999	0.0	Yes	3.07	0.03	n/a	GoodResponse	1	n/a	n/a	3	25	Cue	Win	True
244.58	4.0	Win2	0.6537999999999999	0.0	Yes	3.07	0.0	n/a	GoodResponse	1	n/a	n/a	3	25	Fixation	Win	True
248.578	0.21	Win2	0.6537999999999999	0.002	Yes	3.07	-0.002	2.0	GoodResponse	1	0.199	247.777	3	25	Target	Win	True
248.777	0.3	Win2	0.6537999999999999	0.002	Yes	3.07	-0.002	2.0	GoodResponse	1	0.199	n/a	3	25	ButtonPress	Win	True
248.795	0.49	Win2	0.6537999999999999	n/a	Yes	3.07	n/a	n/a	GoodResponse	1	n/a	n/a	3	25	Blank	Win	True
249.278	1.45	Win2	0.6537999999999999	n/a	Yes	3.07	n/a	5.0	GoodResponse	1	0.013	248.291	3	25	Feedback	Win	True
250.727	3.07	Win2	0.6537999999999999	n/a	Yes	3.07	n/a	n/a	GoodResponse	1	0.0	n/a	3	25	ISIslide	Win	True
253.826	0.25	Win2	0.6667000000000001	0.0	Yes	2.924	0.026	n/a	GoodResponse	1	n/a	n/a	4	26	Cue	Win	True
254.076	3.95	Win2	0.6667000000000001	0.0	Yes	2.924	0.0	n/a	GoodResponse	1	n/a	n/a	4	26	Fixation	Win	True
258.025	0.22	Win2	0.6667000000000001	0.001	Yes	2.924	-0.001	2.0	GoodResponse	1	0.197	257.222	4	26	Target	Win	True
258.222	0.3	Win2	0.6667000000000001	0.001	Yes	2.924	-0.001	2.0	GoodResponse	1	0.197	n/a	4	26	ButtonPress	Win	True
258.242	0.48	Win2	0.6667000000000001	n/a	Yes	2.924	n/a	n/a	GoodResponse	1	n/a	n/a	4	26	Blank	Win	True
258.725	1.45	Win2	0.6667000000000001	n/a	Yes	2.924	n/a	5.0	GoodResponse	1	0.028	257.753	4	26	Feedback	Win	True
260.174	2.924	Win2	0.6667000000000001	n/a	Yes	2.924	n/a	n/a	GoodResponse	1	0.0	n/a	4	26	ISIslide	Win	True
263.123	0.25	Lose2	0.6786	0.0	Yes	2.827	0.023	n/a	GoodResponse	0	n/a	n/a	4	27	Cue	AvoidedLoss	True
263.373	4.05	Lose2	0.6786	0.0	Yes	2.827	0.0	n/a	GoodResponse	0	n/a	n/a	4	27	Fixation	AvoidedLoss	True
267.422	0.21	Lose2	0.6786	0.001	Yes	2.827	-0.001	2.0	GoodResponse	0	0.185	266.607	4	27	Target	AvoidedLoss	True
267.607	0.3	Lose2	0.6786	0.001	Yes	2.827	-0.001	2.0	GoodResponse	0	0.185	n/a	4	27	ButtonPress	AvoidedLoss	True
267.638	0.49	Lose2	0.6786	n/a	Yes	2.827	n/a	n/a	GoodResponse	0	n/a	n/a	4	27	Blank	AvoidedLoss	True
268.121	1.45	Lose2	0.6786	n/a	Yes	2.827	n/a	5.0	GoodResponse	0	0.001	267.122	4	27	Feedback	AvoidedLoss	True
269.571	2.827	Lose2	0.6786	n/a	Yes	2.827	n/a	n/a	GoodResponse	0	0.0	n/a	4	27	ISIslide	AvoidedLoss	True
272.42	0.25	Control	0.6552	0.0	No	2.83	0.02	n/a	NoResponse	0	n/a	n/a	4	28	Cue	Neutral	True
272.67	4.05	Control	0.6552	0.0	No	2.83	0.0	n/a	NoResponse	0	n/a	n/a	4	28	Fixation	Neutral	True
276.718	0.2	Control	0.6552	0.002	No	2.83	-0.002	2.0	NoResponse	0	0.271	275.989	4	28	Target	Neutral	True
276.918	0.5	Control	0.6552	n/a	No	2.83	n/a	n/a	NoResponse	0	n/a	n/a	4	28	Blank	Neutral	True
276.989	0.3	Control	0.6552	0.002	No	2.83	-0.002	2.0	NoResponse	0	0.271	n/a	4	28	ButtonPress	Neutral	True
277.418	1.45	Control	0.6552	n/a	No	2.83	n/a	5.0	NoResponse	0	0.018	276.436	4	28	Feedback	Neutral	True
278.868	2.83	Control	0.6552	n/a	No	2.83	n/a	n/a	NoResponse	0	0.0	n/a	4	28	ISIslide	Neutral	True
281.717	0.25	Lose2	0.6667000000000001	0.0	Yes	2.833	0.017	n/a	GoodResponse	0	n/a	n/a	4	29	Cue	AvoidedLoss	True
281.967	3.95	Lose2	0.6667000000000001	0.0	Yes	2.833	0.0	n/a	GoodResponse	0	n/a	n/a	4	29	Fixation	AvoidedLoss	True
285.915	0.2	Lose2	0.6667000000000001	0.002	Yes	2.833	-0.002	2.0	GoodResponse	0	0.177	285.092	4	29	Target	AvoidedLoss	True
286.092	0.3	Lose2	0.6667000000000001	0.002	Yes	2.833	-0.002	2.0	GoodResponse	0	0.177	n/a	4	29	ButtonPress	AvoidedLoss	True
286.115	0.5	Lose2	0.6667000000000001	n/a	Yes	2.833	n/a	n/a	GoodResponse	0	n/a	n/a	4	29	Blank	AvoidedLoss	True
286.615	1.45	Lose2	0.6667000000000001	n/a	Yes	2.833	n/a	5.0	GoodResponse	0	0.041	285.656	4	29	Feedback	AvoidedLoss	True
288.064	2.833	Lose2	0.6667000000000001	n/a	Yes	2.833	n/a	n/a	GoodResponse	0	0.0	n/a	4	29	ISIslide	AvoidedLoss	True
290.913	0.25	Win2	0.6452	0.001	No	2.787	0.013	n/a	NoResponse	0	n/a	n/a	4	30	Cue	MissedWin	True
291.163	3.9	Win2	0.6452	0.0	No	2.787	0.0	n/a	NoResponse	0	n/a	n/a	4	30	Fixation	MissedWin	True
295.062	0.19	Win2	0.6452	0.001	No	2.787	-0.001	2.0	NoResponse	0	0.241	294.303	4	30	Target	MissedWin	True
295.262	0.51	Win2	0.6452	n/a	No	2.787	n/a	n/a	NoResponse	0	n/a	n/a	4	30	Blank	MissedWin	True
295.303	0.3	Win2	0.6452	0.001	No	2.787	-0.001	2.0	NoResponse	0	0.241	n/a	4	30	ButtonPress	MissedWin	True
295.762	1.45	Win2	0.6452	n/a	No	2.787	n/a	5.0	NoResponse	0	0.016	294.778	4	30	Feedback	MissedWin	True
297.211	2.787	Win2	0.6452	n/a	No	2.787	n/a	n/a	NoResponse	0	0.0	n/a	4	30	ISIslide	MissedWin	True
300.027	0.25	Lose2	0.625	0.0	No	2.823	0.027	n/a	NoResponse	-1	n/a	n/a	3	31	Cue	Loss	True
300.294	4.05	Lose2	0.625	0.0	No	2.823	0.017	n/a	NoResponse	-1	n/a	n/a	3	31	Fixation	Loss	True
304.325	0.2	Lose2	0.625	0.002	No	2.823	-0.002	2.0	NoResponse	-1	0.214	303.539	3	31	Target	Loss	True
304.525	0.5	Lose2	0.625	n/a	No	2.823	n/a	n/a	NoResponse	-1	n/a	n/a	3	31	Blank	Loss	True
304.539	0.3	Lose2	0.625	0.002	No	2.823	-0.002	2.0	NoResponse	-1	0.214	n/a	3	31	ButtonPress	Loss	True
305.025	1.45	Lose2	0.625	n/a	No	2.823	n/a	5.0	NoResponse	-1	0.022	304.047	3	31	Feedback	Loss	True
306.475	2.823	Lose2	0.625	n/a	No	2.823	n/a	n/a	NoResponse	-1	0.0	n/a	3	31	ISIslide	Loss	True
309.324	0.25	Lose2	0.6364	0.0	Yes	2.626	0.024	n/a	GoodResponse	0	n/a	n/a	3	32	Cue	AvoidedLoss	True
309.574	4.15	Lose2	0.6364	0.0	Yes	2.626	0.0	n/a	GoodResponse	0	n/a	n/a	3	32	Fixation	AvoidedLoss	True
313.722	0.21	Lose2	0.6364	0.002	Yes	2.626	-0.002	2.0	GoodResponse	0	0.208	312.93	3	32	Target	AvoidedLoss	True
313.93	0.3	Lose2	0.6364	0.002	Yes	2.626	-0.002	2.0	GoodResponse	0	0.208	n/a	3	32	ButtonPress	AvoidedLoss	True
313.939	0.49	Lose2	0.6364	n/a	Yes	2.626	n/a	n/a	GoodResponse	0	n/a	n/a	3	32	Blank	AvoidedLoss	True
314.422	1.45	Lose2	0.6364	n/a	Yes	2.626	n/a	5.0	GoodResponse	0	0.038	313.46	3	32	Feedback	AvoidedLoss	True
315.871	2.626	Lose2	0.6364	n/a	Yes	2.626	n/a	n/a	GoodResponse	0	0.0	n/a	3	32	ISIslide	AvoidedLoss	True
318.52	0.25	Win2	0.6470999999999999	0.001	Yes	2.68	0.02	n/a	GoodResponse	1	n/a	n/a	4	33	Cue	Win	True
318.77	4.0	Win2	0.6470999999999999	0.0	Yes	2.68	0.0	n/a	GoodResponse	1	n/a	n/a	4	33	Fixation	Win	True
322.769	0.22	Win2	0.6470999999999999	0.001	Yes	2.68	-0.001	2.0	GoodResponse	1	0.183	321.952	4	33	Target	Win	True
322.952	0.3	Win2	0.6470999999999999	0.001	Yes	2.68	-0.001	2.0	GoodResponse	1	0.183	n/a	4	33	ButtonPress	Win	True
322.986	0.48	Win2	0.6470999999999999	n/a	Yes	2.68	n/a	n/a	GoodResponse	1	n/a	n/a	4	33	Blank	Win	True
323.469	1.45	Win2	0.6470999999999999	n/a	Yes	2.68	n/a	5.0	GoodResponse	1	0.016	322.485	4	33	Feedback	Win	True
324.918	2.68	Win2	0.6470999999999999	n/a	Yes	2.68	n/a	n/a	GoodResponse	1	0.0	n/a	4	33	ISIslide	Win	True
327.617	0.25	Lose2	0.6570999999999999	0.0	Yes	2.633	0.017	n/a	GoodResponse	0	n/a	n/a	4	34	Cue	AvoidedLoss	True
327.867	4.05	Lose2	0.6570999999999999	0.0	Yes	2.633	0.0	n/a	GoodResponse	0	n/a	n/a	4	34	Fixation	AvoidedLoss	True
331.916	0.23	Lose2	0.6570999999999999	0.001	Yes	2.633	-0.001	2.0	GoodResponse	0	0.186	331.102	4	34	Target	AvoidedLoss	True
332.102	0.3	Lose2	0.6570999999999999	0.001	Yes	2.633	-0.001	2.0	GoodResponse	0	0.186	n/a	4	34	ButtonPress	AvoidedLoss	True
332.149	0.47	Lose2	0.6570999999999999	n/a	Yes	2.633	n/a	n/a	GoodResponse	0	n/a	n/a	4	34	Blank	AvoidedLoss	True
332.616	1.45	Lose2	0.6570999999999999	n/a	Yes	2.633	n/a	5.0	GoodResponse	0	0.04	331.656	4	34	Feedback	AvoidedLoss	True
334.065	2.633	Lose2	0.6570999999999999	n/a	Yes	2.633	n/a	n/a	GoodResponse	0	0.0	n/a	4	34	ISIslide	AvoidedLoss	True
336.714	0.25	Lose2	0.6389	0.0	No	2.686	0.014	n/a	NoResponse	-1	n/a	n/a	3	35	Cue	Loss	True
336.964	4.0	Lose2	0.6389	0.0	No	2.686	0.0	n/a	NoResponse	-1	n/a	n/a	3	35	Fixation	Loss	True
340.963	0.23	Lose2	0.6389	0.001	No	2.686	-0.001	2.0	NoResponse	-1	0.271	340.234	3	35	Target	Loss	True
341.196	0.47	Lose2	0.6389	n/a	No	2.686	n/a	n/a	NoResponse	-1	n/a	n/a	3	35	Blank	Loss	True
341.234	0.3	Lose2	0.6389	0.001	No	2.686	-0.001	2.0	NoResponse	-1	0.271	n/a	3	35	ButtonPress	Loss	True
341.662	1.45	Lose2	0.6389	n/a	No	2.686	n/a	5.0	NoResponse	-1	0.018	340.68	3	35	Feedback	Loss	True
343.112	2.686	Lose2	0.6389	n/a	No	2.686	n/a	n/a	NoResponse	-1	0.0	n/a	3	35	ISIslide	Loss	True
345.828	0.25	Control	0.6486	0.0	Yes	2.672	0.028	n/a	GoodResponse	0	n/a	n/a	3	36	Cue	Neutral	True
346.078	4.0	Control	0.6486	0.0	Yes	2.672	0.0	n/a	GoodResponse	0	n/a	n/a	3	36	Fixation	Neutral	True
350.076	0.24	Control	0.6486	0.002	Yes	2.672	-0.002	2.0	GoodResponse	0	0.22	349.296	3	36	Target	Neutral	True
350.296	0.3	Control	0.6486	0.002	Yes	2.672	-0.002	2.0	GoodResponse	0	0.22	n/a	3	36	ButtonPress	Neutral	True
350.326	0.46	Control	0.6486	n/a	Yes	2.672	n/a	n/a	GoodResponse	0	n/a	n/a	3	36	Blank	Neutral	True
350.776	1.45	Control	0.6486	n/a	Yes	2.672	n/a	5.0	GoodResponse	0	0.026	349.802	3	36	Feedback	Neutral	True
352.225	2.672	Control	0.6486	n/a	Yes	2.672	n/a	n/a	GoodResponse	0	0.0	n/a	3	36	ISIslide	Neutral	True
354.924	0.25	Win2	0.6579	0.001	Yes	2.876	0.024	n/a	GoodResponse	1	n/a	n/a	4	37	Cue	Win	True
355.174	4.0	Win2	0.6579	0.001	Yes	2.876	0.0	n/a	GoodResponse	1	n/a	n/a	4	37	Fixation	Win	True
359.173	0.25	Win2	0.6579	0.001	Yes	2.876	-0.001	2.0	GoodResponse	1	0.218	358.391	4	37	Target	Win	True
359.391	0.3	Win2	0.6579	0.001	Yes	2.876	-0.001	2.0	GoodResponse	1	0.218	n/a	4	37	ButtonPress	Win	True
359.423	0.45	Win2	0.6579	n/a	Yes	2.876	n/a	n/a	GoodResponse	1	n/a	n/a	4	37	Blank	Win	True
359.873	1.45	Win2	0.6579	n/a	Yes	2.876	n/a	5.0	GoodResponse	1	0.006	358.879	4	37	Feedback	Win	True
361.322	2.876	Win2	0.6579	n/a	Yes	2.876	n/a	n/a	GoodResponse	1	0.0	n/a	4	37	ISIslide	Win	True
364.221	0.25	Lose2	0.6667000000000001	0.0	Yes	2.829	0.021	n/a	GoodResponse	0	n/a	n/a	4	38	Cue	AvoidedLoss	True
364.471	3.95	Lose2	0.6667000000000001	0.0	Yes	2.829	0.0	n/a	GoodResponse	0	n/a	n/a	4	38	Fixation	AvoidedLoss	True
368.42	0.25	Lose2	0.6667000000000001	0.001	Yes	2.829	-0.001	2.0	GoodResponse	0	0.239	367.659	4	38	Target	AvoidedLoss	True
368.659	0.3	Lose2	0.6667000000000001	0.001	Yes	2.829	-0.001	2.0	GoodResponse	0	0.239	n/a	4	38	ButtonPress	AvoidedLoss	True
368.67	0.45	Lose2	0.6667000000000001	n/a	Yes	2.829	n/a	n/a	GoodResponse	0	n/a	n/a	4	38	Blank	AvoidedLoss	True
369.12	1.45	Lose2	0.6667000000000001	n/a	Yes	2.829	n/a	5.0	GoodResponse	0	0.023	368.143	4	38	Feedback	AvoidedLoss	True
370.569	2.829	Lose2	0.6667000000000001	n/a	Yes	2.829	n/a	n/a	GoodResponse	0	0.0	n/a	4	38	ISIslide	AvoidedLoss	True
373.418	0.25	Win2	0.675	0.0	Yes	2.982	0.018	n/a	GoodResponse	1	n/a	n/a	5	39	Cue	Win	True
373.668	4.1	Win2	0.675	0.0	Yes	2.982	0.0	n/a	GoodResponse	1	n/a	n/a	5	39	Fixation	Win	True
377.766	0.24	Win2	0.675	0.002	Yes	2.982	-0.002	2.0	GoodResponse	1	0.236	377.002	5	39	Target	Win	True
378.002	0.3	Win2	0.675	0.002	Yes	2.982	-0.002	2.0	GoodResponse	1	0.236	n/a	5	39	ButtonPress	Win	True
378.016	0.46	Win2	0.675	n/a	Yes	2.982	n/a	n/a	GoodResponse	1	n/a	n/a	5	39	Blank	Win	True
378.466	1.45	Win2	0.675	n/a	Yes	2.982	n/a	5.0	GoodResponse	1	0.001	377.467	5	39	Feedback	Win	True
379.916	2.982	Win2	0.675	n/a	Yes	2.982	n/a	n/a	GoodResponse	1	0.0	n/a	5	39	ISIslide	Win	True
382.931	0.25	Win2	0.6585	0.0	No	2.719	0.031	n/a	NoResponse	0	n/a	n/a	5	40	Cue	MissedWin	True
383.181	3.95	Win2	0.6585	0.0	No	2.719	0.0	n/a	NoResponse	0	n/a	n/a	5	40	Fixation	MissedWin	True
387.13	0.23	Win2	0.6585	0.001	No	2.719	-0.001	2.0	NoResponse	0	0.241	386.371	5	40	Target	MissedWin	True
387.363	0.47	Win2	0.6585	n/a	No	2.719	n/a	n/a	NoResponse	0	n/a	n/a	5	40	Blank	MissedWin	True
387.371	0.3	Win2	0.6585	0.001	No	2.719	-0.001	2.0	NoResponse	0	0.241	n/a	5	40	ButtonPress	MissedWin	True
387.83	1.45	Win2	0.6585	n/a	No	2.719	n/a	5.0	NoResponse	0	0.045	386.875	5	40	Feedback	MissedWin	True
389.279	2.719	Win2	0.6585	n/a	No	2.719	n/a	n/a	NoResponse	0	0.0	n/a	5	40	ISIslide	MissedWin	True
392.028	0.25	Win2	0.6667000000000001	0.0	Yes	2.772	0.028	n/a	GoodResponse	1	n/a	n/a	6	41	Cue	Win	True
392.278	3.9	Win2	0.6667000000000001	0.0	Yes	2.772	0.0	n/a	GoodResponse	1	n/a	n/a	6	41	Fixation	Win	True
396.177	0.23	Win2	0.6667000000000001	0.001	Yes	2.772	-0.001	2.0	GoodResponse	1	0.192	395.369	6	41	Target	Win	True
396.369	0.3	Win2	0.6667000000000001	0.001	Yes	2.772	-0.001	2.0	GoodResponse	1	0.192	n/a	6	41	ButtonPress	Win	True
396.41	0.47	Win2	0.6667000000000001	n/a	Yes	2.772	n/a	n/a	GoodResponse	1	n/a	n/a	6	41	Blank	Win	True
396.876	1.45	Win2	0.6667000000000001	n/a	Yes	2.772	n/a	5.0	GoodResponse	1	0.023	395.899	6	41	Feedback	Win	True
398.326	2.772	Win2	0.6667000000000001	n/a	Yes	2.772	n/a	n/a	GoodResponse	1	0.0	n/a	6	41	ISIslide	Win	True
401.125	0.25	Control	0.6744	0.0	Yes	2.925	0.025	n/a	GoodResponse	0	n/a	n/a	6	42	Cue	Neutral	True
401.375	3.85	Control	0.6744	0.0	Yes	2.925	0.0	n/a	GoodResponse	0	n/a	n/a	6	42	Fixation	Neutral	True
405.224	0.22	Control	0.6744	0.001	Yes	2.925	-0.001	2.0	GoodResponse	0	0.196	404.42	6	42	Target	Neutral	True
405.42	0.3	Control	0.6744	0.001	Yes	2.925	-0.001	2.0	GoodResponse	0	0.196	n/a	6	42	ButtonPress	Neutral	True
405.457	0.48	Control	0.6744	n/a	Yes	2.925	n/a	n/a	GoodResponse	0	n/a	n/a	6	42	Blank	Neutral	True
405.923	1.45	Control	0.6744	n/a	Yes	2.925	n/a	5.0	GoodResponse	0	0.001	404.924	6	42	Feedback	Neutral	True
407.373	2.925	Control	0.6744	n/a	Yes	2.925	n/a	n/a	GoodResponse	0	0.0	n/a	6	42	ISIslide	Neutral	True
410.322	0.25	Win2	0.6818000000000001	0.0	Yes	3.178	0.022	n/a	GoodResponse	1	n/a	n/a	7	43	Cue	Win	True
410.572	4.0	Win2	0.6818000000000001	0.0	Yes	3.178	0.0	n/a	GoodResponse	1	n/a	n/a	7	43	Fixation	Win	True
414.57	0.21	Win2	0.6818000000000001	0.002	Yes	3.178	-0.002	2.0	GoodResponse	1	0.178	413.748	7	43	Target	Win	True
414.748	0.3	Win2	0.6818000000000001	0.002	Yes	3.178	-0.002	2.0	GoodResponse	1	0.178	n/a	7	43	ButtonPress	Win	True
414.787	0.49	Win2	0.6818000000000001	n/a	Yes	3.178	n/a	n/a	GoodResponse	1	n/a	n/a	7	43	Blank	Win	True
415.27	1.45	Win2	0.6818000000000001	n/a	Yes	3.178	n/a	5.0	GoodResponse	1	0.019	414.289	7	43	Feedback	Win	True
416.72	3.178	Win2	0.6818000000000001	n/a	Yes	3.178	n/a	n/a	GoodResponse	1	0.0	n/a	7	43	ISIslide	Win	True
419.918	0.25	Win2	0.6889	0.001	Yes	2.982	0.018	n/a	GoodResponse	1	n/a	n/a	8	44	Cue	Win	True
420.168	4.0	Win2	0.6889	0.0	Yes	2.982	0.0	n/a	GoodResponse	1	n/a	n/a	8	44	Fixation	Win	True
424.167	0.2	Win2	0.6889	0.001	Yes	2.982	-0.001	2.0	GoodResponse	1	0.19	423.357	8	44	Target	Win	True
424.357	0.3	Win2	0.6889	0.001	Yes	2.982	-0.001	2.0	GoodResponse	1	0.19	n/a	8	44	ButtonPress	Win	True
424.367	0.5	Win2	0.6889	n/a	Yes	2.982	n/a	n/a	GoodResponse	1	n/a	n/a	8	44	Blank	Win	True
424.867	1.45	Win2	0.6889	n/a	Yes	2.982	n/a	5.0	GoodResponse	1	0.032	423.899	8	44	Feedback	Win	True
426.316	2.982	Win2	0.6889	n/a	Yes	2.982	n/a	n/a	GoodResponse	1	0.0	n/a	8	44	ISIslide	Win	True
429.315	0.25	Control	0.6957	0.0	Yes	2.885	0.015	n/a	GoodResponse	0	n/a	n/a	8	45	Cue	Neutral	True
429.565	4.1	Control	0.6957	0.0	Yes	2.885	0.0	n/a	GoodResponse	0	n/a	n/a	8	45	Fixation	Neutral	True
433.664	0.19	Control	0.6957	0.001	Yes	2.885	-0.001	2.0	GoodResponse	0	0.188	432.852	8	45	Target	Neutral	True
433.852	0.3	Control	0.6957	0.001	Yes	2.885	-0.001	2.0	GoodResponse	0	0.188	n/a	8	45	ButtonPress	Neutral	True
433.864	0.51	Control	0.6957	n/a	Yes	2.885	n/a	n/a	GoodResponse	0	n/a	n/a	8	45	Blank	Neutral	True
434.363	1.45	Control	0.6957	n/a	Yes	2.885	n/a	5.0	GoodResponse	0	0.048	433.411	8	45	Feedback	Neutral	True
435.813	2.885	Control	0.6957	n/a	Yes	2.885	n/a	n/a	GoodResponse	0	0.0	n/a	8	45	ISIslide	Neutral	True
438.729	0.25	Lose2	0.6809000000000001	0.0	No	3.371	0.029	n/a	NoResponse	-1	n/a	n/a	7	46	Cue	Loss	True
438.978	4.0	Lose2	0.6809000000000001	0.001	No	3.371	-0.001	n/a	NoResponse	-1	n/a	n/a	7	46	Fixation	Loss	True
442.977	0.18	Lose2	0.6809000000000001	0.002	No	3.371	-0.002	2.0	NoResponse	-1	0.205	442.182	7	46	Target	Loss	True
443.16	0.52	Lose2	0.6809000000000001	n/a	No	3.371	n/a	n/a	NoResponse	-1	n/a	n/a	7	46	Blank	Loss	True
443.182	0.3	Lose2	0.6809000000000001	0.002	No	3.371	-0.002	2.0	NoResponse	-1	0.205	n/a	7	46	ButtonPress	Loss	True
443.677	1.45	Lose2	0.6809000000000001	n/a	No	3.371	n/a	5.0	NoResponse	-1	0.007	442.684	7	46	Feedback	Loss	True
445.126	3.371	Lose2	0.6809000000000001	n/a	No	3.371	n/a	n/a	NoResponse	-1	0.0	n/a	7	46	ISIslide	Loss	True
448.525	0.25	Lose2	0.6667000000000001	0.0	No	2.675	0.025	n/a	NoResponse	-1	n/a	n/a	6	47	Cue	Loss	True
448.775	4.0	Lose2	0.6667000000000001	0.0	No	2.675	0.0	n/a	NoResponse	-1	n/a	n/a	6	47	Fixation	Loss	True
452.774	0.17	Lose2	0.6667000000000001	0.001	No	2.675	-0.001	2.0	NoResponse	-1	0.191	451.965	6	47	Target	Loss	True
452.957	0.53	Lose2	0.6667000000000001	n/a	No	2.675	n/a	n/a	NoResponse	-1	n/a	n/a	6	47	Blank	Loss	True
452.965	0.3	Lose2	0.6667000000000001	0.001	No	2.675	-0.001	2.0	NoResponse	-1	0.191	n/a	6	47	ButtonPress	Loss	True
453.473	1.45	Lose2	0.6667000000000001	n/a	No	2.675	n/a	5.0	NoResponse	-1	0.012	452.485	6	47	Feedback	Loss	True
454.923	2.675	Lose2	0.6667000000000001	n/a	No	2.675	n/a	n/a	NoResponse	-1	0.0	n/a	6	47	ISIslide	Loss	True
457.622	0.25	Lose2	0.6531	0.0	No	3.028	0.022	n/a	NoResponse	-1	n/a	n/a	5	48	Cue	Loss	True
457.872	3.95	Lose2	0.6531	0.0	No	3.028	0.0	n/a	NoResponse	-1	n/a	n/a	5	48	Fixation	Loss	True
461.821	0.16	Lose2	0.6531	0.001	No	3.028	-0.001	2.0	NoResponse	-1	0.206	461.027	5	48	Target	Loss	True
461.987	0.54	Lose2	0.6531	n/a	No	3.028	n/a	n/a	NoResponse	-1	n/a	n/a	5	48	Blank	Loss	True
462.027	0.3	Lose2	0.6531	0.001	No	3.028	-0.001	2.0	NoResponse	-1	0.206	n/a	5	48	ButtonPress	Loss	True
462.52	1.45	Lose2	0.6531	n/a	No	3.028	n/a	5.0	NoResponse	-1	0.037	461.557	5	48	Feedback	Loss	True
463.97	3.028	Lose2	0.6531	n/a	No	3.028	n/a	n/a	NoResponse	-1	0.0	n/a	5	48	ISIslide	Loss	True
467.019	0.25	Control	0.64	0.0	No	2.881	0.019	n/a	NoResponse	0	n/a	n/a	5	49	Cue	Neutral	True
467.269	4.0	Control	0.64	0.0	No	2.881	0.0	n/a	NoResponse	0	n/a	n/a	5	49	Fixation	Neutral	True
471.267	0.17	Control	0.64	0.002	No	2.881	-0.002	2.0	NoResponse	0	0.23	470.497	5	49	Target	Neutral	True
471.45	0.53	Control	0.64	n/a	No	2.881	n/a	n/a	NoResponse	0	n/a	n/a	5	49	Blank	Neutral	True
471.497	0.3	Control	0.64	0.002	No	2.881	-0.002	2.0	NoResponse	0	0.23	n/a	5	49	ButtonPress	Neutral	True
471.967	1.45	Control	0.64	n/a	No	2.881	n/a	5.0	NoResponse	0	0.006	470.973	5	49	Feedback	Neutral	True
473.416	2.881	Control	0.64	n/a	No	2.881	n/a	n/a	NoResponse	0	0.0	n/a	5	49	ISIslide	Neutral	True
476.315	0.25	Control	0.6275	0.001	No	2.785	0.015	n/a	NoResponse	0	n/a	n/a	5	50	Cue	Neutral	True
476.565	4.0	Control	0.6275	0.0	No	2.785	0.0	n/a	NoResponse	0	n/a	n/a	5	50	Fixation	Neutral	True
480.564	0.18	Control	0.6275	0.001	No	2.785	-0.001	2.0	NoResponse	0	0.194	479.758	5	50	Target	Neutral	True
480.747	0.52	Control	0.6275	n/a	No	2.785	n/a	n/a	NoResponse	0	n/a	n/a	5	50	Blank	Neutral	True
480.758	0.3	Control	0.6275	0.001	No	2.785	-0.001	2.0	NoResponse	0	0.194	n/a	5	50	ButtonPress	Neutral	True
481.264	1.45	Control	0.6275	n/a	No	2.785	n/a	5.0	NoResponse	0	0.025	480.289	5	50	Feedback	Neutral	True
482.713	2.785	Control	0.6275	n/a	No	2.785	n/a	n/a	NoResponse	0	0.0	n/a	5	50	ISIslide	Neutral	True
485.529	0.25	Control	0.6154	0.0	No	2.721	0.029	n/a	NoResponse	0	n/a	n/a	5	51	Cue	Neutral	True
485.779	3.95	Control	0.6154	0.0	No	2.721	0.0	n/a	NoResponse	0	n/a	n/a	5	51	Fixation	Neutral	True
489.727	0.19	Control	0.6154	0.002	No	2.721	-0.002	2.0	NoResponse	0	0.224	488.951	5	51	Target	Neutral	True
489.927	0.51	Control	0.6154	n/a	No	2.721	n/a	n/a	NoResponse	0	n/a	n/a	5	51	Blank	Neutral	True
489.951	0.3	Control	0.6154	0.002	No	2.721	-0.002	2.0	NoResponse	0	0.224	n/a	5	51	ButtonPress	Neutral	True
490.427	1.45	Control	0.6154	n/a	No	2.721	n/a	5.0	NoResponse	0	0.033	489.46	5	51	Feedback	Neutral	True
491.877	2.721	Control	0.6154	n/a	No	2.721	n/a	n/a	NoResponse	0	0.0	n/a	5	51	ISIslide	Neutral	True
494.626	0.25	Control	0.6038	0.0	No	2.624	0.026	n/a	NoResponse	0	n/a	n/a	5	52	Cue	Neutral	True
494.876	4.05	Control	0.6038	0.0	No	2.624	0.0	n/a	NoResponse	0	n/a	n/a	5	52	Fixation	Neutral	True
498.924	0.2	Control	0.6038	0.002	No	2.624	-0.002	2.0	NoResponse	0	0.216	498.14	5	52	Target	Neutral	True
499.124	0.5	Control	0.6038	n/a	No	2.624	n/a	n/a	NoResponse	0	n/a	n/a	5	52	Blank	Neutral	True
499.14	0.3	Control	0.6038	0.002	No	2.624	-0.002	2.0	NoResponse	0	0.216	n/a	5	52	ButtonPress	Neutral	True
499.624	1.45	Control	0.6038	n/a	No	2.624	n/a	5.0	NoResponse	0	0.006	498.63	5	52	Feedback	Neutral	True
501.073	2.624	Control	0.6038	n/a	No	2.624	n/a	n/a	NoResponse	0	0.0	n/a	5	52	ISIslide	Neutral	True
503.723	0.25	Win2	0.5926	0.0	No	2.927	0.023	n/a	NoResponse	0	n/a	n/a	5	53	Cue	MissedWin	True
503.972	4.05	Win2	0.5926	0.001	No	2.927	-0.001	n/a	NoResponse	0	n/a	n/a	5	53	Fixation	MissedWin	True
508.021	0.21	Win2	0.5926	0.002	No	2.927	-0.002	2.0	NoResponse	0	0.274	507.295	5	53	Target	MissedWin	True
508.238	0.49	Win2	0.5926	n/a	No	2.927	n/a	n/a	NoResponse	0	n/a	n/a	5	53	Blank	MissedWin	True
508.295	0.3	Win2	0.5926	0.002	No	2.927	-0.002	2.0	NoResponse	0	0.274	n/a	5	53	ButtonPress	MissedWin	True
508.721	1.45	Win2	0.5926	n/a	No	2.927	n/a	5.0	NoResponse	0	0.03	507.751	5	53	Feedback	MissedWin	True
510.17	2.927	Win2	0.5926	n/a	No	2.927	n/a	n/a	NoResponse	0	0.0	n/a	5	53	ISIslide	MissedWin	True
513.119	0.25	Win2	0.6	0.0	Yes	2.731	0.019	n/a	GoodResponse	1	n/a	n/a	6	54	Cue	Win	True
513.369	3.95	Win2	0.6	0.0	Yes	2.731	0.0	n/a	GoodResponse	1	n/a	n/a	6	54	Fixation	Win	True
517.318	0.22	Win2	0.6	0.001	Yes	2.731	-0.001	2.0	GoodResponse	1	0.194	516.512	6	54	Target	Win	True
517.512	0.3	Win2	0.6	0.001	Yes	2.731	-0.001	2.0	GoodResponse	1	0.194	n/a	6	54	ButtonPress	Win	True
517.534	0.48	Win2	0.6	n/a	Yes	2.731	n/a	n/a	GoodResponse	1	n/a	n/a	6	54	Blank	Win	True
518.018	1.45	Win2	0.6	n/a	Yes	2.731	n/a	5.0	GoodResponse	1	0.005	517.023	6	54	Feedback	Win	True
519.467	2.731	Win2	0.6	n/a	Yes	2.731	n/a	n/a	GoodResponse	1	0.0	n/a	6	54	ISIslide	Win	True
522.216	0.25	Control	0.5893	0.0	No	3.034	0.016	n/a	NoResponse	0	n/a	n/a	6	55	Cue	Neutral	True
522.466	3.95	Control	0.5893	0.0	No	3.034	0.0	n/a	NoResponse	0	n/a	n/a	6	55	Fixation	Neutral	True
526.415	0.23	Control	0.5893	0.001	No	3.034	-0.001	2.0	NoResponse	0	0.24	525.655	6	55	Target	Neutral	True
526.648	0.47	Control	0.5893	n/a	No	3.034	n/a	n/a	NoResponse	0	n/a	n/a	6	55	Blank	Neutral	True
526.655	0.3	Control	0.5893	0.001	No	3.034	-0.001	2.0	NoResponse	0	0.24	n/a	6	55	ButtonPress	Neutral	True
527.114	1.45	Control	0.5893	n/a	No	3.034	n/a	5.0	NoResponse	0	0.028	526.142	6	55	Feedback	Neutral	True
528.564	3.034	Control	0.5893	n/a	No	3.034	n/a	n/a	NoResponse	0	0.0	n/a	6	55	ISIslide	Neutral	True
531.629	0.25	Control	0.5789	0.001	No	2.821	0.029	n/a	NoResponse	0	n/a	n/a	6	56	Cue	Neutral	True
531.879	3.95	Control	0.5789	0.001	No	2.821	0.0	n/a	NoResponse	0	n/a	n/a	6	56	Fixation	Neutral	True
535.828	0.24	Control	0.5789	0.001	No	2.821	-0.001	2.0	NoResponse	0	0.291	535.119	6	56	Target	Neutral	True
536.078	0.46	Control	0.5789	n/a	No	2.821	n/a	n/a	NoResponse	0	n/a	n/a	6	56	Blank	Neutral	True
536.119	0.3	Control	0.5789	0.001	No	2.821	-0.001	2.0	NoResponse	0	0.291	n/a	6	56	ButtonPress	Neutral	True
536.528	1.45	Control	0.5789	n/a	No	2.821	n/a	5.0	NoResponse	0	0.029	535.557	6	56	Feedback	Neutral	True
537.977	2.821	Control	0.5789	n/a	No	2.821	n/a	n/a	NoResponse	0	0.0	n/a	6	56	ISIslide	Neutral	True
540.826	0.25	Control	0.569	0.0	No	3.474	0.026	n/a	NoResponse	0	n/a	n/a	6	57	Cue	Neutral	True
541.076	4.0	Control	0.569	0.0	No	3.474	0.0	n/a	NoResponse	0	n/a	n/a	6	57	Fixation	Neutral	True
545.075	0.25	Control	0.569	0.001	No	3.474	-0.001	2.0	NoResponse	0	0.328	544.403	6	57	Target	Neutral	True
545.325	0.45	Control	0.569	n/a	No	3.474	n/a	n/a	NoResponse	0	n/a	n/a	6	57	Blank	Neutral	True
545.403	0.3	Control	0.569	0.001	No	3.474	-0.001	2.0	NoResponse	0	0.328	n/a	6	57	ButtonPress	Neutral	True
545.775	1.45	Control	0.569	n/a	No	3.474	n/a	5.0	NoResponse	0	0.001	544.776	6	57	Feedback	Neutral	True
547.224	3.474	Control	0.569	n/a	No	3.474	n/a	n/a	NoResponse	0	0.0	n/a	6	57	ISIslide	Neutral	True
550.723	0.25	Win2	0.5763	0.0	Yes	2.727	0.023	n/a	GoodResponse	1	n/a	n/a	7	58	Cue	Win	True
550.973	4.05	Win2	0.5763	0.0	Yes	2.727	0.0	n/a	GoodResponse	1	n/a	n/a	7	58	Fixation	Win	True
555.021	0.26	Win2	0.5763	0.002	Yes	2.727	-0.002	2.0	GoodResponse	1	0.23	554.251	7	58	Target	Win	True
555.251	0.3	Win2	0.5763	0.002	Yes	2.727	-0.002	2.0	GoodResponse	1	0.23	n/a	7	58	ButtonPress	Win	True
555.288	0.44	Win2	0.5763	n/a	Yes	2.727	n/a	n/a	GoodResponse	1	n/a	n/a	7	58	Blank	Win	True
555.721	1.45	Win2	0.5763	n/a	Yes	2.727	n/a	5.0	GoodResponse	1	0.007	554.728	7	58	Feedback	Win	True
557.171	2.727	Win2	0.5763	n/a	Yes	2.727	n/a	n/a	GoodResponse	1	0.0	n/a	7	58	ISIslide	Win	True
559.92	0.25	Lose2	0.5832999999999999	0.0	Yes	2.68	0.02	n/a	GoodResponse	0	n/a	n/a	7	59	Cue	AvoidedLoss	True
560.17	4.0	Lose2	0.5832999999999999	0.0	Yes	2.68	0.0	n/a	GoodResponse	0	n/a	n/a	7	59	Fixation	AvoidedLoss	True
564.168	0.27	Lose2	0.5832999999999999	0.002	Yes	2.68	-0.002	2.0	GoodResponse	0	0.195	563.363	7	59	Target	AvoidedLoss	True
564.363	0.3	Lose2	0.5832999999999999	0.002	Yes	2.68	-0.002	2.0	GoodResponse	0	0.195	n/a	7	59	ButtonPress	AvoidedLoss	True
564.451	0.43	Lose2	0.5832999999999999	n/a	Yes	2.68	n/a	n/a	GoodResponse	0	n/a	n/a	7	59	Blank	AvoidedLoss	True
564.868	1.45	Lose2	0.5832999999999999	n/a	Yes	2.68	n/a	5.0	GoodResponse	0	0.03	563.898	7	59	Feedback	AvoidedLoss	True
566.317	2.68	Lose2	0.5832999999999999	n/a	Yes	2.68	n/a	n/a	GoodResponse	0	0.0	n/a	7	59	ISIslide	AvoidedLoss	True
569.016	0.25	Control	0.5902000000000001	0.001	Yes	2.684	0.016	n/a	GoodResponse	0	n/a	n/a	7	60	Cue	Neutral	True
569.266	4.0	Control	0.5902000000000001	0.0	Yes	2.684	0.0	n/a	GoodResponse	0	n/a	n/a	7	60	Fixation	Neutral	True
573.265	0.28	Control	0.5902000000000001	0.001	Yes	2.684	-0.001	2.0	GoodResponse	0	0.222	572.487	7	60	Target	Neutral	True
573.487	0.3	Control	0.5902000000000001	0.001	Yes	2.684	-0.001	2.0	GoodResponse	0	0.222	n/a	7	60	ButtonPress	Neutral	True
573.548	0.42	Control	0.5902000000000001	n/a	Yes	2.684	n/a	n/a	GoodResponse	0	n/a	n/a	7	60	Blank	Neutral	True
573.965	1.45	Control	0.5902000000000001	n/a	Yes	2.684	n/a	5.0	GoodResponse	0	0.006	572.971	7	60	Feedback	Neutral	True
575.414	2.684	Control	0.5902000000000001	n/a	Yes	2.684	n/a	n/a	GoodResponse	0	0.0	n/a	7	60	ISIslide	Neutral	True
578.13	0.25	Lose2	0.5968	0.0	Yes	2.97	0.03	n/a	GoodResponse	0	n/a	n/a	7	61	Cue	AvoidedLoss	True
578.38	4.0	Lose2	0.5968	0.0	Yes	2.97	0.0	n/a	GoodResponse	0	n/a	n/a	7	61	Fixation	AvoidedLoss	True
582.378	0.29	Lose2	0.5968	0.002	Yes	2.97	-0.002	2.0	GoodResponse	0	0.23	581.608	7	61	Target	AvoidedLoss	True
582.608	0.3	Lose2	0.5968	0.002	Yes	2.97	-0.002	2.0	GoodResponse	0	0.23	n/a	7	61	ButtonPress	AvoidedLoss	True
582.678	0.41	Lose2	0.5968	n/a	Yes	2.97	n/a	n/a	GoodResponse	0	n/a	n/a	7	61	Blank	AvoidedLoss	True
583.078	1.45	Lose2	0.5968	n/a	Yes	2.97	n/a	5.0	GoodResponse	0	0.015	582.093	7	61	Feedback	AvoidedLoss	True
584.528	2.97	Lose2	0.5968	n/a	Yes	2.97	n/a	n/a	GoodResponse	0	0.0	n/a	7	61	ISIslide	AvoidedLoss	True
587.527	0.25	Lose2	0.6032	0.0	Yes	2.873	0.027	n/a	GoodResponse	0	n/a	n/a	7	62	Cue	AvoidedLoss	True
587.777	3.9	Lose2	0.6032	0.0	Yes	2.873	0.0	n/a	GoodResponse	0	n/a	n/a	7	62	Fixation	AvoidedLoss	True
591.675	0.3	Lose2	0.6032	0.002	Yes	2.873	-0.002	2.0	GoodResponse	0	0.251	590.926	7	62	Target	AvoidedLoss	True
591.926	0.3	Lose2	0.6032	0.002	Yes	2.873	-0.002	2.0	GoodResponse	0	0.251	n/a	7	62	ButtonPress	AvoidedLoss	True
591.975	0.4	Lose2	0.6032	n/a	Yes	2.873	n/a	n/a	GoodResponse	0	n/a	n/a	7	62	Blank	AvoidedLoss	True
592.375	1.45	Lose2	0.6032	n/a	Yes	2.873	n/a	5.0	GoodResponse	0	0.035	591.41	7	62	Feedback	AvoidedLoss	True
593.824	2.873	Lose2	0.6032	n/a	Yes	2.873	n/a	n/a	GoodResponse	0	0.0	n/a	7	62	ISIslide	AvoidedLoss	True
596.723	0.25	Lose2	0.6093999999999999	0.001	Yes	2.627	0.023	n/a	GoodResponse	0	n/a	n/a	7	63	Cue	AvoidedLoss	True
596.973	4.05	Lose2	0.6093999999999999	0.0	Yes	2.627	0.0	n/a	GoodResponse	0	n/a	n/a	7	63	Fixation	AvoidedLoss	True
601.022	0.31	Lose2	0.6093999999999999	0.001	Yes	2.627	-0.001	2.0	GoodResponse	0	0.245	600.267	7	63	Target	AvoidedLoss	True
601.267	0.3	Lose2	0.6093999999999999	0.001	Yes	2.627	-0.001	2.0	GoodResponse	0	0.245	n/a	7	63	ButtonPress	AvoidedLoss	True
601.339	0.39	Lose2	0.6093999999999999	n/a	Yes	2.627	n/a	n/a	GoodResponse	0	n/a	n/a	7	63	Blank	AvoidedLoss	True
601.722	1.45	Lose2	0.6093999999999999	n/a	Yes	2.627	n/a	5.0	GoodResponse	0	0.005	600.727	7	63	Feedback	AvoidedLoss	True
603.171	2.627	Lose2	0.6093999999999999	n/a	Yes	2.627	n/a	n/a	GoodResponse	0	0.0	n/a	7	63	ISIslide	AvoidedLoss	True
605.82	0.25	Win2	0.6154	0.0	Yes	3.13	0.02	n/a	GoodResponse	1	n/a	n/a	8	64	Cue	Win	True
606.07	4.15	Win2	0.6154	0.0	Yes	3.13	0.0	n/a	GoodResponse	1	n/a	n/a	8	64	Fixation	Win	True
610.219	0.32	Win2	0.6154	0.001	Yes	3.13	-0.001	2.0	GoodResponse	1	0.201	609.42	8	64	Target	Win	True
610.42	0.3	Win2	0.6154	0.001	Yes	3.13	-0.001	2.0	GoodResponse	1	0.201	n/a	8	64	ButtonPress	Win	True
610.552	0.38	Win2	0.6154	n/a	Yes	3.13	n/a	n/a	GoodResponse	1	n/a	n/a	8	64	Blank	Win	True
610.919	1.45	Win2	0.6154	n/a	Yes	3.13	n/a	5.0	GoodResponse	1	0.027	609.946	8	64	Feedback	Win	True
612.368	3.13	Win2	0.6154	n/a	Yes	3.13	n/a	n/a	GoodResponse	1	0.0	n/a	8	64	ISIslide	Win	True
615.517	0.25	Control	0.6212	0.0	Yes	2.783	0.017	n/a	GoodResponse	0	n/a	n/a	8	65	Cue	Neutral	True
615.767	4.0	Control	0.6212	0.0	Yes	2.783	0.0	n/a	GoodResponse	0	n/a	n/a	8	65	Fixation	Neutral	True
619.765	0.33	Control	0.6212	0.002	Yes	2.783	-0.002	2.0	GoodResponse	0	0.216	618.981	8	65	Target	Neutral	True
619.981	0.3	Control	0.6212	0.002	Yes	2.783	-0.002	2.0	GoodResponse	0	0.216	n/a	8	65	ButtonPress	Neutral	True
620.099	0.37	Control	0.6212	n/a	Yes	2.783	n/a	n/a	GoodResponse	0	n/a	n/a	8	65	Blank	Neutral	True
620.465	1.45	Control	0.6212	n/a	Yes	2.783	n/a	5.0	GoodResponse	0	0.042	619.507	8	65	Feedback	Neutral	True
621.915	2.783	Control	0.6212	n/a	Yes	2.783	n/a	n/a	GoodResponse	0	0.0	n/a	8	65	ISIslide	Neutral	True
624.714	0.25	Win2	0.6269	0.0	Yes	2.786	0.014	n/a	GoodResponse	1	n/a	n/a	9	66	Cue	Win	True
624.964	3.9	Win2	0.6269	0.0	Yes	2.786	0.0	n/a	GoodResponse	1	n/a	n/a	9	66	Fixation	Win	True
628.862	0.34	Win2	0.6269	0.002	Yes	2.786	-0.002	2.0	GoodResponse	1	0.22	628.082	9	66	Target	Win	True
629.082	0.3	Win2	0.6269	0.002	Yes	2.786	-0.002	2.0	GoodResponse	1	0.22	n/a	9	66	ButtonPress	Win	True
629.212	0.36	Win2	0.6269	n/a	Yes	2.786	n/a	n/a	GoodResponse	1	n/a	n/a	9	66	Blank	Win	True
629.562	1.45	Win2	0.6269	n/a	Yes	2.786	n/a	5.0	GoodResponse	1	0.018	628.58	9	66	Feedback	Win	True
631.011	2.786	Win2	0.6269	n/a	Yes	2.786	n/a	n/a	GoodResponse	1	0.0	n/a	9	66	ISIslide	Win	True
633.827	0.25	Control	0.6324000000000001	0.0	Yes	2.723	0.027	n/a	GoodResponse	0	n/a	n/a	9	67	Cue	Neutral	True
634.077	3.95	Control	0.6324000000000001	0.0	Yes	2.723	0.0	n/a	GoodResponse	0	n/a	n/a	9	67	Fixation	Neutral	True
638.026	0.35	Control	0.6324000000000001	0.001	Yes	2.723	-0.001	2.0	GoodResponse	0	0.191	637.217	9	67	Target	Neutral	True
638.217	0.3	Control	0.6324000000000001	0.001	Yes	2.723	-0.001	2.0	GoodResponse	0	0.191	n/a	9	67	ButtonPress	Neutral	True
638.376	0.35	Control	0.6324000000000001	n/a	Yes	2.723	n/a	n/a	GoodResponse	0	n/a	n/a	9	67	Blank	Neutral	True
638.725	1.45	Control	0.6324000000000001	n/a	Yes	2.723	n/a	5.0	GoodResponse	0	0.026	637.751	9	67	Feedback	Neutral	True
640.175	2.723	Control	0.6324000000000001	n/a	Yes	2.723	n/a	n/a	GoodResponse	0	0.0	n/a	9	67	ISIslide	Neutral	True
642.924	0.25	Win2	0.6377	0.0	Yes	3.076	0.024	n/a	GoodResponse	1	n/a	n/a	10	68	Cue	Win	True
643.174	4.0	Win2	0.6377	0.0	Yes	3.076	0.0	n/a	GoodResponse	1	n/a	n/a	10	68	Fixation	Win	True
647.173	0.36	Win2	0.6377	0.001	Yes	3.076	-0.001	2.0	GoodResponse	1	0.174	646.347	10	68	Target	Win	True
647.347	0.3	Win2	0.6377	0.001	Yes	3.076	-0.001	2.0	GoodResponse	1	0.174	n/a	10	68	ButtonPress	Win	True
647.539	0.34	Win2	0.6377	n/a	Yes	3.076	n/a	n/a	GoodResponse	1	n/a	n/a	10	68	Blank	Win	True
647.872	1.45	Win2	0.6377	n/a	Yes	3.076	n/a	5.0	GoodResponse	1	0.001	646.873	10	68	Feedback	Win	True
649.322	3.076	Win2	0.6377	n/a	Yes	3.076	n/a	n/a	GoodResponse	1	0.0	n/a	10	68	ISIslide	Win	True
652.421	0.25	Win2	0.6429	0.0	Yes	3.229	0.021	n/a	GoodResponse	1	n/a	n/a	11	69	Cue	Win	True
652.671	3.95	Win2	0.6429	0.0	Yes	3.229	0.0	n/a	GoodResponse	1	n/a	n/a	11	69	Fixation	Win	True
656.619	0.37	Win2	0.6429	0.002	Yes	3.229	-0.002	2.0	GoodResponse	1	0.22	655.839	11	69	Target	Win	True
656.839	0.3	Win2	0.6429	0.002	Yes	3.229	-0.002	2.0	GoodResponse	1	0.22	n/a	11	69	ButtonPress	Win	True
657.002	0.33	Win2	0.6429	n/a	Yes	3.229	n/a	n/a	GoodResponse	1	n/a	n/a	11	69	Blank	Win	True
657.319	1.45	Win2	0.6429	n/a	Yes	3.229	n/a	5.0	GoodResponse	1	0.017	656.336	11	69	Feedback	Win	True
658.768	3.229	Win2	0.6429	n/a	Yes	3.229	n/a	n/a	GoodResponse	1	0.0	n/a	11	69	ISIslide	Win	True
662.017	0.25	Lose2	0.6479	0.0	Yes	3.033	0.017	n/a	GoodResponse	0	n/a	n/a	11	70	Cue	AvoidedLoss	True
662.267	4.05	Lose2	0.6479	0.0	Yes	3.033	0.0	n/a	GoodResponse	0	n/a	n/a	11	70	Fixation	AvoidedLoss	True
666.316	0.38	Lose2	0.6479	0.001	Yes	3.033	-0.001	2.0	GoodResponse	0	0.198	665.514	11	70	Target	AvoidedLoss	True
666.514	0.3	Lose2	0.6479	0.001	Yes	3.033	-0.001	2.0	GoodResponse	0	0.198	n/a	11	70	ButtonPress	AvoidedLoss	True
666.699	0.32	Lose2	0.6479	n/a	Yes	3.033	n/a	n/a	GoodResponse	0	n/a	n/a	11	70	Blank	AvoidedLoss	True
667.016	1.45	Lose2	0.6479	n/a	Yes	3.033	n/a	5.0	GoodResponse	0	0.027	666.043	11	70	Feedback	AvoidedLoss	True
668.465	3.033	Lose2	0.6479	n/a	Yes	3.033	n/a	n/a	GoodResponse	0	0.0	n/a	11	70	ISIslide	AvoidedLoss	True
671.531	0.25	Win2	0.6528	0.0	Yes	2.719	0.031	n/a	GoodResponse	1	n/a	n/a	12	71	Cue	Win	True
671.781	4.05	Win2	0.6528	0.0	Yes	2.719	0.0	n/a	GoodResponse	1	n/a	n/a	12	71	Fixation	Win	True
675.829	0.39	Win2	0.6528	0.002	Yes	2.719	-0.002	2.0	GoodResponse	1	0.175	675.004	12	71	Target	Win	True
676.004	0.3	Win2	0.6528	0.002	Yes	2.719	-0.002	2.0	GoodResponse	1	0.175	n/a	12	71	ButtonPress	Win	True
676.229	0.31	Win2	0.6528	n/a	Yes	2.719	n/a	n/a	GoodResponse	1	n/a	n/a	12	71	Blank	Win	True
676.529	1.45	Win2	0.6528	n/a	Yes	2.719	n/a	5.0	GoodResponse	1	0.027	675.556	12	71	Feedback	Win	True
677.978	2.719	Win2	0.6528	n/a	Yes	2.719	n/a	2.0	GoodResponse	1	1.94	n/a	12	71	ISIslide	Win	True
680.711	0.25	Win2	0.6575	0.0	Yes	2.789	0.011	n/a	GoodResponse	1	n/a	n/a	13	72	Cue	Win	True
680.961	4.1	Win2	0.6575	0.0	Yes	2.789	0.0	n/a	GoodResponse	1	n/a	n/a	13	72	Fixation	Win	True
685.059	0.4	Win2	0.6575	0.002	Yes	2.789	-0.002	2.0	GoodResponse	1	0.184	684.243	13	72	Target	Win	True
685.243	0.3	Win2	0.6575	0.002	Yes	2.789	-0.002	2.0	GoodResponse	1	0.184	n/a	13	72	ButtonPress	Win	True
685.459	0.3	Win2	0.6575	n/a	Yes	2.789	n/a	n/a	GoodResponse	1	n/a	n/a	13	72	Blank	Win	True
685.759	1.45	Win2	0.6575	n/a	Yes	2.789	n/a	5.0	GoodResponse	1	0.016	684.775	13	72	Feedback	Win	True
687.209	2.789	Win2	0.6575	n/a	Yes	2.789	n/a	n/a	GoodResponse	1	0.0	n/a	13	72	ISIslide	Win	True
690.024	0.25	Win2	0.6622	0.0	Yes	2.676	0.024	n/a	GoodResponse	1	n/a	n/a	14	73	Cue	Win	True
690.274	4.0	Win2	0.6622	0.0	Yes	2.676	0.0	n/a	GoodResponse	1	n/a	n/a	14	73	Fixation	Win	True
694.273	0.4	Win2	0.6622	0.001	Yes	2.676	-0.001	2.0	GoodResponse	1	0.217	693.49	14	73	Target	Win	True
694.49	0.3	Win2	0.6622	0.001	Yes	2.676	-0.001	2.0	GoodResponse	1	0.217	n/a	14	73	ButtonPress	Win	True
694.673	0.3	Win2	0.6622	n/a	Yes	2.676	n/a	n/a	GoodResponse	1	n/a	n/a	14	73	Blank	Win	True
694.973	1.45	Win2	0.6622	n/a	Yes	2.676	n/a	5.0	GoodResponse	1	0.022	693.995	14	73	Feedback	Win	True
696.422	2.676	Win2	0.6622	n/a	Yes	2.676	n/a	n/a	GoodResponse	1	0.0	n/a	14	73	ISIslide	Win	True
699.121	0.25	Lose2	0.6667000000000001	0.0	Yes	2.629	0.021	n/a	GoodResponse	0	n/a	n/a	14	74	Cue	AvoidedLoss	True
699.371	4.05	Lose2	0.6667000000000001	0.0	Yes	2.629	0.0	n/a	GoodResponse	0	n/a	n/a	14	74	Fixation	AvoidedLoss	True
703.42	0.4	Lose2	0.6667000000000001	0.001	Yes	2.629	-0.001	2.0	GoodResponse	0	0.187	702.607	14	74	Target	AvoidedLoss	True
703.607	0.3	Lose2	0.6667000000000001	0.001	Yes	2.629	-0.001	2.0	GoodResponse	0	0.187	n/a	14	74	ButtonPress	AvoidedLoss	True
703.819	0.3	Lose2	0.6667000000000001	n/a	Yes	2.629	n/a	n/a	GoodResponse	0	n/a	n/a	14	74	Blank	AvoidedLoss	True
704.119	1.45	Lose2	0.6667000000000001	n/a	Yes	2.629	n/a	5.0	GoodResponse	0	0.001	703.12	14	74	Feedback	AvoidedLoss	True
705.569	2.629	Lose2	0.6667000000000001	n/a	Yes	2.629	n/a	n/a	GoodResponse	0	0.0	n/a	14	74	ISIslide	AvoidedLoss	True
708.218	0.25	Lose2	0.6711	0.0	Yes	2.932	0.018	n/a	GoodResponse	0	n/a	n/a	14	75	Cue	AvoidedLoss	True
708.468	3.95	Lose2	0.6711	0.0	Yes	2.932	0.0	n/a	GoodResponse	0	n/a	n/a	14	75	Fixation	AvoidedLoss	True
712.416	0.39	Lose2	0.6711	0.002	Yes	2.932	-0.002	2.0	GoodResponse	0	0.249	711.665	14	75	Target	AvoidedLoss	True
712.665	0.3	Lose2	0.6711	0.002	Yes	2.932	-0.002	2.0	GoodResponse	0	0.249	n/a	14	75	ButtonPress	AvoidedLoss	True
712.816	0.31	Lose2	0.6711	n/a	Yes	2.932	n/a	n/a	GoodResponse	0	n/a	n/a	14	75	Blank	AvoidedLoss	True
713.116	1.45	Lose2	0.6711	n/a	Yes	2.932	n/a	5.0	GoodResponse	0	0.024	712.14	14	75	Feedback	AvoidedLoss	True
714.566	2.932	Lose2	0.6711	n/a	Yes	2.932	n/a	n/a	GoodResponse	0	0.0	n/a	14	75	ISIslide	AvoidedLoss	True
717.515	0.25	Control	0.6753	0.0	Yes	3.235	0.015	n/a	GoodResponse	0	n/a	n/a	14	76	Cue	Neutral	True
717.765	4.05	Control	0.6753	0.0	Yes	3.235	0.0	n/a	GoodResponse	0	n/a	n/a	14	76	Fixation	Neutral	True
721.813	0.38	Control	0.6753	0.002	Yes	3.235	-0.002	2.0	GoodResponse	0	0.181	720.994	14	76	Target	Neutral	True
721.994	0.3	Control	0.6753	0.002	Yes	3.235	-0.002	2.0	GoodResponse	0	0.181	n/a	14	76	ButtonPress	Neutral	True
722.196	0.32	Control	0.6753	n/a	Yes	3.235	n/a	n/a	GoodResponse	0	n/a	n/a	14	76	Blank	Neutral	True
722.513	1.45	Control	0.6753	n/a	Yes	3.235	n/a	5.0	GoodResponse	0	0.0	721.513	14	76	Feedback	Neutral	True
723.962	3.235	Control	0.6753	n/a	Yes	3.235	n/a	n/a	GoodResponse	0	0.0	n/a	14	76	ISIslide	Neutral	True
727.228	0.25	Lose2	0.6795	0.0	Yes	2.572	0.028	n/a	GoodResponse	0	n/a	n/a	14	77	Cue	AvoidedLoss	True
727.478	3.95	Lose2	0.6795	0.0	Yes	2.572	0.0	n/a	GoodResponse	0	n/a	n/a	14	77	Fixation	AvoidedLoss	True
731.426	0.37	Lose2	0.6795	0.002	Yes	2.572	-0.002	2.0	GoodResponse	0	0.178	730.604	14	77	Target	AvoidedLoss	True
731.604	0.3	Lose2	0.6795	0.002	Yes	2.572	-0.002	2.0	GoodResponse	0	0.178	n/a	14	77	ButtonPress	AvoidedLoss	True
731.81	0.33	Lose2	0.6795	n/a	Yes	2.572	n/a	n/a	GoodResponse	0	n/a	n/a	14	77	Blank	AvoidedLoss	True
732.126	1.45	Lose2	0.6795	n/a	Yes	2.572	n/a	5.0	GoodResponse	0	0.039	731.165	14	77	Feedback	AvoidedLoss	True
733.576	2.572	Lose2	0.6795	n/a	Yes	2.572	n/a	n/a	GoodResponse	0	0.0	n/a	14	77	ISIslide	AvoidedLoss	True
