onset	duration	cue_type	current_mean_accuracy	duration_error	is_hit	isi_adjusted	onset_delay	response	response_type	reward	rt	rt_time	total_reward	trial_number	trial_phase	trial_type	one_press
11.11	0.25	Control	1.0	0.0	Yes	2.94	0.01	n/a	GoodResponse	0	n/a	n/a	0	0	Cue	Neutral	True
11.361	3.85	Control	1.0	0.0	Yes	2.94	0.001	n/a	GoodResponse	0	n/a	n/a	0	0	Fixation	Neutral	True
15.222	0.4	Control	1.0	0.0	Yes	2.94	0.012	4.0	GoodResponse	0	0.168	14.39	0	0	Target	Neutral	True
15.39	0.3	Control	1.0	0.0	Yes	2.94	0.012	4.0	GoodResponse	0	0.168	n/a	0	0	ButtonPress	Neutral	True
15.607	0.3	Control	1.0	n/a	Yes	2.94	n/a	n/a	GoodResponse	0	n/a	n/a	0	0	Blank	Neutral	True
15.908	1.45	Control	1.0	n/a	Yes	2.94	n/a	5.0	GoodResponse	0	0.019	14.927	0	0	Feedback	Neutral	True
17.362	2.94	Control	1.0	n/a	Yes	2.94	n/a	n/a	GoodResponse	0	0.0	n/a	0	0	ISIslide	Neutral	True
20.321	0.25	Lose2	1.0	0.0	Yes	2.779	0.021	n/a	GoodResponse	0	n/a	n/a	0	1	Cue	AvoidedLoss	True
20.572	4.0	Lose2	1.0	0.0	Yes	2.779	0.001	n/a	GoodResponse	0	n/a	n/a	0	1	Fixation	AvoidedLoss	True
24.567	0.39	Lose2	1.0	0.004	Yes	2.779	-0.004	4.0	GoodResponse	0	0.168	23.735	0	1	Target	AvoidedLoss	True
24.735	0.3	Lose2	1.0	0.004	Yes	2.779	-0.004	4.0	GoodResponse	0	0.168	n/a	0	1	ButtonPress	AvoidedLoss	True
24.968	0.31	Lose2	1.0	n/a	Yes	2.779	n/a	n/a	GoodResponse	0	n/a	n/a	0	1	Blank	AvoidedLoss	True
25.269	1.45	Lose2	1.0	n/a	Yes	2.779	n/a	5.0	GoodResponse	0	0.024	24.293	0	1	Feedback	AvoidedLoss	True
26.723	2.779	Lose2	1.0	n/a	Yes	2.779	n/a	n/a	GoodResponse	0	0.0	n/a	0	1	ISIslide	AvoidedLoss	True
29.515	0.25	Control	1.0	0.0	Yes	2.585	0.015	n/a	GoodResponse	0	n/a	n/a	0	2	Cue	Neutral	False
29.766	4.1	Control	1.0	0.0	Yes	2.585	0.001	4.0	GoodResponse	0	3.6	32.366	0	2	Fixation	Neutral	False
33.366	0.3	Control	1.0	0.0	Yes	2.585	0.001	4.0	GoodResponse	0	3.6	n/a	0	2	ButtonPress	Neutral	False
33.861	0.38	Control	1.0	0.004	Yes	2.585	-0.004	4.0	GoodResponse	0	0.157	33.018	0	2	Target	Neutral	False
34.018	0.3	Control	1.0	0.004	Yes	2.585	-0.004	4.0	GoodResponse	0	0.157	n/a	0	2	ButtonPress	Neutral	False
34.246	0.32	Control	1.0	n/a	Yes	2.585	n/a	n/a	GoodResponse	0	n/a	n/a	0	2	Blank	Neutral	False
34.563	1.45	Control	1.0	n/a	Yes	2.585	n/a	5.0	GoodResponse	0	0.047	33.61	0	2	Feedback	Neutral	False
36.018	2.585	Control	1.0	n/a	Yes	2.585	n/a	n/a	GoodResponse	0	0.0	n/a	0	2	ISIslide	Neutral	False
38.626	0.25	Win2	1.0	0.0	Yes	2.824	0.026	n/a	GoodResponse	1	n/a	n/a	1	3	Cue	Win	True
38.876	3.95	Win2	1.0	0.0	Yes	2.824	0.0	n/a	GoodResponse	1	n/a	n/a	1	3	Fixation	Win	True
42.822	0.37	Win2	1.0	0.004	Yes	2.824	-0.004	4.0	GoodResponse	1	0.175	41.997	1	3	Target	Win	True
42.997	0.3	Win2	1.0	0.004	Yes	2.824	-0.004	4.0	GoodResponse	1	0.175	n/a	1	3	ButtonPress	Win	True
43.206	0.33	Win2	1.0	n/a	Yes	2.824	n/a	n/a	GoodResponse	1	n/a	n/a	1	3	Blank	Win	True
43.524	1.45	Win2	1.0	n/a	Yes	2.824	n/a	5.0	GoodResponse	1	0.013	42.537	1	3	Feedback	Win	True
44.978	2.824	Win2	1.0	n/a	Yes	2.824	n/a	n/a	GoodResponse	1	0.0	n/a	1	3	ISIslide	Win	True
47.82	0.25	Win2	0.8	0.0	No	3.28	0.02	n/a	NoResponse	0	n/a	n/a	1	4	Cue	MissedWin	True
48.071	4.0	Win2	0.8	0.0	No	3.28	0.001	4.0	NoResponse	0	3.933	51.004	1	4	Fixation	MissedWin	True
52.004	0.3	Win2	0.8	0.0	No	3.28	0.001	4.0	NoResponse	0	3.933	n/a	1	4	ButtonPress	MissedWin	True
52.066	0.36	Win2	0.8	0.004	No	3.28	-0.004	n/a	NoResponse	0	n/a	n/a	1	4	Target	MissedWin	True
52.434	0.34	Win2	0.8	n/a	No	3.28	n/a	n/a	NoResponse	0	n/a	n/a	1	4	Blank	MissedWin	True
52.768	1.45	Win2	0.8	n/a	No	3.28	n/a	5.0	NoResponse	0	0.036	51.804	1	4	Feedback	MissedWin	True
54.222	3.28	Win2	0.8	n/a	No	3.28	n/a	n/a	NoResponse	0	0.0	n/a	1	4	ISIslide	MissedWin	True
57.516	0.25	Win2	0.8332999999999999	0.0	Yes	2.784	0.016	n/a	GoodResponse	1	n/a	n/a	2	5	Cue	Win	True
57.766	4.0	Win2	0.8332999999999999	0.0	Yes	2.784	0.0	n/a	GoodResponse	1	n/a	n/a	2	5	Fixation	Win	True
61.762	0.35	Win2	0.8332999999999999	0.004	Yes	2.784	-0.004	4.0	GoodResponse	1	0.209	60.971	2	5	Target	Win	True
61.971	0.3	Win2	0.8332999999999999	0.004	Yes	2.784	-0.004	4.0	GoodResponse	1	0.209	n/a	2	5	ButtonPress	Win	True
62.113	0.35	Win2	0.8332999999999999	n/a	Yes	2.784	n/a	n/a	GoodResponse	1	n/a	n/a	2	5	Blank	Win	True
62.464	1.45	Win2	0.8332999999999999	n/a	Yes	2.784	n/a	5.0	GoodResponse	1	0.048	61.512	2	5	Feedback	Win	True
63.918	2.784	Win2	0.8332999999999999	n/a	Yes	2.784	n/a	n/a	GoodResponse	1	0.0	n/a	2	5	ISIslide	Win	True
66.726	0.25	Lose2	0.8571	0.001	Yes	2.724	0.026	n/a	GoodResponse	0	n/a	n/a	2	6	Cue	AvoidedLoss	True
66.977	3.95	Lose2	0.8571	0.0	Yes	2.724	0.001	n/a	GoodResponse	0	n/a	n/a	2	6	Fixation	AvoidedLoss	True
70.922	0.34	Lose2	0.8571	0.004	Yes	2.724	-0.004	4.0	GoodResponse	0	0.193	70.115	2	6	Target	AvoidedLoss	True
71.115	0.3	Lose2	0.8571	0.004	Yes	2.724	-0.004	4.0	GoodResponse	0	0.193	n/a	2	6	ButtonPress	AvoidedLoss	True
71.273	0.36	Lose2	0.8571	n/a	Yes	2.724	n/a	n/a	GoodResponse	0	n/a	n/a	2	6	Blank	AvoidedLoss	True
71.624	1.45	Lose2	0.8571	n/a	Yes	2.724	n/a	5.0	GoodResponse	0	0.01	70.634	2	6	Feedback	AvoidedLoss	True
73.079	2.724	Lose2	0.8571	n/a	Yes	2.724	n/a	n/a	GoodResponse	0	0.0	n/a	2	6	ISIslide	AvoidedLoss	True
75.82	0.25	Lose2	0.875	0.0	Yes	4.03	0.02	n/a	GoodResponse	0	n/a	n/a	2	7	Cue	AvoidedLoss	False
76.071	4.05	Lose2	0.875	0.0	Yes	4.03	0.001	4.0	GoodResponse	0	3.941	79.012	2	7	Fixation	AvoidedLoss	False
80.012	0.3	Lose2	0.875	0.0	Yes	4.03	0.001	4.0	GoodResponse	0	3.941	n/a	2	7	ButtonPress	AvoidedLoss	False
80.117	0.33	Lose2	0.875	0.003	Yes	4.03	-0.003	4.0	GoodResponse	0	0.233	79.35	2	7	Target	AvoidedLoss	False
80.35	0.3	Lose2	0.875	0.003	Yes	4.03	-0.003	4.0	GoodResponse	0	0.233	n/a	2	7	ButtonPress	AvoidedLoss	False
80.451	0.37	Lose2	0.875	n/a	Yes	4.03	n/a	n/a	GoodResponse	0	n/a	n/a	2	7	Blank	AvoidedLoss	False
80.819	1.45	Lose2	0.875	n/a	Yes	4.03	n/a	5.0	GoodResponse	0	0.034	79.853	2	7	Feedback	AvoidedLoss	False
82.273	4.03	Lose2	0.875	n/a	Yes	4.03	n/a	n/a	GoodResponse	0	0.0	n/a	2	7	ISIslide	AvoidedLoss	False
86.319	0.25	Lose2	0.8889	0.0	Yes	3.031	0.019	n/a	GoodResponse	0	n/a	n/a	2	8	Cue	AvoidedLoss	False
86.569	3.95	Lose2	0.8889	0.0	Yes	3.031	0.0	4.0	GoodResponse	0	3.726	89.295	2	8	Fixation	AvoidedLoss	False
90.295	0.3	Lose2	0.8889	0.0	Yes	3.031	0.0	4.0	GoodResponse	0	3.726	n/a	2	8	ButtonPress	AvoidedLoss	False
90.531	0.32	Lose2	0.8889	0.0	Yes	3.031	0.012	4.0	GoodResponse	0	0.183	89.714	2	8	Target	AvoidedLoss	False
90.714	0.3	Lose2	0.8889	0.0	Yes	3.031	0.012	4.0	GoodResponse	0	0.183	n/a	2	8	ButtonPress	AvoidedLoss	False
90.849	0.38	Lose2	0.8889	n/a	Yes	3.031	n/a	n/a	GoodResponse	0	n/a	n/a	2	8	Blank	AvoidedLoss	False
91.217	1.45	Lose2	0.8889	n/a	Yes	3.031	n/a	5.0	GoodResponse	0	0.027	90.244	2	8	Feedback	AvoidedLoss	False
92.671	3.031	Lose2	0.8889	n/a	Yes	3.031	n/a	n/a	GoodResponse	0	0.0	n/a	2	8	ISIslide	AvoidedLoss	False
95.73	0.25	Lose2	0.9	0.0	Yes	3.12	0.03	n/a	GoodResponse	0	n/a	n/a	2	9	Cue	AvoidedLoss	True
95.981	3.95	Lose2	0.9	0.0	Yes	3.12	0.001	n/a	GoodResponse	0	n/a	n/a	2	9	Fixation	AvoidedLoss	True
99.926	0.31	Lose2	0.9	0.004	Yes	3.12	-0.004	4.0	GoodResponse	0	0.199	99.125	2	9	Target	AvoidedLoss	True
100.125	0.3	Lose2	0.9	0.004	Yes	3.12	-0.004	4.0	GoodResponse	0	0.199	n/a	2	9	ButtonPress	AvoidedLoss	True
100.244	0.39	Lose2	0.9	n/a	Yes	3.12	n/a	n/a	GoodResponse	0	n/a	n/a	2	9	Blank	AvoidedLoss	True
100.628	1.45	Lose2	0.9	n/a	Yes	3.12	n/a	5.0	GoodResponse	0	0.031	99.659	2	9	Feedback	AvoidedLoss	True
102.082	3.12	Lose2	0.9	n/a	Yes	3.12	n/a	n/a	GoodResponse	0	0.0	n/a	2	9	ISIslide	AvoidedLoss	True
105.225	0.25	Control	0.9091	0.0	Yes	3.275	0.025	n/a	GoodResponse	0	n/a	n/a	2	10	Cue	Neutral	True
105.476	4.0	Control	0.9091	0.0	Yes	3.275	0.001	n/a	GoodResponse	0	n/a	n/a	2	10	Fixation	Neutral	True
109.471	0.3	Control	0.9091	0.004	Yes	3.275	-0.004	4.0	GoodResponse	0	0.169	108.64	2	10	Target	Neutral	True
109.64	0.3	Control	0.9091	0.004	Yes	3.275	-0.004	4.0	GoodResponse	0	0.169	n/a	2	10	ButtonPress	Neutral	True
109.772	0.4	Control	0.9091	n/a	Yes	3.275	n/a	n/a	GoodResponse	0	n/a	n/a	2	10	Blank	Neutral	True
110.173	1.45	Control	0.9091	n/a	Yes	3.275	n/a	5.0	GoodResponse	0	0.046	109.219	2	10	Feedback	Neutral	True
111.628	3.275	Control	0.9091	n/a	Yes	3.275	n/a	n/a	GoodResponse	0	0.0	n/a	2	10	ISIslide	Neutral	True
114.921	0.25	Lose2	0.9167000000000001	0.0	Yes	2.729	0.021	n/a	GoodResponse	0	n/a	n/a	2	11	Cue	AvoidedLoss	True
115.172	4.05	Lose2	0.9167000000000001	0.0	Yes	2.729	0.001	n/a	GoodResponse	0	n/a	n/a	2	11	Fixation	AvoidedLoss	True
119.217	0.29	Lose2	0.9167000000000001	0.004	Yes	2.729	-0.004	4.0	GoodResponse	0	0.161	118.378	2	11	Target	AvoidedLoss	True
119.378	0.3	Lose2	0.9167000000000001	0.004	Yes	2.729	-0.004	4.0	GoodResponse	0	0.161	n/a	2	11	ButtonPress	AvoidedLoss	True
119.518	0.41	Lose2	0.9167000000000001	n/a	Yes	2.729	n/a	n/a	GoodResponse	0	n/a	n/a	2	11	Blank	AvoidedLoss	True
119.919	1.45	Lose2	0.9167000000000001	n/a	Yes	2.729	n/a	5.0	GoodResponse	0	0.007	118.926	2	11	Feedback	AvoidedLoss	True
121.374	2.729	Lose2	0.9167000000000001	n/a	Yes	2.729	n/a	n/a	GoodResponse	0	0.0	n/a	2	11	ISIslide	AvoidedLoss	True
124.115	0.25	Control	0.9231	0.0	Yes	2.985	0.015	n/a	GoodResponse	0	n/a	n/a	2	12	Cue	Neutral	True
124.366	3.9	Control	0.9231	0.0	Yes	2.985	0.001	n/a	GoodResponse	0	n/a	n/a	2	12	Fixation	Neutral	True
128.261	0.28	Control	0.9231	0.004	Yes	2.985	-0.004	4.0	GoodResponse	0	0.163	127.424	2	12	Target	Neutral	True
128.424	0.3	Control	0.9231	0.004	Yes	2.985	-0.004	4.0	GoodResponse	0	0.163	n/a	2	12	ButtonPress	Neutral	True
128.545	0.42	Control	0.9231	n/a	Yes	2.985	n/a	n/a	GoodResponse	0	n/a	n/a	2	12	Blank	Neutral	True
128.963	1.45	Control	0.9231	n/a	Yes	2.985	n/a	5.0	GoodResponse	0	0.036	127.999	2	12	Feedback	Neutral	True
130.417	2.985	Control	0.9231	n/a	Yes	2.985	n/a	n/a	GoodResponse	0	0.0	n/a	2	12	ISIslide	Neutral	True
133.426	0.25	Control	0.9286	0.0	Yes	2.774	0.026	n/a	GoodResponse	0	n/a	n/a	2	13	Cue	Neutral	True
133.677	4.0	Control	0.9286	0.0	Yes	2.774	0.001	n/a	GoodResponse	0	n/a	n/a	2	13	Fixation	Neutral	True
137.672	0.27	Control	0.9286	0.004	Yes	2.774	-0.004	4.0	GoodResponse	0	0.175	136.847	2	13	Target	Neutral	True
137.847	0.3	Control	0.9286	0.004	Yes	2.774	-0.004	4.0	GoodResponse	0	0.175	n/a	2	13	ButtonPress	Neutral	True
137.957	0.43	Control	0.9286	n/a	Yes	2.774	n/a	n/a	GoodResponse	0	n/a	n/a	2	13	Blank	Neutral	True
138.374	1.45	Control	0.9286	n/a	Yes	2.774	n/a	5.0	GoodResponse	0	0.04	137.414	2	13	Feedback	Neutral	True
139.829	2.774	Control	0.9286	n/a	Yes	2.774	n/a	n/a	GoodResponse	0	0.0	n/a	2	13	ISIslide	Neutral	True
142.621	0.25	Win2	0.9333	0.0	Yes	2.679	0.021	n/a	GoodResponse	1	n/a	n/a	3	14	Cue	Win	True
142.871	4.1	Win2	0.9333	0.0	Yes	2.679	0.0	n/a	GoodResponse	1	n/a	n/a	3	14	Fixation	Win	True
146.967	0.26	Win2	0.9333	0.004	Yes	2.679	-0.004	4.0	GoodResponse	1	0.174	146.141	3	14	Target	Win	True
147.141	0.3	Win2	0.9333	0.004	Yes	2.679	-0.004	4.0	GoodResponse	1	0.174	n/a	3	14	ButtonPress	Win	True
147.234	0.44	Win2	0.9333	n/a	Yes	2.679	n/a	n/a	GoodResponse	1	n/a	n/a	3	14	Blank	Win	True
147.669	1.45	Win2	0.9333	n/a	Yes	2.679	n/a	5.0	GoodResponse	1	0.013	146.682	3	14	Feedback	Win	True
149.123	2.679	Win2	0.9333	n/a	Yes	2.679	n/a	n/a	GoodResponse	1	0.0	n/a	3	14	ISIslide	Win	True
151.815	0.25	Control	0.9375	0.0	Yes	2.985	0.015	n/a	GoodResponse	0	n/a	n/a	3	15	Cue	Neutral	True
152.066	4.0	Control	0.9375	0.0	Yes	2.985	0.001	n/a	GoodResponse	0	n/a	n/a	3	15	Fixation	Neutral	True
156.061	0.25	Control	0.9375	0.004	Yes	2.985	-0.004	4.0	GoodResponse	0	0.176	155.237	3	15	Target	Neutral	True
156.237	0.3	Control	0.9375	0.004	Yes	2.985	-0.004	4.0	GoodResponse	0	0.176	n/a	3	15	ButtonPress	Neutral	True
156.312	0.45	Control	0.9375	n/a	Yes	2.985	n/a	n/a	GoodResponse	0	n/a	n/a	3	15	Blank	Neutral	True
156.763	1.45	Control	0.9375	n/a	Yes	2.985	n/a	5.0	GoodResponse	0	0.041	155.804	3	15	Feedback	Neutral	True
158.217	2.985	Control	0.9375	n/a	Yes	2.985	n/a	n/a	GoodResponse	0	0.0	n/a	3	15	ISIslide	Neutral	True
161.226	0.25	Win2	0.9412	0.0	Yes	2.874	0.026	n/a	GoodResponse	1	n/a	n/a	4	16	Cue	Win	True
161.477	4.0	Win2	0.9412	0.0	Yes	2.874	0.001	n/a	GoodResponse	1	n/a	n/a	4	16	Fixation	Win	True
165.472	0.24	Win2	0.9412	0.004	Yes	2.874	-0.004	4.0	GoodResponse	1	0.172	164.644	4	16	Target	Win	True
165.644	0.3	Win2	0.9412	0.004	Yes	2.874	-0.004	4.0	GoodResponse	1	0.172	n/a	4	16	ButtonPress	Win	True
165.723	0.46	Win2	0.9412	n/a	Yes	2.874	n/a	n/a	GoodResponse	1	n/a	n/a	4	16	Blank	Win	True
166.174	1.45	Win2	0.9412	n/a	Yes	2.874	n/a	5.0	GoodResponse	1	0.044	165.218	4	16	Feedback	Win	True
167.629	2.874	Win2	0.9412	n/a	Yes	2.874	n/a	n/a	GoodResponse	1	0.0	n/a	4	16	ISIslide	Win	True
170.521	0.25	Lose2	0.9444	0.0	Yes	2.729	0.021	n/a	GoodResponse	0	n/a	n/a	4	17	Cue	AvoidedLoss	True
170.772	3.95	Lose2	0.9444	0.0	Yes	2.729	0.001	n/a	GoodResponse	0	n/a	n/a	4	17	Fixation	AvoidedLoss	True
174.717	0.23	Lose2	0.9444	0.004	Yes	2.729	-0.004	4.0	GoodResponse	0	0.157	173.874	4	17	Target	AvoidedLoss	True
174.874	0.3	Lose2	0.9444	0.004	Yes	2.729	-0.004	4.0	GoodResponse	0	0.157	n/a	4	17	ButtonPress	AvoidedLoss	True
174.951	0.47	Lose2	0.9444	n/a	Yes	2.729	n/a	n/a	GoodResponse	0	n/a	n/a	4	17	Blank	AvoidedLoss	True
175.419	1.45	Lose2	0.9444	n/a	Yes	2.729	n/a	5.0	GoodResponse	0	0.019	174.438	4	17	Feedback	AvoidedLoss	True
176.873	2.729	Lose2	0.9444	n/a	Yes	2.729	n/a	n/a	GoodResponse	0	0.0	n/a	4	17	ISIslide	AvoidedLoss	True
179.615	0.25	Lose2	0.9473999999999999	0.0	Yes	2.735	0.015	n/a	GoodResponse	0	n/a	n/a	4	18	Cue	AvoidedLoss	True
179.865	4.05	Lose2	0.9473999999999999	0.001	Yes	2.735	0.0	n/a	GoodResponse	0	n/a	n/a	4	18	Fixation	AvoidedLoss	True
183.911	0.22	Lose2	0.9473999999999999	0.004	Yes	2.735	-0.004	4.0	GoodResponse	0	0.177	183.088	4	18	Target	AvoidedLoss	True
184.088	0.3	Lose2	0.9473999999999999	0.004	Yes	2.735	-0.004	4.0	GoodResponse	0	0.177	n/a	4	18	ButtonPress	AvoidedLoss	True
184.145	0.48	Lose2	0.9473999999999999	n/a	Yes	2.735	n/a	n/a	GoodResponse	0	n/a	n/a	4	18	Blank	AvoidedLoss	True
184.613	1.45	Lose2	0.9473999999999999	n/a	Yes	2.735	n/a	5.0	GoodResponse	0	0.044	183.657	4	18	Feedback	AvoidedLoss	True
186.067	2.735	Lose2	0.9473999999999999	n/a	Yes	2.735	n/a	n/a	GoodResponse	0	0.0	n/a	4	18	ISIslide	AvoidedLoss	True
188.826	0.25	Control	0.95	0.0	Yes	2.924	0.026	n/a	GoodResponse	0	n/a	n/a	4	19	Cue	Neutral	True
189.076	3.95	Control	0.95	0.0	Yes	2.924	0.0	n/a	GoodResponse	0	n/a	n/a	4	19	Fixation	Neutral	True
193.022	0.21	Control	0.95	0.004	Yes	2.924	-0.004	4.0	GoodResponse	0	0.167	192.189	4	19	Target	Neutral	True
193.189	0.3	Control	0.95	0.004	Yes	2.924	-0.004	4.0	GoodResponse	0	0.167	n/a	4	19	ButtonPress	Neutral	True
193.239	0.49	Control	0.95	n/a	Yes	2.924	n/a	n/a	GoodResponse	0	n/a	n/a	4	19	Blank	Neutral	True
193.724	1.45	Control	0.95	n/a	Yes	2.924	n/a	5.0	GoodResponse	0	0.007	192.731	4	19	Feedback	Neutral	True
195.178	2.924	Control	0.95	n/a	Yes	2.924	n/a	n/a	GoodResponse	0	0.0	n/a	4	19	ISIslide	Neutral	True
198.12	0.25	Control	0.9523999999999999	0.0	Yes	2.63	0.02	n/a	GoodResponse	0	n/a	n/a	4	20	Cue	Neutral	True
198.371	4.05	Control	0.9523999999999999	0.0	Yes	2.63	0.001	n/a	GoodResponse	0	n/a	n/a	4	20	Fixation	Neutral	True
202.416	0.2	Control	0.9523999999999999	0.004	Yes	2.63	-0.004	4.0	GoodResponse	0	0.165	201.581	4	20	Target	Neutral	True
202.581	0.3	Control	0.9523999999999999	0.004	Yes	2.63	-0.004	4.0	GoodResponse	0	0.165	n/a	4	20	ButtonPress	Neutral	True
202.617	0.5	Control	0.9523999999999999	n/a	Yes	2.63	n/a	n/a	GoodResponse	0	n/a	n/a	4	20	Blank	Neutral	True
203.118	1.45	Control	0.9523999999999999	n/a	Yes	2.63	n/a	5.0	GoodResponse	0	0.027	202.145	4	20	Feedback	Neutral	True
204.573	2.63	Control	0.9523999999999999	n/a	Yes	2.63	n/a	n/a	GoodResponse	0	0.0	n/a	4	20	ISIslide	Neutral	True
207.214	0.25	Control	0.9545	0.0	Yes	2.786	0.014	n/a	GoodResponse	0	n/a	n/a	4	21	Cue	Neutral	False
207.465	4.1	Control	0.9545	0.0	Yes	2.786	0.001	4.0	GoodResponse	0	3.913	210.378	4	21	Fixation	Neutral	False
211.378	0.3	Control	0.9545	0.0	Yes	2.786	0.001	4.0	GoodResponse	0	3.913	n/a	4	21	ButtonPress	Neutral	False
211.56	0.19	Control	0.9545	0.004	Yes	2.786	-0.004	4.0	GoodResponse	0	0.172	210.732	4	21	Target	Neutral	False
211.732	0.3	Control	0.9545	0.004	Yes	2.786	-0.004	4.0	GoodResponse	0	0.172	n/a	4	21	ButtonPress	Neutral	False
211.761	0.51	Control	0.9545	n/a	Yes	2.786	n/a	n/a	GoodResponse	0	n/a	n/a	4	21	Blank	Neutral	False
212.263	1.45	Control	0.9545	n/a	Yes	2.786	n/a	5.0	GoodResponse	0	0.004	211.267	4	21	Feedback	Neutral	False
213.717	2.786	Control	0.9545	n/a	Yes	2.786	n/a	n/a	GoodResponse	0	0.0	n/a	4	21	ISIslide	Neutral	False
216.525	0.25	Control	0.9129999999999999	0.0	No	2.775	0.025	n/a	LatePress	0	n/a	n/a	4	22	Cue	Neutral	True
216.776	4.0	Control	0.9129999999999999	0.0	No	2.775	0.001	n/a	LatePress	0	n/a	n/a	4	22	Fixation	Neutral	True
220.771	0.18	Control	0.9129999999999999	0.004	No	2.775	-0.004	4.0	LatePress	0	0.181	219.952	4	22	Target	Neutral	True
220.952	0.3	Control	0.9129999999999999	0.004	No	2.775	-0.004	4.0	LatePress	0	0.181	n/a	4	22	ButtonPress	Neutral	True
220.955	0.52	Control	0.9129999999999999	n/a	No	2.775	n/a	n/a	LatePress	0	n/a	n/a	4	22	Blank	Neutral	True
221.473	1.45	Control	0.9129999999999999	n/a	No	2.775	n/a	5.0	LatePress	0	0.014	220.487	4	22	Feedback	Neutral	True
222.928	2.775	Control	0.9129999999999999	n/a	No	2.775	n/a	n/a	LatePress	0	0.0	n/a	4	22	ISIslide	Neutral	True
225.72	0.25	Control	0.875	0.0	No	2.78	0.02	n/a	NoResponse	0	n/a	n/a	4	23	Cue	Neutral	True
225.97	3.9	Control	0.875	0.0	No	2.78	0.0	n/a	NoResponse	0	n/a	n/a	4	23	Fixation	Neutral	True
229.882	0.17	Control	0.875	0.0	No	2.78	0.012	4.0	NoResponse	0	0.176	229.058	4	23	Target	Neutral	True
230.049	0.53	Control	0.875	n/a	No	2.78	n/a	n/a	NoResponse	0	n/a	n/a	4	23	Blank	Neutral	True
230.058	0.3	Control	0.875	0.0	No	2.78	0.012	4.0	NoResponse	0	0.176	n/a	4	23	ButtonPress	Neutral	True
230.567	1.45	Control	0.875	n/a	No	2.78	n/a	5.0	NoResponse	0	0.041	229.608	4	23	Feedback	Neutral	True
232.022	2.78	Control	0.875	n/a	No	2.78	n/a	n/a	NoResponse	0	0.0	n/a	4	23	ISIslide	Neutral	True
234.813	0.25	Win2	0.84	0.001	No	3.137	0.013	n/a	LatePress	0	n/a	n/a	4	24	Cue	MissedWin	True
235.064	3.95	Win2	0.84	0.0	No	3.137	0.001	n/a	LatePress	0	n/a	n/a	4	24	Fixation	MissedWin	True
239.009	0.16	Win2	0.84	0.004	No	3.137	-0.004	4.0	LatePress	0	0.162	238.171	4	24	Target	MissedWin	True
239.171	0.3	Win2	0.84	0.004	No	3.137	-0.004	4.0	LatePress	0	0.162	n/a	4	24	ButtonPress	MissedWin	True
239.177	0.54	Win2	0.84	n/a	No	3.137	n/a	n/a	LatePress	0	n/a	n/a	4	24	Blank	MissedWin	True
239.711	1.45	Win2	0.84	n/a	No	3.137	n/a	5.0	LatePress	0	0.019	238.73	4	24	Feedback	MissedWin	True
241.166	3.137	Win2	0.84	n/a	No	3.137	n/a	n/a	LatePress	0	0.0	n/a	4	24	ISIslide	MissedWin	True
244.325	0.25	Win2	0.8077	0.0	No	3.075	0.025	n/a	NoResponse	0	n/a	n/a	4	25	Cue	MissedWin	True
244.576	4.0	Win2	0.8077	0.0	No	3.075	0.001	n/a	NoResponse	0	n/a	n/a	4	25	Fixation	MissedWin	True
248.571	0.15	Win2	0.8077	0.004	No	3.075	-0.004	4.0	NoResponse	0	0.172	247.743	4	25	Target	MissedWin	True
248.722	0.55	Win2	0.8077	n/a	No	3.075	n/a	n/a	NoResponse	0	n/a	n/a	4	25	Blank	MissedWin	True
248.743	0.3	Win2	0.8077	0.004	No	3.075	-0.004	4.0	NoResponse	0	0.172	n/a	4	25	ButtonPress	MissedWin	True
249.273	1.45	Win2	0.8077	n/a	No	3.075	n/a	5.0	NoResponse	0	0.018	248.291	4	25	Feedback	MissedWin	True
250.728	3.075	Win2	0.8077	n/a	No	3.075	n/a	n/a	NoResponse	0	0.0	n/a	4	25	ISIslide	MissedWin	True
253.82	0.25	Win2	0.7778	0.0	No	2.93	0.02	n/a	NoResponse	0	n/a	n/a	4	26	Cue	MissedWin	False
254.071	3.95	Win2	0.7778	0.0	No	2.93	0.001	4.0	NoResponse	0	3.778	256.849	4	26	Fixation	MissedWin	False
257.849	0.3	Win2	0.7778	0.0	No	2.93	0.001	4.0	NoResponse	0	3.778	n/a	4	26	ButtonPress	MissedWin	False
258.016	0.15	Win2	0.7778	0.004	No	2.93	-0.004	4.0	NoResponse	0	0.207	257.223	4	26	Target	MissedWin	False
258.167	0.55	Win2	0.7778	n/a	No	2.93	n/a	n/a	NoResponse	0	n/a	n/a	4	26	Blank	MissedWin	False
258.223	0.3	Win2	0.7778	0.004	No	2.93	-0.004	4.0	NoResponse	0	0.207	n/a	4	26	ButtonPress	MissedWin	False
258.718	1.45	Win2	0.7778	n/a	No	2.93	n/a	5.0	NoResponse	0	0.037	257.755	4	26	Feedback	MissedWin	False
260.173	2.93	Win2	0.7778	n/a	No	2.93	n/a	n/a	NoResponse	0	0.0	n/a	4	26	ISIslide	MissedWin	False
263.115	0.25	Lose2	0.75	0.0	No	2.835	0.015	n/a	NoResponse	-1	n/a	n/a	3	27	Cue	Loss	True
263.366	4.05	Lose2	0.75	0.0	No	2.835	0.001	n/a	NoResponse	-1	n/a	n/a	3	27	Fixation	Loss	True
267.411	0.15	Lose2	0.75	0.004	No	2.835	-0.004	4.0	NoResponse	-1	0.169	266.58	3	27	Target	Loss	True
267.562	0.55	Lose2	0.75	n/a	No	2.835	n/a	n/a	NoResponse	-1	n/a	n/a	3	27	Blank	Loss	True
267.58	0.3	Lose2	0.75	0.004	No	2.835	-0.004	4.0	NoResponse	-1	0.169	n/a	3	27	ButtonPress	Loss	True
268.113	1.45	Lose2	0.75	n/a	No	2.835	n/a	5.0	NoResponse	-1	0.008	267.121	3	27	Feedback	Loss	True
269.568	2.835	Lose2	0.75	n/a	No	2.835	n/a	n/a	NoResponse	-1	0.0	n/a	3	27	ISIslide	Loss	True
272.426	0.25	Control	0.7241	0.0	No	2.824	0.026	n/a	LatePress	0	n/a	n/a	3	28	Cue	Neutral	True
272.677	4.05	Control	0.7241	0.0	No	2.824	0.001	n/a	LatePress	0	n/a	n/a	3	28	Fixation	Neutral	True
276.722	0.15	Control	0.7241	0.004	No	2.824	-0.004	4.0	LatePress	0	0.15	275.872	3	28	Target	Neutral	True
276.872	0.3	Control	0.7241	0.004	No	2.824	-0.004	4.0	LatePress	0	0.15	n/a	3	28	ButtonPress	Neutral	True
276.873	0.55	Control	0.7241	n/a	No	2.824	n/a	n/a	LatePress	0	n/a	n/a	3	28	Blank	Neutral	True
277.424	1.45	Control	0.7241	n/a	No	2.824	n/a	5.0	LatePress	0	0.014	276.438	3	28	Feedback	Neutral	True
278.879	2.824	Control	0.7241	n/a	No	2.824	n/a	n/a	LatePress	0	0.0	n/a	3	28	ISIslide	Neutral	True
281.721	0.25	Lose2	0.7	0.0	No	2.829	0.021	n/a	PrematurePress	-1	n/a	n/a	2	29	Cue	Loss	False
281.971	3.95	Lose2	0.7	0.001	No	2.829	0.0	4.0	PrematurePress	-1	3.602	284.573	2	29	Fixation	Loss	False
285.573	0.3	Lose2	0.7	0.001	No	2.829	0.0	4.0	PrematurePress	-1	3.602	n/a	2	29	ButtonPress	Loss	False
285.917	0.15	Lose2	0.7	0.004	No	2.829	-0.004	4.0	PrematurePress	-1	0.017	284.934	2	29	Target	Loss	False
285.934	0.3	Lose2	0.7	0.004	No	2.829	-0.004	4.0	PrematurePress	-1	0.017	n/a	2	29	ButtonPress	Loss	False
286.067	0.55	Lose2	0.7	n/a	No	2.829	n/a	n/a	PrematurePress	-1	n/a	n/a	2	29	Blank	Loss	False
286.619	1.45	Lose2	0.7	n/a	No	2.829	n/a	5.0	PrematurePress	-1	0.038	285.657	2	29	Feedback	Loss	False
288.073	2.829	Lose2	0.7	n/a	No	2.829	n/a	n/a	PrematurePress	-1	0.0	n/a	2	29	ISIslide	Loss	False
290.915	0.25	Win2	0.6774	0.0	No	2.785	0.015	n/a	PrematurePress	0	n/a	n/a	2	30	Cue	MissedWin	True
291.166	3.9	Win2	0.6774	0.0	No	2.785	0.001	n/a	PrematurePress	0	n/a	n/a	2	30	Fixation	MissedWin	True
295.061	0.15	Win2	0.6774	0.004	No	2.785	-0.004	4.0	PrematurePress	0	0.012	294.073	2	30	Target	MissedWin	True
295.073	0.3	Win2	0.6774	0.004	No	2.785	-0.004	4.0	PrematurePress	0	0.012	n/a	2	30	ButtonPress	MissedWin	True
295.211	0.55	Win2	0.6774	n/a	No	2.785	n/a	n/a	PrematurePress	0	n/a	n/a	2	30	Blank	MissedWin	True
295.763	1.45	Win2	0.6774	n/a	No	2.785	n/a	5.0	PrematurePress	0	0.016	294.779	2	30	Feedback	MissedWin	True
297.217	2.785	Win2	0.6774	n/a	No	2.785	n/a	n/a	PrematurePress	0	0.0	n/a	2	30	ISIslide	MissedWin	True
300.026	0.25	Lose2	0.6562	0.0	No	2.824	0.026	n/a	NoResponse	-1	n/a	n/a	1	31	Cue	Loss	True
300.276	4.05	Lose2	0.6562	0.0	No	2.824	0.0	n/a	NoResponse	-1	n/a	n/a	1	31	Fixation	Loss	True
304.322	0.15	Lose2	0.6562	0.004	No	2.824	-0.004	4.0	NoResponse	-1	0.168	303.49	1	31	Target	Loss	True
304.472	0.55	Lose2	0.6562	n/a	No	2.824	n/a	n/a	NoResponse	-1	n/a	n/a	1	31	Blank	Loss	True
304.49	0.3	Lose2	0.6562	0.004	No	2.824	-0.004	4.0	NoResponse	-1	0.168	n/a	1	31	ButtonPress	Loss	True
305.024	1.45	Lose2	0.6562	n/a	No	2.824	n/a	5.0	NoResponse	-1	0.023	304.047	1	31	Feedback	Loss	True
306.478	2.824	Lose2	0.6562	n/a	No	2.824	n/a	n/a	NoResponse	-1	0.0	n/a	1	31	ISIslide	Loss	True
309.32	0.25	Lose2	0.6364	0.0	No	2.63	0.02	n/a	NoResponse	-1	n/a	n/a	0	32	Cue	Loss	True
309.571	4.15	Lose2	0.6364	0.0	No	2.63	0.001	n/a	NoResponse	-1	n/a	n/a	0	32	Fixation	Loss	True
313.717	0.15	Lose2	0.6364	0.003	No	2.63	-0.003	4.0	NoResponse	-1	0.173	312.89	0	32	Target	Loss	True
313.867	0.55	Lose2	0.6364	n/a	No	2.63	n/a	n/a	NoResponse	-1	n/a	n/a	0	32	Blank	Loss	True
313.89	0.3	Lose2	0.6364	0.003	No	2.63	-0.003	4.0	NoResponse	-1	0.173	n/a	0	32	ButtonPress	Loss	True
314.419	1.45	Lose2	0.6364	n/a	No	2.63	n/a	5.0	NoResponse	-1	0.043	313.462	0	32	Feedback	Loss	True
315.873	2.63	Lose2	0.6364	n/a	No	2.63	n/a	n/a	NoResponse	-1	0.0	n/a	0	32	ISIslide	Loss	True
318.514	0.25	Win2	0.6175999999999999	0.0	No	2.686	0.014	n/a	NoResponse	0	n/a	n/a	0	33	Cue	MissedWin	False
318.765	4.0	Win2	0.6175999999999999	0.0	No	2.686	0.001	4.0	NoResponse	0	3.761	321.526	0	33	Fixation	MissedWin	False
322.526	0.3	Win2	0.6175999999999999	0.0	No	2.686	0.001	4.0	NoResponse	0	3.761	n/a	0	33	ButtonPress	MissedWin	False
322.76	0.16	Win2	0.6175999999999999	0.004	No	2.686	-0.004	4.0	NoResponse	0	0.184	321.944	0	33	Target	MissedWin	False
322.927	0.54	Win2	0.6175999999999999	n/a	No	2.686	n/a	n/a	NoResponse	0	n/a	n/a	0	33	Blank	MissedWin	False
322.944	0.3	Win2	0.6175999999999999	0.004	No	2.686	-0.004	4.0	NoResponse	0	0.184	n/a	0	33	ButtonPress	MissedWin	False
323.462	1.45	Win2	0.6175999999999999	n/a	No	2.686	n/a	5.0	NoResponse	0	0.024	322.486	0	33	Feedback	MissedWin	False
324.917	2.686	Win2	0.6175999999999999	n/a	No	2.686	n/a	n/a	NoResponse	0	0.0	n/a	0	33	ISIslide	MissedWin	False
327.625	0.25	Lose2	0.6	0.0	No	2.625	0.025	n/a	PrematurePress	-1	n/a	n/a	-1	34	Cue	Loss	False
327.876	4.05	Lose2	0.6	0.0	No	2.625	0.001	4.0	PrematurePress	-1	3.614	330.49	-1	34	Fixation	Loss	False
331.49	0.3	Lose2	0.6	0.0	No	2.625	0.001	4.0	PrematurePress	-1	3.614	n/a	-1	34	ButtonPress	Loss	False
331.921	0.17	Lose2	0.6	0.004	No	2.625	-0.004	4.0	PrematurePress	-1	0.032	330.953	-1	34	Target	Loss	False
331.953	0.3	Lose2	0.6	0.004	No	2.625	-0.004	4.0	PrematurePress	-1	0.032	n/a	-1	34	ButtonPress	Loss	False
332.105	0.53	Lose2	0.6	n/a	No	2.625	n/a	n/a	PrematurePress	-1	n/a	n/a	-1	34	Blank	Loss	False
332.623	1.45	Lose2	0.6	n/a	No	2.625	n/a	5.0	PrematurePress	-1	0.034	331.657	-1	34	Feedback	Loss	False
334.078	2.625	Lose2	0.6	n/a	No	2.625	n/a	n/a	PrematurePress	-1	0.0	n/a	-1	34	ISIslide	Loss	False
336.719	0.25	Lose2	0.5832999999999999	0.0	No	2.681	0.019	n/a	NoResponse	-1	n/a	n/a	-2	35	Cue	Loss	False
336.97	4.0	Lose2	0.5832999999999999	0.0	No	2.681	0.001	4.0	NoResponse	-1	3.916	339.886	-2	35	Fixation	Loss	False
340.886	0.3	Lose2	0.5832999999999999	0.0	No	2.681	0.001	4.0	NoResponse	-1	3.916	n/a	-2	35	ButtonPress	Loss	False
340.965	0.18	Lose2	0.5832999999999999	0.004	No	2.681	-0.004	4.0	NoResponse	-1	0.225	340.19	-2	35	Target	Loss	False
341.149	0.52	Lose2	0.5832999999999999	n/a	No	2.681	n/a	n/a	NoResponse	-1	n/a	n/a	-2	35	Blank	Loss	False
341.19	0.3	Lose2	0.5832999999999999	0.004	No	2.681	-0.004	4.0	NoResponse	-1	0.225	n/a	-2	35	ButtonPress	Loss	False
341.667	1.45	Lose2	0.5832999999999999	n/a	No	2.681	n/a	5.0	NoResponse	-1	0.014	340.681	-2	35	Feedback	Loss	False
343.121	2.681	Lose2	0.5832999999999999	n/a	No	2.681	n/a	n/a	NoResponse	-1	0.0	n/a	-2	35	ISIslide	Loss	False
345.829	0.25	Control	0.5946	0.001	Yes	2.671	0.029	n/a	GoodResponse	0	n/a	n/a	-2	36	Cue	Neutral	True
346.08	4.0	Control	0.5946	0.0	Yes	2.671	0.001	n/a	GoodResponse	0	n/a	n/a	-2	36	Fixation	Neutral	True
350.075	0.19	Control	0.5946	0.004	Yes	2.671	-0.004	4.0	GoodResponse	0	0.175	349.25	-2	36	Target	Neutral	True
350.25	0.3	Control	0.5946	0.004	Yes	2.671	-0.004	4.0	GoodResponse	0	0.175	n/a	-2	36	ButtonPress	Neutral	True
350.276	0.51	Control	0.5946	n/a	Yes	2.671	n/a	n/a	GoodResponse	0	n/a	n/a	-2	36	Blank	Neutral	True
350.778	1.45	Control	0.5946	n/a	Yes	2.671	n/a	5.0	GoodResponse	0	0.025	349.803	-2	36	Feedback	Neutral	True
352.232	2.671	Control	0.5946	n/a	Yes	2.671	n/a	n/a	GoodResponse	0	0.0	n/a	-2	36	ISIslide	Neutral	True
354.923	0.25	Win2	0.6053000000000001	0.0	Yes	2.877	0.023	n/a	GoodResponse	1	n/a	n/a	-1	37	Cue	Win	False
355.174	4.0	Win2	0.6053000000000001	0.0	Yes	2.877	0.001	4.0	GoodResponse	1	3.277	357.451	-1	37	Fixation	Win	False
358.451	0.3	Win2	0.6053000000000001	0.0	Yes	2.877	0.001	4.0	GoodResponse	1	3.277	n/a	-1	37	ButtonPress	Win	False
359.169	0.2	Win2	0.6053000000000001	0.004	Yes	2.877	-0.004	4.0	GoodResponse	1	0.16	358.329	-1	37	Target	Win	False
359.329	0.3	Win2	0.6053000000000001	0.004	Yes	2.877	-0.004	4.0	GoodResponse	1	0.16	n/a	-1	37	ButtonPress	Win	False
359.37	0.5	Win2	0.6053000000000001	n/a	Yes	2.877	n/a	n/a	GoodResponse	1	n/a	n/a	-1	37	Blank	Win	False
359.872	1.45	Win2	0.6053000000000001	n/a	Yes	2.877	n/a	5.0	GoodResponse	1	0.004	358.876	-1	37	Feedback	Win	False
361.326	2.877	Win2	0.6053000000000001	n/a	Yes	2.877	n/a	n/a	GoodResponse	1	0.0	n/a	-1	37	ISIslide	Win	False
364.218	0.25	Lose2	0.5897	0.0	No	2.832	0.018	n/a	NoResponse	-1	n/a	n/a	-2	38	Cue	Loss	True
364.469	3.95	Lose2	0.5897	0.0	No	2.832	0.001	4.0	NoResponse	-1	3.916	367.385	-2	38	Fixation	Loss	True
368.385	0.3	Lose2	0.5897	0.0	No	2.832	0.001	4.0	NoResponse	-1	3.916	n/a	-2	38	ButtonPress	Loss	True
368.414	0.21	Lose2	0.5897	0.004	No	2.832	-0.004	n/a	NoResponse	-1	n/a	n/a	-2	38	Target	Loss	True
368.631	0.49	Lose2	0.5897	n/a	No	2.832	n/a	n/a	NoResponse	-1	n/a	n/a	-2	38	Blank	Loss	True
369.116	1.45	Lose2	0.5897	n/a	No	2.832	n/a	5.0	NoResponse	-1	0.028	368.144	-2	38	Feedback	Loss	True
370.57	2.832	Lose2	0.5897	n/a	No	2.832	n/a	n/a	NoResponse	-1	0.0	n/a	-2	38	ISIslide	Loss	True
373.429	0.25	Win2	0.575	0.0	No	2.971	0.029	n/a	PrematurePress	0	n/a	n/a	-2	39	Cue	MissedWin	True
373.68	4.1	Win2	0.575	0.0	No	2.971	0.001	n/a	PrematurePress	0	n/a	n/a	-2	39	Fixation	MissedWin	True
377.775	0.22	Win2	0.575	0.004	No	2.971	-0.004	4.0	PrematurePress	0	0.057	376.832	-2	39	Target	MissedWin	True
377.832	0.3	Win2	0.575	0.004	No	2.971	-0.004	4.0	PrematurePress	0	0.057	n/a	-2	39	ButtonPress	MissedWin	True
378.009	0.48	Win2	0.575	n/a	No	2.971	n/a	n/a	PrematurePress	0	n/a	n/a	-2	39	Blank	MissedWin	True
378.477	1.45	Win2	0.575	n/a	No	2.971	n/a	5.0	PrematurePress	0	0.033	377.51	-2	39	Feedback	MissedWin	True
379.932	2.971	Win2	0.575	n/a	No	2.971	n/a	n/a	PrematurePress	0	0.0	n/a	-2	39	ISIslide	MissedWin	True
382.924	0.25	Win2	0.5854	0.0	Yes	2.726	0.024	n/a	GoodResponse	1	n/a	n/a	-1	40	Cue	Win	True
383.175	3.95	Win2	0.5854	0.0	Yes	2.726	0.001	n/a	GoodResponse	1	n/a	n/a	-1	40	Fixation	Win	True
387.12	0.23	Win2	0.5854	0.004	Yes	2.726	-0.004	4.0	GoodResponse	1	0.185	386.305	-1	40	Target	Win	True
387.305	0.3	Win2	0.5854	0.004	Yes	2.726	-0.004	4.0	GoodResponse	1	0.185	n/a	-1	40	ButtonPress	Win	True
387.354	0.47	Win2	0.5854	n/a	Yes	2.726	n/a	n/a	GoodResponse	1	n/a	n/a	-1	40	Blank	Win	True
387.822	1.45	Win2	0.5854	n/a	Yes	2.726	n/a	5.0	GoodResponse	1	0.005	386.827	-1	40	Feedback	Win	True
389.276	2.726	Win2	0.5854	n/a	Yes	2.726	n/a	n/a	GoodResponse	1	0.0	n/a	-1	40	ISIslide	Win	True
392.018	0.25	Win2	0.5952000000000001	0.0	Yes	2.782	0.018	n/a	GoodResponse	1	n/a	n/a	0	41	Cue	Win	True
392.269	3.9	Win2	0.5952000000000001	0.0	Yes	2.782	0.001	n/a	GoodResponse	1	n/a	n/a	0	41	Fixation	Win	True
396.164	0.24	Win2	0.5952000000000001	0.004	Yes	2.782	-0.004	4.0	GoodResponse	1	0.164	395.328	0	41	Target	Win	True
396.328	0.3	Win2	0.5952000000000001	0.004	Yes	2.782	-0.004	4.0	GoodResponse	1	0.164	n/a	0	41	ButtonPress	Win	True
396.414	0.46	Win2	0.5952000000000001	n/a	Yes	2.782	n/a	n/a	GoodResponse	1	n/a	n/a	0	41	Blank	Win	True
396.866	1.45	Win2	0.5952000000000001	n/a	Yes	2.782	n/a	5.0	GoodResponse	1	0.035	395.901	0	41	Feedback	Win	True
398.32	2.782	Win2	0.5952000000000001	n/a	Yes	2.782	n/a	n/a	GoodResponse	1	0.0	n/a	0	41	ISIslide	Win	True
401.128	0.25	Control	0.6047	0.001	Yes	2.922	0.028	n/a	GoodResponse	0	n/a	n/a	0	42	Cue	Neutral	True
401.379	3.85	Control	0.6047	0.0	Yes	2.922	0.001	n/a	GoodResponse	0	n/a	n/a	0	42	Fixation	Neutral	True
405.224	0.25	Control	0.6047	0.004	Yes	2.922	-0.004	4.0	GoodResponse	0	0.167	404.391	0	42	Target	Neutral	True
405.391	0.3	Control	0.6047	0.004	Yes	2.922	-0.004	4.0	GoodResponse	0	0.167	n/a	0	42	ButtonPress	Neutral	True
405.475	0.45	Control	0.6047	n/a	Yes	2.922	n/a	n/a	GoodResponse	0	n/a	n/a	0	42	Blank	Neutral	True
405.926	1.45	Control	0.6047	n/a	Yes	2.922	n/a	5.0	GoodResponse	0	0.047	404.973	0	42	Feedback	Neutral	True
407.381	2.922	Control	0.6047	n/a	Yes	2.922	n/a	n/a	GoodResponse	0	0.0	n/a	0	42	ISIslide	Neutral	True
410.323	0.25	Win2	0.6136	0.0	Yes	3.177	0.023	n/a	GoodResponse	1	n/a	n/a	1	43	Cue	Win	False
410.573	4.0	Win2	0.6136	0.001	Yes	3.177	0.0	4.0	GoodResponse	1	3.674	413.247	1	43	Fixation	Win	False
414.247	0.3	Win2	0.6136	0.001	Yes	3.177	0.0	4.0	GoodResponse	1	3.674	n/a	1	43	ButtonPress	Win	False
414.569	0.26	Win2	0.6136	0.004	Yes	3.177	-0.004	4.0	GoodResponse	1	0.176	413.745	1	43	Target	Win	False
414.745	0.3	Win2	0.6136	0.004	Yes	3.177	-0.004	4.0	GoodResponse	1	0.176	n/a	1	43	ButtonPress	Win	False
414.836	0.44	Win2	0.6136	n/a	Yes	3.177	n/a	n/a	GoodResponse	1	n/a	n/a	1	43	Blank	Win	False
415.271	1.45	Win2	0.6136	n/a	Yes	3.177	n/a	5.0	GoodResponse	1	0.019	414.29	1	43	Feedback	Win	False
416.725	3.177	Win2	0.6136	n/a	Yes	3.177	n/a	n/a	GoodResponse	1	0.0	n/a	1	43	ISIslide	Win	False
419.918	0.25	Win2	0.6222	0.0	Yes	2.982	0.018	n/a	GoodResponse	1	n/a	n/a	2	44	Cue	Win	True
420.169	4.0	Win2	0.6222	0.0	Yes	2.982	0.001	n/a	GoodResponse	1	n/a	n/a	2	44	Fixation	Win	True
424.164	0.27	Win2	0.6222	0.004	Yes	2.982	-0.004	4.0	GoodResponse	1	0.191	423.355	2	44	Target	Win	True
424.355	0.3	Win2	0.6222	0.004	Yes	2.982	-0.004	4.0	GoodResponse	1	0.191	n/a	2	44	ButtonPress	Win	True
424.448	0.43	Win2	0.6222	n/a	Yes	2.982	n/a	n/a	GoodResponse	1	n/a	n/a	2	44	Blank	Win	True
424.866	1.45	Win2	0.6222	n/a	Yes	2.982	n/a	5.0	GoodResponse	1	0.034	423.9	2	44	Feedback	Win	True
426.321	2.982	Win2	0.6222	n/a	Yes	2.982	n/a	n/a	GoodResponse	1	0.0	n/a	2	44	ISIslide	Win	True
429.313	0.25	Control	0.6304	0.0	Yes	2.887	0.013	n/a	GoodResponse	0	n/a	n/a	2	45	Cue	Neutral	True
429.564	4.1	Control	0.6304	0.0	Yes	2.887	0.001	n/a	GoodResponse	0	n/a	n/a	2	45	Fixation	Neutral	True
433.659	0.28	Control	0.6304	0.004	Yes	2.887	-0.004	4.0	GoodResponse	0	0.191	432.85	2	45	Target	Neutral	True
433.85	0.3	Control	0.6304	0.004	Yes	2.887	-0.004	4.0	GoodResponse	0	0.191	n/a	2	45	ButtonPress	Neutral	True
433.943	0.42	Control	0.6304	n/a	Yes	2.887	n/a	n/a	GoodResponse	0	n/a	n/a	2	45	Blank	Neutral	True
434.361	1.45	Control	0.6304	n/a	Yes	2.887	n/a	5.0	GoodResponse	0	0.002	433.363	2	45	Feedback	Neutral	True
435.816	2.887	Control	0.6304	n/a	Yes	2.887	n/a	n/a	GoodResponse	0	0.0	n/a	2	45	ISIslide	Neutral	True
438.724	0.25	Lose2	0.6383	0.001	Yes	3.376	0.024	n/a	GoodResponse	0	n/a	n/a	2	46	Cue	AvoidedLoss	True
438.975	4.0	Lose2	0.6383	0.0	Yes	3.376	0.001	n/a	GoodResponse	0	n/a	n/a	2	46	Fixation	AvoidedLoss	True
442.971	0.29	Lose2	0.6383	0.003	Yes	3.376	-0.003	4.0	GoodResponse	0	0.181	442.152	2	46	Target	AvoidedLoss	True
443.152	0.3	Lose2	0.6383	0.003	Yes	3.376	-0.003	4.0	GoodResponse	0	0.181	n/a	2	46	ButtonPress	AvoidedLoss	True
443.271	0.41	Lose2	0.6383	n/a	Yes	3.376	n/a	n/a	GoodResponse	0	n/a	n/a	2	46	Blank	AvoidedLoss	True
443.673	1.45	Lose2	0.6383	n/a	Yes	3.376	n/a	5.0	GoodResponse	0	0.008	442.681	2	46	Feedback	AvoidedLoss	True
445.127	3.376	Lose2	0.6383	n/a	Yes	3.376	n/a	n/a	GoodResponse	0	0.0	n/a	2	46	ISIslide	AvoidedLoss	True
448.52	0.25	Lose2	0.6457999999999999	0.001	Yes	2.68	0.02	n/a	GoodResponse	0	n/a	n/a	2	47	Cue	AvoidedLoss	True
448.771	4.0	Lose2	0.6457999999999999	0.0	Yes	2.68	0.001	n/a	GoodResponse	0	n/a	n/a	2	47	Fixation	AvoidedLoss	True
452.767	0.3	Lose2	0.6457999999999999	0.003	Yes	2.68	-0.003	4.0	GoodResponse	0	0.179	451.946	2	47	Target	AvoidedLoss	True
452.946	0.3	Lose2	0.6457999999999999	0.003	Yes	2.68	-0.003	4.0	GoodResponse	0	0.179	n/a	2	47	ButtonPress	AvoidedLoss	True
453.067	0.4	Lose2	0.6457999999999999	n/a	Yes	2.68	n/a	n/a	GoodResponse	0	n/a	n/a	2	47	Blank	AvoidedLoss	True
453.469	1.45	Lose2	0.6457999999999999	n/a	Yes	2.68	n/a	5.0	GoodResponse	0	0.017	452.486	2	47	Feedback	AvoidedLoss	True
454.923	2.68	Lose2	0.6457999999999999	n/a	Yes	2.68	n/a	n/a	GoodResponse	0	0.0	n/a	2	47	ISIslide	AvoidedLoss	True
457.614	0.25	Lose2	0.6531	0.0	Yes	3.036	0.014	n/a	GoodResponse	0	n/a	n/a	2	48	Cue	AvoidedLoss	True
457.865	3.95	Lose2	0.6531	0.0	Yes	3.036	0.001	n/a	GoodResponse	0	n/a	n/a	2	48	Fixation	AvoidedLoss	True
461.81	0.31	Lose2	0.6531	0.004	Yes	3.036	-0.004	4.0	GoodResponse	0	0.179	460.989	2	48	Target	AvoidedLoss	True
461.989	0.3	Lose2	0.6531	0.004	Yes	3.036	-0.004	4.0	GoodResponse	0	0.179	n/a	2	48	ButtonPress	AvoidedLoss	True
462.128	0.39	Lose2	0.6531	n/a	Yes	3.036	n/a	n/a	GoodResponse	0	n/a	n/a	2	48	Blank	AvoidedLoss	True
462.512	1.45	Lose2	0.6531	n/a	Yes	3.036	n/a	5.0	GoodResponse	0	0.046	461.558	2	48	Feedback	AvoidedLoss	True
463.967	3.036	Lose2	0.6531	n/a	Yes	3.036	n/a	n/a	GoodResponse	0	0.0	n/a	2	48	ISIslide	AvoidedLoss	True
467.026	0.25	Control	0.66	0.0	Yes	2.874	0.026	n/a	GoodResponse	0	n/a	n/a	2	49	Cue	Neutral	True
467.277	4.0	Control	0.66	0.0	Yes	2.874	0.001	n/a	GoodResponse	0	n/a	n/a	2	49	Fixation	Neutral	True
471.272	0.32	Control	0.66	0.004	Yes	2.874	-0.004	4.0	GoodResponse	0	0.182	470.454	2	49	Target	Neutral	True
471.454	0.3	Control	0.66	0.004	Yes	2.874	-0.004	4.0	GoodResponse	0	0.182	n/a	2	49	ButtonPress	Neutral	True
471.606	0.38	Control	0.66	n/a	Yes	2.874	n/a	n/a	GoodResponse	0	n/a	n/a	2	49	Blank	Neutral	True
471.974	1.45	Control	0.66	n/a	Yes	2.874	n/a	5.0	GoodResponse	0	0.047	471.021	2	49	Feedback	Neutral	True
473.428	2.874	Control	0.66	n/a	Yes	2.874	n/a	n/a	GoodResponse	0	0.0	n/a	2	49	ISIslide	Neutral	True
476.32	0.25	Control	0.6470999999999999	0.001	No	2.78	0.02	n/a	PrematurePress	0	n/a	n/a	2	50	Cue	Neutral	True
476.571	4.0	Control	0.6470999999999999	0.0	No	2.78	0.001	n/a	PrematurePress	0	n/a	n/a	2	50	Fixation	Neutral	True
480.566	0.32	Control	0.6470999999999999	0.004	No	2.78	-0.004	4.0	PrematurePress	0	0.054	479.62	2	50	Target	Neutral	True
480.62	0.3	Control	0.6470999999999999	0.004	No	2.78	-0.004	4.0	PrematurePress	0	0.054	n/a	2	50	ButtonPress	Neutral	True
480.901	0.38	Control	0.6470999999999999	n/a	No	2.78	n/a	n/a	PrematurePress	0	n/a	n/a	2	50	Blank	Neutral	True
481.269	1.45	Control	0.6470999999999999	n/a	No	2.78	n/a	5.0	PrematurePress	0	0.021	480.29	2	50	Feedback	Neutral	True
482.723	2.78	Control	0.6470999999999999	n/a	No	2.78	n/a	n/a	PrematurePress	0	0.0	n/a	2	50	ISIslide	Neutral	True
485.515	0.25	Control	0.6537999999999999	0.0	Yes	2.735	0.015	n/a	GoodResponse	0	n/a	n/a	2	51	Cue	Neutral	True
485.765	3.95	Control	0.6537999999999999	0.0	Yes	2.735	0.0	n/a	GoodResponse	0	n/a	n/a	2	51	Fixation	Neutral	True
489.711	0.33	Control	0.6537999999999999	0.004	Yes	2.735	-0.004	4.0	GoodResponse	0	0.19	488.901	2	51	Target	Neutral	True
489.901	0.3	Control	0.6537999999999999	0.004	Yes	2.735	-0.004	4.0	GoodResponse	0	0.19	n/a	2	51	ButtonPress	Neutral	True
490.045	0.37	Control	0.6537999999999999	n/a	Yes	2.735	n/a	n/a	GoodResponse	0	n/a	n/a	2	51	Blank	Neutral	True
490.413	1.45	Control	0.6537999999999999	n/a	Yes	2.735	n/a	5.0	GoodResponse	0	0.048	489.461	2	51	Feedback	Neutral	True
491.867	2.735	Control	0.6537999999999999	n/a	Yes	2.735	n/a	n/a	GoodResponse	0	0.0	n/a	2	51	ISIslide	Neutral	True
494.625	0.25	Control	0.6604000000000001	0.0	Yes	2.625	0.025	n/a	GoodResponse	0	n/a	n/a	2	52	Cue	Neutral	True
494.876	4.05	Control	0.6604000000000001	0.0	Yes	2.625	0.001	n/a	GoodResponse	0	n/a	n/a	2	52	Fixation	Neutral	True
498.922	0.34	Control	0.6604000000000001	0.003	Yes	2.625	-0.003	4.0	GoodResponse	0	0.169	498.091	2	52	Target	Neutral	True
499.091	0.3	Control	0.6604000000000001	0.003	Yes	2.625	-0.003	4.0	GoodResponse	0	0.169	n/a	2	52	ButtonPress	Neutral	True
499.273	0.36	Control	0.6604000000000001	n/a	Yes	2.625	n/a	n/a	GoodResponse	0	n/a	n/a	2	52	Blank	Neutral	True
499.624	1.45	Control	0.6604000000000001	n/a	Yes	2.625	n/a	5.0	GoodResponse	0	0.007	498.631	2	52	Feedback	Neutral	True
501.078	2.625	Control	0.6604000000000001	n/a	Yes	2.625	n/a	n/a	GoodResponse	0	0.0	n/a	2	52	ISIslide	Neutral	True
503.719	0.25	Win2	0.6667000000000001	0.0	Yes	2.931	0.019	n/a	GoodResponse	1	n/a	n/a	3	53	Cue	Win	True
503.97	4.05	Win2	0.6667000000000001	0.0	Yes	2.931	0.001	n/a	GoodResponse	1	n/a	n/a	3	53	Fixation	Win	True
508.015	0.34	Win2	0.6667000000000001	0.004	Yes	2.931	-0.004	4.0	GoodResponse	1	0.185	507.2	3	53	Target	Win	True
508.2	0.3	Win2	0.6667000000000001	0.004	Yes	2.931	-0.004	4.0	GoodResponse	1	0.185	n/a	3	53	ButtonPress	Win	True
508.366	0.36	Win2	0.6667000000000001	n/a	Yes	2.931	n/a	n/a	GoodResponse	1	n/a	n/a	3	53	Blank	Win	True
508.718	1.45	Win2	0.6667000000000001	n/a	Yes	2.931	n/a	5.0	GoodResponse	1	0.035	507.753	3	53	Feedback	Win	True
510.172	2.931	Win2	0.6667000000000001	n/a	Yes	2.931	n/a	n/a	GoodResponse	1	0.0	n/a	3	53	ISIslide	Win	True
513.114	0.25	Win2	0.6727	0.0	Yes	2.736	0.014	n/a	GoodResponse	1	n/a	n/a	4	54	Cue	Win	True
513.365	3.95	Win2	0.6727	0.0	Yes	2.736	0.001	n/a	GoodResponse	1	n/a	n/a	4	54	Fixation	Win	True
517.31	0.33	Win2	0.6727	0.004	Yes	2.736	-0.004	4.0	GoodResponse	1	0.109	516.419	4	54	Target	Win	True
517.419	0.3	Win2	0.6727	0.004	Yes	2.736	-0.004	4.0	GoodResponse	1	0.109	n/a	4	54	ButtonPress	Win	True
517.644	0.37	Win2	0.6727	n/a	Yes	2.736	n/a	n/a	GoodResponse	1	n/a	n/a	4	54	Blank	Win	True
518.012	1.45	Win2	0.6727	n/a	Yes	2.736	n/a	5.0	GoodResponse	1	0.01	517.022	4	54	Feedback	Win	True
519.466	2.736	Win2	0.6727	n/a	Yes	2.736	n/a	n/a	GoodResponse	1	0.0	n/a	4	54	ISIslide	Win	True
522.225	0.25	Control	0.6786	0.0	Yes	3.025	0.025	n/a	GoodResponse	0	n/a	n/a	4	55	Cue	Neutral	True
522.475	3.95	Control	0.6786	0.0	Yes	3.025	0.0	n/a	GoodResponse	0	n/a	n/a	4	55	Fixation	Neutral	True
526.421	0.32	Control	0.6786	0.004	Yes	3.025	-0.004	4.0	GoodResponse	0	0.184	525.605	4	55	Target	Neutral	True
526.605	0.3	Control	0.6786	0.004	Yes	3.025	-0.004	4.0	GoodResponse	0	0.184	n/a	4	55	ButtonPress	Neutral	True
526.755	0.38	Control	0.6786	n/a	Yes	3.025	n/a	n/a	GoodResponse	0	n/a	n/a	4	55	Blank	Neutral	True
527.123	1.45	Control	0.6786	n/a	Yes	3.025	n/a	5.0	GoodResponse	0	0.02	526.143	4	55	Feedback	Neutral	True
528.577	3.025	Control	0.6786	n/a	Yes	3.025	n/a	n/a	GoodResponse	0	0.0	n/a	4	55	ISIslide	Neutral	True
531.619	0.25	Control	0.6842	0.001	Yes	2.831	0.019	n/a	GoodResponse	0	n/a	n/a	4	56	Cue	Neutral	True
531.87	3.95	Control	0.6842	0.0	Yes	2.831	0.001	n/a	GoodResponse	0	n/a	n/a	4	56	Fixation	Neutral	True
535.815	0.31	Control	0.6842	0.004	Yes	2.831	-0.004	4.0	GoodResponse	0	0.189	535.004	4	56	Target	Neutral	True
536.004	0.3	Control	0.6842	0.004	Yes	2.831	-0.004	4.0	GoodResponse	0	0.189	n/a	4	56	ButtonPress	Neutral	True
536.133	0.39	Control	0.6842	n/a	Yes	2.831	n/a	n/a	GoodResponse	0	n/a	n/a	4	56	Blank	Neutral	True
536.517	1.45	Control	0.6842	n/a	Yes	2.831	n/a	5.0	GoodResponse	0	0.041	535.558	4	56	Feedback	Neutral	True
537.972	2.831	Control	0.6842	n/a	Yes	2.831	n/a	n/a	GoodResponse	0	0.0	n/a	4	56	ISIslide	Neutral	True
540.814	0.25	Control	0.6897	0.0	Yes	3.486	0.014	n/a	GoodResponse	0	n/a	n/a	4	57	Cue	Neutral	True
541.064	4.0	Control	0.6897	0.001	Yes	3.486	0.0	n/a	GoodResponse	0	n/a	n/a	4	57	Fixation	Neutral	True
545.06	0.3	Control	0.6897	0.004	Yes	3.486	-0.004	4.0	GoodResponse	0	0.169	544.229	4	57	Target	Neutral	True
545.229	0.3	Control	0.6897	0.004	Yes	3.486	-0.004	4.0	GoodResponse	0	0.169	n/a	4	57	ButtonPress	Neutral	True
545.361	0.4	Control	0.6897	n/a	Yes	3.486	n/a	n/a	GoodResponse	0	n/a	n/a	4	57	Blank	Neutral	True
545.762	1.45	Control	0.6897	n/a	Yes	3.486	n/a	5.0	GoodResponse	0	0.015	544.777	4	57	Feedback	Neutral	True
547.216	3.486	Control	0.6897	n/a	Yes	3.486	n/a	n/a	GoodResponse	0	0.0	n/a	4	57	ISIslide	Neutral	True
550.727	0.25	Win2	0.6949	0.0	Yes	2.723	0.027	n/a	GoodResponse	1	n/a	n/a	5	58	Cue	Win	True
550.977	4.05	Win2	0.6949	0.001	Yes	2.723	0.0	n/a	GoodResponse	1	n/a	n/a	5	58	Fixation	Win	True
555.023	0.29	Win2	0.6949	0.004	Yes	2.723	-0.004	4.0	GoodResponse	1	0.188	554.211	5	58	Target	Win	True
555.211	0.3	Win2	0.6949	0.004	Yes	2.723	-0.004	4.0	GoodResponse	1	0.188	n/a	5	58	ButtonPress	Win	True
555.324	0.41	Win2	0.6949	n/a	Yes	2.723	n/a	n/a	GoodResponse	1	n/a	n/a	5	58	Blank	Win	True
555.725	1.45	Win2	0.6949	n/a	Yes	2.723	n/a	5.0	GoodResponse	1	0.004	554.729	5	58	Feedback	Win	True
557.179	2.723	Win2	0.6949	n/a	Yes	2.723	n/a	n/a	GoodResponse	1	0.0	n/a	5	58	ISIslide	Win	True
559.921	0.25	Lose2	0.7	0.0	Yes	2.679	0.021	n/a	GoodResponse	0	n/a	n/a	5	59	Cue	AvoidedLoss	False
560.172	4.0	Lose2	0.7	0.0	Yes	2.679	0.001	4.0	GoodResponse	0	3.635	562.807	5	59	Fixation	AvoidedLoss	False
563.807	0.3	Lose2	0.7	0.0	Yes	2.679	0.001	4.0	GoodResponse	0	3.635	n/a	5	59	ButtonPress	AvoidedLoss	False
564.167	0.28	Lose2	0.7	0.004	Yes	2.679	-0.004	4.0	GoodResponse	0	0.155	563.322	5	59	Target	AvoidedLoss	False
564.322	0.3	Lose2	0.7	0.004	Yes	2.679	-0.004	4.0	GoodResponse	0	0.155	n/a	5	59	ButtonPress	AvoidedLoss	False
564.451	0.42	Lose2	0.7	n/a	Yes	2.679	n/a	n/a	GoodResponse	0	n/a	n/a	5	59	Blank	AvoidedLoss	False
564.869	1.45	Lose2	0.7	n/a	Yes	2.679	n/a	5.0	GoodResponse	0	0.03	563.899	5	59	Feedback	AvoidedLoss	False
566.323	2.679	Lose2	0.7	n/a	Yes	2.679	n/a	n/a	GoodResponse	0	0.0	n/a	5	59	ISIslide	AvoidedLoss	False
569.015	0.25	Control	0.7049	0.0	Yes	2.685	0.015	n/a	GoodResponse	0	n/a	n/a	5	60	Cue	Neutral	True
569.266	4.0	Control	0.7049	0.0	Yes	2.685	0.001	n/a	GoodResponse	0	n/a	n/a	5	60	Fixation	Neutral	True
573.261	0.27	Control	0.7049	0.004	Yes	2.685	-0.004	4.0	GoodResponse	0	0.186	572.447	5	60	Target	Neutral	True
573.447	0.3	Control	0.7049	0.004	Yes	2.685	-0.004	4.0	GoodResponse	0	0.186	n/a	5	60	ButtonPress	Neutral	True
573.545	0.43	Control	0.7049	n/a	Yes	2.685	n/a	n/a	GoodResponse	0	n/a	n/a	5	60	Blank	Neutral	True
573.963	1.45	Control	0.7049	n/a	Yes	2.685	n/a	5.0	GoodResponse	0	0.01	572.973	5	60	Feedback	Neutral	True
575.417	2.685	Control	0.7049	n/a	Yes	2.685	n/a	n/a	GoodResponse	0	0.0	n/a	5	60	ISIslide	Neutral	True
578.125	0.25	Lose2	0.7097	0.001	Yes	2.975	0.025	n/a	GoodResponse	0	n/a	n/a	5	61	Cue	AvoidedLoss	True
578.376	4.0	Lose2	0.7097	0.0	Yes	2.975	0.001	n/a	GoodResponse	0	n/a	n/a	5	61	Fixation	AvoidedLoss	True
582.372	0.26	Lose2	0.7097	0.003	Yes	2.975	-0.003	4.0	GoodResponse	0	0.174	581.546	5	61	Target	AvoidedLoss	True
582.546	0.3	Lose2	0.7097	0.003	Yes	2.975	-0.003	4.0	GoodResponse	0	0.174	n/a	5	61	ButtonPress	AvoidedLoss	True
582.639	0.44	Lose2	0.7097	n/a	Yes	2.975	n/a	n/a	GoodResponse	0	n/a	n/a	5	61	Blank	AvoidedLoss	True
583.074	1.45	Lose2	0.7097	n/a	Yes	2.975	n/a	5.0	GoodResponse	0	0.02	582.094	5	61	Feedback	AvoidedLoss	True
584.528	2.975	Lose2	0.7097	n/a	Yes	2.975	n/a	n/a	GoodResponse	0	0.0	n/a	5	61	ISIslide	AvoidedLoss	True
587.52	0.25	Lose2	0.7143	0.0	Yes	2.88	0.02	n/a	GoodResponse	0	n/a	n/a	5	62	Cue	AvoidedLoss	True
587.771	3.9	Lose2	0.7143	0.0	Yes	2.88	0.001	n/a	GoodResponse	0	n/a	n/a	5	62	Fixation	AvoidedLoss	True
591.666	0.25	Lose2	0.7143	0.004	Yes	2.88	-0.004	4.0	GoodResponse	0	0.172	590.838	5	62	Target	AvoidedLoss	True
591.838	0.3	Lose2	0.7143	0.004	Yes	2.88	-0.004	4.0	GoodResponse	0	0.172	n/a	5	62	ButtonPress	AvoidedLoss	True
591.917	0.45	Lose2	0.7143	n/a	Yes	2.88	n/a	n/a	GoodResponse	0	n/a	n/a	5	62	Blank	AvoidedLoss	True
592.368	1.45	Lose2	0.7143	n/a	Yes	2.88	n/a	5.0	GoodResponse	0	0.043	591.411	5	62	Feedback	AvoidedLoss	True
593.823	2.88	Lose2	0.7143	n/a	Yes	2.88	n/a	n/a	GoodResponse	0	0.0	n/a	5	62	ISIslide	AvoidedLoss	True
596.715	0.25	Lose2	0.7188	0.0	Yes	2.635	0.015	n/a	GoodResponse	0	n/a	n/a	5	63	Cue	AvoidedLoss	True
596.965	4.05	Lose2	0.7188	0.0	Yes	2.635	0.0	n/a	GoodResponse	0	n/a	n/a	5	63	Fixation	AvoidedLoss	True
601.011	0.24	Lose2	0.7188	0.004	Yes	2.635	-0.004	4.0	GoodResponse	0	0.181	600.192	5	63	Target	AvoidedLoss	True
601.192	0.3	Lose2	0.7188	0.004	Yes	2.635	-0.004	4.0	GoodResponse	0	0.181	n/a	5	63	ButtonPress	AvoidedLoss	True
601.261	0.46	Lose2	0.7188	n/a	Yes	2.635	n/a	n/a	GoodResponse	0	n/a	n/a	5	63	Blank	AvoidedLoss	True
601.713	1.45	Lose2	0.7188	n/a	Yes	2.635	n/a	5.0	GoodResponse	0	0.015	600.728	5	63	Feedback	AvoidedLoss	True
603.167	2.635	Lose2	0.7188	n/a	Yes	2.635	n/a	n/a	GoodResponse	0	0.0	n/a	5	63	ISIslide	AvoidedLoss	True
605.825	0.25	Win2	0.7231000000000001	0.0	Yes	3.125	0.025	n/a	GoodResponse	1	n/a	n/a	6	64	Cue	Win	True
606.076	4.15	Win2	0.7231000000000001	0.0	Yes	3.125	0.001	n/a	GoodResponse	1	n/a	n/a	6	64	Fixation	Win	True
610.222	0.23	Win2	0.7231000000000001	0.003	Yes	3.125	-0.003	4.0	GoodResponse	1	0.188	609.41	6	64	Target	Win	True
610.41	0.3	Win2	0.7231000000000001	0.003	Yes	3.125	-0.003	4.0	GoodResponse	1	0.188	n/a	6	64	ButtonPress	Win	True
610.456	0.47	Win2	0.7231000000000001	n/a	Yes	3.125	n/a	n/a	GoodResponse	1	n/a	n/a	6	64	Blank	Win	True
610.924	1.45	Win2	0.7231000000000001	n/a	Yes	3.125	n/a	5.0	GoodResponse	1	0.024	609.948	6	64	Feedback	Win	True
612.378	3.125	Win2	0.7231000000000001	n/a	Yes	3.125	n/a	n/a	GoodResponse	1	0.0	n/a	6	64	ISIslide	Win	True
615.521	0.25	Control	0.7273000000000001	0.0	Yes	2.779	0.021	n/a	GoodResponse	0	n/a	n/a	6	65	Cue	Neutral	True
615.772	4.0	Control	0.7273000000000001	0.0	Yes	2.779	0.001	n/a	GoodResponse	0	n/a	n/a	6	65	Fixation	Neutral	True
619.767	0.22	Control	0.7273000000000001	0.004	Yes	2.779	-0.004	4.0	GoodResponse	0	0.173	618.94	6	65	Target	Neutral	True
619.94	0.3	Control	0.7273000000000001	0.004	Yes	2.779	-0.004	4.0	GoodResponse	0	0.173	n/a	6	65	ButtonPress	Neutral	True
620.001	0.48	Control	0.7273000000000001	n/a	Yes	2.779	n/a	n/a	GoodResponse	0	n/a	n/a	6	65	Blank	Neutral	True
620.469	1.45	Control	0.7273000000000001	n/a	Yes	2.779	n/a	5.0	GoodResponse	0	0.04	619.509	6	65	Feedback	Neutral	True
621.923	2.779	Control	0.7273000000000001	n/a	Yes	2.779	n/a	n/a	GoodResponse	0	0.0	n/a	6	65	ISIslide	Neutral	True
624.715	0.25	Win2	0.7313	0.0	Yes	2.785	0.015	n/a	GoodResponse	1	n/a	n/a	7	66	Cue	Win	True
624.966	3.9	Win2	0.7313	0.0	Yes	2.785	0.001	n/a	GoodResponse	1	n/a	n/a	7	66	Fixation	Win	True
628.861	0.21	Win2	0.7313	0.004	Yes	2.785	-0.004	4.0	GoodResponse	1	0.159	628.02	7	66	Target	Win	True
629.02	0.3	Win2	0.7313	0.004	Yes	2.785	-0.004	4.0	GoodResponse	1	0.159	n/a	7	66	ButtonPress	Win	True
629.078	0.49	Win2	0.7313	n/a	Yes	2.785	n/a	n/a	GoodResponse	1	n/a	n/a	7	66	Blank	Win	True
629.563	1.45	Win2	0.7313	n/a	Yes	2.785	n/a	5.0	GoodResponse	1	0.019	628.582	7	66	Feedback	Win	True
631.017	2.785	Win2	0.7313	n/a	Yes	2.785	n/a	n/a	GoodResponse	1	0.0	n/a	7	66	ISIslide	Win	True
633.826	0.25	Control	0.7353000000000001	0.0	Yes	2.724	0.026	n/a	GoodResponse	0	n/a	n/a	7	67	Cue	Neutral	True
634.076	3.95	Control	0.7353000000000001	0.001	Yes	2.724	0.0	n/a	GoodResponse	0	n/a	n/a	7	67	Fixation	Neutral	True
638.022	0.2	Control	0.7353000000000001	0.004	Yes	2.724	-0.004	4.0	GoodResponse	0	0.169	637.191	7	67	Target	Neutral	True
638.191	0.3	Control	0.7353000000000001	0.004	Yes	2.724	-0.004	4.0	GoodResponse	0	0.169	n/a	7	67	ButtonPress	Neutral	True
638.222	0.5	Control	0.7353000000000001	n/a	Yes	2.724	n/a	n/a	GoodResponse	0	n/a	n/a	7	67	Blank	Neutral	True
638.724	1.45	Control	0.7353000000000001	n/a	Yes	2.724	n/a	5.0	GoodResponse	0	0.029	637.753	7	67	Feedback	Neutral	True
640.178	2.724	Control	0.7353000000000001	n/a	Yes	2.724	n/a	n/a	GoodResponse	0	0.0	n/a	7	67	ISIslide	Neutral	True
642.92	0.25	Win2	0.7391	0.0	Yes	3.08	0.02	n/a	GoodResponse	1	n/a	n/a	8	68	Cue	Win	True
643.17	4.0	Win2	0.7391	0.0	Yes	3.08	0.0	n/a	GoodResponse	1	n/a	n/a	8	68	Fixation	Win	True
647.166	0.19	Win2	0.7391	0.004	Yes	3.08	-0.004	4.0	GoodResponse	1	0.186	646.352	8	68	Target	Win	True
647.352	0.3	Win2	0.7391	0.004	Yes	3.08	-0.004	4.0	GoodResponse	1	0.186	n/a	8	68	ButtonPress	Win	True
647.366	0.51	Win2	0.7391	n/a	Yes	3.08	n/a	n/a	GoodResponse	1	n/a	n/a	8	68	Blank	Win	True
647.868	1.45	Win2	0.7391	n/a	Yes	3.08	n/a	5.0	GoodResponse	1	0.006	646.874	8	68	Feedback	Win	True
649.322	3.08	Win2	0.7391	n/a	Yes	3.08	n/a	n/a	GoodResponse	1	0.0	n/a	8	68	ISIslide	Win	True
652.415	0.25	Win2	0.7286	0.0	No	3.235	0.015	n/a	NoResponse	0	n/a	n/a	8	69	Cue	MissedWin	True
652.666	3.95	Win2	0.7286	0.0	No	3.235	0.001	n/a	NoResponse	0	n/a	n/a	8	69	Fixation	MissedWin	True
656.611	0.18	Win2	0.7286	0.004	No	3.235	-0.004	4.0	NoResponse	0	0.205	655.816	8	69	Target	MissedWin	True
656.795	0.52	Win2	0.7286	n/a	No	3.235	n/a	n/a	NoResponse	0	n/a	n/a	8	69	Blank	MissedWin	True
656.816	0.3	Win2	0.7286	0.004	No	3.235	-0.004	4.0	NoResponse	0	0.205	n/a	8	69	ButtonPress	MissedWin	True
657.313	1.45	Win2	0.7286	n/a	No	3.235	n/a	5.0	NoResponse	0	0.024	656.337	8	69	Feedback	MissedWin	True
658.767	3.235	Win2	0.7286	n/a	No	3.235	n/a	n/a	NoResponse	0	0.0	n/a	8	69	ISIslide	MissedWin	True
662.027	0.25	Lose2	0.7182999999999999	0.0	No	3.023	0.027	n/a	LatePress	-1	n/a	n/a	7	70	Cue	Loss	True
662.278	4.05	Lose2	0.7182999999999999	0.0	No	3.023	0.001	n/a	LatePress	-1	n/a	n/a	7	70	Fixation	Loss	True
666.323	0.17	Lose2	0.7182999999999999	0.004	No	3.023	-0.004	4.0	LatePress	-1	0.175	665.498	7	70	Target	Loss	True
666.498	0.3	Lose2	0.7182999999999999	0.004	No	3.023	-0.004	4.0	LatePress	-1	0.175	n/a	7	70	ButtonPress	Loss	True
666.507	0.53	Lose2	0.7182999999999999	n/a	No	3.023	n/a	n/a	LatePress	-1	n/a	n/a	7	70	Blank	Loss	True
667.025	1.45	Lose2	0.7182999999999999	n/a	No	3.023	n/a	5.0	LatePress	-1	0.02	666.045	7	70	Feedback	Loss	True
668.48	3.023	Lose2	0.7182999999999999	n/a	No	3.023	n/a	n/a	LatePress	-1	0.0	n/a	7	70	ISIslide	Loss	True
671.522	0.25	Win2	0.7082999999999999	0.0	No	2.728	0.022	n/a	NoResponse	0	n/a	n/a	7	71	Cue	MissedWin	True
671.773	4.05	Win2	0.7082999999999999	0.0	No	2.728	0.001	n/a	NoResponse	0	n/a	n/a	7	71	Fixation	MissedWin	True
675.818	0.16	Win2	0.7082999999999999	0.004	No	2.728	-0.004	4.0	NoResponse	0	0.182	675.0	7	71	Target	MissedWin	True
675.985	0.54	Win2	0.7082999999999999	n/a	No	2.728	n/a	n/a	NoResponse	0	n/a	n/a	7	71	Blank	MissedWin	True
676	0.3	Win2	0.7082999999999999	0.004	No	2.728	-0.004	4.0	NoResponse	0	0.182	n/a	7	71	ButtonPress	MissedWin	True
676.52	1.45	Win2	0.7082999999999999	n/a	No	2.728	n/a	5.0	NoResponse	0	0.037	675.557	7	71	Feedback	MissedWin	True
677.975	2.728	Win2	0.7082999999999999	n/a	No	2.728	n/a	n/a	NoResponse	0	0.0	n/a	7	71	ISIslide	MissedWin	True
680.716	0.25	Win2	0.6986	0.0	No	2.784	0.016	n/a	NoResponse	0	n/a	n/a	7	72	Cue	MissedWin	True
680.967	4.1	Win2	0.6986	0.0	No	2.784	0.001	n/a	NoResponse	0	n/a	n/a	7	72	Fixation	MissedWin	True
685.063	0.15	Win2	0.6986	0.003	No	2.784	-0.003	4.0	NoResponse	0	0.16	684.223	7	72	Target	MissedWin	True
685.213	0.55	Win2	0.6986	n/a	No	2.784	n/a	n/a	NoResponse	0	n/a	n/a	7	72	Blank	MissedWin	True
685.223	0.3	Win2	0.6986	0.003	No	2.784	-0.003	4.0	NoResponse	0	0.16	n/a	7	72	ButtonPress	MissedWin	True
685.765	1.45	Win2	0.6986	n/a	No	2.784	n/a	5.0	NoResponse	0	0.012	684.777	7	72	Feedback	MissedWin	True
687.219	2.784	Win2	0.6986	n/a	No	2.784	n/a	n/a	NoResponse	0	0.0	n/a	7	72	ISIslide	MissedWin	True
690.027	0.25	Win2	0.6892	0.001	No	2.673	0.027	n/a	NoResponse	0	n/a	n/a	7	73	Cue	MissedWin	True
690.278	4.0	Win2	0.6892	0.0	No	2.673	0.001	n/a	NoResponse	0	n/a	n/a	7	73	Fixation	MissedWin	True
694.274	0.15	Win2	0.6892	0.003	No	2.673	-0.003	4.0	NoResponse	0	0.177	693.451	7	73	Target	MissedWin	True
694.424	0.55	Win2	0.6892	n/a	No	2.673	n/a	n/a	NoResponse	0	n/a	n/a	7	73	Blank	MissedWin	True
694.451	0.3	Win2	0.6892	0.003	No	2.673	-0.003	4.0	NoResponse	0	0.177	n/a	7	73	ButtonPress	MissedWin	True
694.976	1.45	Win2	0.6892	n/a	No	2.673	n/a	5.0	NoResponse	0	0.02	693.996	7	73	Feedback	MissedWin	True
696.43	2.673	Win2	0.6892	n/a	No	2.673	n/a	n/a	NoResponse	0	0.0	n/a	7	73	ISIslide	MissedWin	True
699.121	0.25	Lose2	0.68	0.0	No	2.629	0.021	n/a	PrematurePress	-1	n/a	n/a	6	74	Cue	Loss	True
699.372	4.05	Lose2	0.68	0.0	No	2.629	0.001	n/a	PrematurePress	-1	n/a	n/a	6	74	Fixation	Loss	True
703.418	0.15	Lose2	0.68	0.003	No	2.629	-0.003	4.0	PrematurePress	-1	0.097	702.515	6	74	Target	Loss	True
703.515	0.3	Lose2	0.68	0.003	No	2.629	-0.003	4.0	PrematurePress	-1	0.097	n/a	6	74	ButtonPress	Loss	True
703.568	0.55	Lose2	0.68	n/a	No	2.629	n/a	n/a	PrematurePress	-1	n/a	n/a	6	74	Blank	Loss	True
704.12	1.45	Lose2	0.68	n/a	No	2.629	n/a	5.0	PrematurePress	-1	0.046	703.166	6	74	Feedback	Loss	True
705.574	2.629	Lose2	0.68	n/a	No	2.629	n/a	n/a	PrematurePress	-1	0.0	n/a	6	74	ISIslide	Loss	True
708.215	0.25	Lose2	0.6711	0.0	No	2.935	0.015	n/a	NoResponse	-1	n/a	n/a	5	75	Cue	Loss	False
708.466	3.95	Lose2	0.6711	0.0	No	2.935	0.001	4.0	NoResponse	-1	1.091	708.557	5	75	Fixation	Loss	False
709.557	0.3	Lose2	0.6711	0.0	No	2.935	0.001	4.0	NoResponse	-1	1.091	n/a	5	75	ButtonPress	Loss	False
712.411	0.15	Lose2	0.6711	0.004	No	2.935	-0.004	4.0	NoResponse	-1	0.178	711.589	5	75	Target	Loss	False
712.562	0.55	Lose2	0.6711	n/a	No	2.935	n/a	n/a	NoResponse	-1	n/a	n/a	5	75	Blank	Loss	False
712.589	0.3	Lose2	0.6711	0.004	No	2.935	-0.004	4.0	NoResponse	-1	0.178	n/a	5	75	ButtonPress	Loss	False
713.113	1.45	Lose2	0.6711	n/a	No	2.935	n/a	5.0	NoResponse	-1	0.029	712.142	5	75	Feedback	Loss	False
714.568	2.935	Lose2	0.6711	n/a	No	2.935	n/a	n/a	NoResponse	-1	0.0	n/a	5	75	ISIslide	Loss	False
717.527	0.25	Control	0.6623	0.0	No	3.223	0.027	n/a	NoResponse	0	n/a	n/a	5	76	Cue	Neutral	True
717.777	4.05	Control	0.6623	0.0	No	3.223	0.0	n/a	NoResponse	0	n/a	n/a	5	76	Fixation	Neutral	True
721.823	0.15	Control	0.6623	0.004	No	3.223	-0.004	4.0	NoResponse	0	0.177	721.0	5	76	Target	Neutral	True
721.973	0.55	Control	0.6623	n/a	No	3.223	n/a	n/a	NoResponse	0	n/a	n/a	5	76	Blank	Neutral	True
722	0.3	Control	0.6623	0.004	No	3.223	-0.004	4.0	NoResponse	0	0.177	n/a	5	76	ButtonPress	Neutral	True
722.525	1.45	Control	0.6623	n/a	No	3.223	n/a	5.0	NoResponse	0	0.032	721.557	5	76	Feedback	Neutral	True
723.979	3.223	Control	0.6623	n/a	No	3.223	n/a	n/a	NoResponse	0	0.0	n/a	5	76	ISIslide	Neutral	True
727.222	0.25	Lose2	0.6537999999999999	0.0	No	2.578	0.022	n/a	NoResponse	-1	n/a	n/a	4	77	Cue	Loss	True
727.473	3.95	Lose2	0.6537999999999999	0.0	No	2.578	0.001	n/a	NoResponse	-1	n/a	n/a	4	77	Fixation	Loss	True
731.418	0.15	Lose2	0.6537999999999999	0.004	No	2.578	-0.004	4.0	NoResponse	-1	0.167	730.585	4	77	Target	Loss	True
731.569	0.55	Lose2	0.6537999999999999	n/a	No	2.578	n/a	n/a	NoResponse	-1	n/a	n/a	4	77	Blank	Loss	True
731.585	0.3	Lose2	0.6537999999999999	0.004	No	2.578	-0.004	4.0	NoResponse	-1	0.167	n/a	4	77	ButtonPress	Loss	True
732.12	1.45	Lose2	0.6537999999999999	n/a	No	2.578	n/a	5.0	NoResponse	-1	0.046	731.166	4	77	Feedback	Loss	True
733.575	2.578	Lose2	0.6537999999999999	n/a	No	2.578	n/a	n/a	NoResponse	-1	0.0	n/a	4	77	ISIslide	Loss	True
