onset	duration	cue_type	current_mean_accuracy	duration_error	is_hit	isi_adjusted	onset_delay	response	response_type	reward	rt	rt_time	total_reward	trial_number	trial_phase	trial_type	one_press
11.1	0.25	Control	1.0	0.0	Yes	2.95	0.0	n/a	GoodResponse	0	n/a	n/a	0	0	Cue	Neutral	True
11.35	3.85	Control	1.0	0.0	Yes	2.95	0.0	n/a	GoodResponse	0	n/a	n/a	0	0	Fixation	Neutral	True
15.212	0.4	Control	1.0	0.0	Yes	2.95	0.012	4.0	GoodResponse	0	0.229	14.441	0	0	Target	Neutral	True
15.441	0.3	Control	1.0	0.0	Yes	2.95	0.012	4.0	GoodResponse	0	0.229	n/a	0	0	ButtonPress	Neutral	True
15.596	0.3	Control	1.0	n/a	Yes	2.95	n/a	n/a	GoodResponse	0	n/a	n/a	0	0	Blank	Neutral	True
15.897	1.45	Control	1.0	n/a	Yes	2.95	n/a	5.0	GoodResponse	0	0.032	14.929	0	0	Feedback	Neutral	True
17.352	2.95	Control	1.0	n/a	Yes	2.95	n/a	n/a	GoodResponse	0	0.0	n/a	0	0	ISIslide	Neutral	True
20.344	0.25	Lose2	1.0	0.0	Yes	2.756	0.044	n/a	GoodResponse	0	n/a	n/a	0	1	Cue	AvoidedLoss	True
20.595	4.0	Lose2	1.0	0.0	Yes	2.756	0.001	n/a	GoodResponse	0	n/a	n/a	0	1	Fixation	AvoidedLoss	True
24.59	0.39	Lose2	1.0	0.004	Yes	2.756	-0.004	4.0	GoodResponse	0	0.21	23.8	0	1	Target	AvoidedLoss	True
24.8	0.3	Lose2	1.0	0.004	Yes	2.756	-0.004	4.0	GoodResponse	0	0.21	n/a	0	1	ButtonPress	AvoidedLoss	True
24.991	0.31	Lose2	1.0	n/a	Yes	2.756	n/a	n/a	GoodResponse	0	n/a	n/a	0	1	Blank	AvoidedLoss	True
25.292	1.45	Lose2	1.0	n/a	Yes	2.756	n/a	5.0	GoodResponse	0	0.006	24.298	0	1	Feedback	AvoidedLoss	True
26.746	2.756	Lose2	1.0	n/a	Yes	2.756	n/a	n/a	GoodResponse	0	0.0	n/a	0	1	ISIslide	AvoidedLoss	True
29.521	0.25	Control	1.0	0.0	Yes	2.579	0.021	n/a	GoodResponse	0	n/a	n/a	0	2	Cue	Neutral	True
29.772	4.1	Control	1.0	0.0	Yes	2.579	0.001	n/a	GoodResponse	0	n/a	n/a	0	2	Fixation	Neutral	True
33.868	0.38	Control	1.0	0.003	Yes	2.579	-0.003	4.0	GoodResponse	0	0.25	33.118	0	2	Target	Neutral	True
34.118	0.3	Control	1.0	0.003	Yes	2.579	-0.003	4.0	GoodResponse	0	0.25	n/a	0	2	ButtonPress	Neutral	True
34.252	0.32	Control	1.0	n/a	Yes	2.579	n/a	n/a	GoodResponse	0	n/a	n/a	0	2	Blank	Neutral	True
34.57	1.45	Control	1.0	n/a	Yes	2.579	n/a	5.0	GoodResponse	0	0.042	33.612	0	2	Feedback	Neutral	True
36.024	2.579	Control	1.0	n/a	Yes	2.579	n/a	n/a	GoodResponse	0	0.0	n/a	0	2	ISIslide	Neutral	True
38.665	0.25	Win2	1.0	0.001	Yes	2.785	0.065	n/a	GoodResponse	1	n/a	n/a	1	3	Cue	Win	True
38.916	3.95	Win2	1.0	0.0	Yes	2.785	0.001	n/a	GoodResponse	1	n/a	n/a	1	3	Fixation	Win	True
42.861	0.37	Win2	1.0	0.004	Yes	2.785	-0.004	4.0	GoodResponse	1	0.225	42.086	1	3	Target	Win	True
43.086	0.3	Win2	1.0	0.004	Yes	2.785	-0.004	4.0	GoodResponse	1	0.225	n/a	1	3	ButtonPress	Win	True
43.246	0.33	Win2	1.0	n/a	Yes	2.785	n/a	n/a	GoodResponse	1	n/a	n/a	1	3	Blank	Win	True
43.563	1.45	Win2	1.0	n/a	Yes	2.785	n/a	5.0	GoodResponse	1	0.024	42.587	1	3	Feedback	Win	True
45.018	2.785	Win2	1.0	n/a	Yes	2.785	n/a	n/a	GoodResponse	1	0.0	n/a	1	3	ISIslide	Win	True
47.826	0.25	Win2	1.0	0.0	Yes	3.274	0.026	n/a	GoodResponse	1	n/a	n/a	2	4	Cue	Win	True
48.077	4.0	Win2	1.0	0.0	Yes	3.274	0.001	n/a	GoodResponse	1	n/a	n/a	2	4	Fixation	Win	True
52.072	0.36	Win2	1.0	0.004	Yes	3.274	-0.004	4.0	GoodResponse	1	0.269	51.341	2	4	Target	Win	True
52.341	0.3	Win2	1.0	0.004	Yes	3.274	-0.004	4.0	GoodResponse	1	0.269	n/a	2	4	ButtonPress	Win	True
52.44	0.34	Win2	1.0	n/a	Yes	3.274	n/a	n/a	GoodResponse	1	n/a	n/a	2	4	Blank	Win	True
52.774	1.45	Win2	1.0	n/a	Yes	3.274	n/a	5.0	GoodResponse	1	0.033	51.807	2	4	Feedback	Win	True
54.229	3.274	Win2	1.0	n/a	Yes	3.274	n/a	n/a	GoodResponse	1	0.0	n/a	2	4	ISIslide	Win	True
57.522	0.25	Win2	1.0	0.0	Yes	2.778	0.022	n/a	GoodResponse	1	n/a	n/a	3	5	Cue	Win	True
57.773	4.0	Win2	1.0	0.0	Yes	2.778	0.001	n/a	GoodResponse	1	n/a	n/a	3	5	Fixation	Win	True
61.768	0.35	Win2	1.0	0.004	Yes	2.778	-0.004	4.0	GoodResponse	1	0.279	61.047	3	5	Target	Win	True
62.047	0.3	Win2	1.0	0.004	Yes	2.778	-0.004	4.0	GoodResponse	1	0.279	n/a	3	5	ButtonPress	Win	True
62.119	0.35	Win2	1.0	n/a	Yes	2.778	n/a	n/a	GoodResponse	1	n/a	n/a	3	5	Blank	Win	True
62.47	1.45	Win2	1.0	n/a	Yes	2.778	n/a	5.0	GoodResponse	1	0.044	61.514	3	5	Feedback	Win	True
63.924	2.778	Win2	1.0	n/a	Yes	2.778	n/a	n/a	GoodResponse	1	0.0	n/a	3	5	ISIslide	Win	True
66.716	0.25	Lose2	1.0	0.0	Yes	2.734	0.016	n/a	GoodResponse	0	n/a	n/a	3	6	Cue	AvoidedLoss	True
66.967	3.95	Lose2	1.0	0.0	Yes	2.734	0.001	n/a	GoodResponse	0	n/a	n/a	3	6	Fixation	AvoidedLoss	True
70.912	0.34	Lose2	1.0	0.004	Yes	2.734	-0.004	4.0	GoodResponse	0	0.266	70.178	3	6	Target	AvoidedLoss	True
71.178	0.3	Lose2	1.0	0.004	Yes	2.734	-0.004	4.0	GoodResponse	0	0.266	n/a	3	6	ButtonPress	AvoidedLoss	True
71.263	0.36	Lose2	1.0	n/a	Yes	2.734	n/a	n/a	GoodResponse	0	n/a	n/a	3	6	Blank	AvoidedLoss	True
71.614	1.45	Lose2	1.0	n/a	Yes	2.734	n/a	5.0	GoodResponse	0	0.022	70.636	3	6	Feedback	AvoidedLoss	True
73.068	2.734	Lose2	1.0	n/a	Yes	2.734	n/a	n/a	GoodResponse	0	0.0	n/a	3	6	ISIslide	AvoidedLoss	True
75.827	0.25	Lose2	1.0	0.0	Yes	4.023	0.027	n/a	GoodResponse	0	n/a	n/a	3	7	Cue	AvoidedLoss	True
76.077	4.05	Lose2	1.0	0.001	Yes	4.023	0.0	n/a	GoodResponse	0	n/a	n/a	3	7	Fixation	AvoidedLoss	True
80.123	0.33	Lose2	1.0	0.004	Yes	4.023	-0.004	4.0	GoodResponse	0	0.283	79.406	3	7	Target	AvoidedLoss	True
80.406	0.3	Lose2	1.0	0.004	Yes	4.023	-0.004	4.0	GoodResponse	0	0.283	n/a	3	7	ButtonPress	AvoidedLoss	True
80.457	0.37	Lose2	1.0	n/a	Yes	4.023	n/a	n/a	GoodResponse	0	n/a	n/a	3	7	Blank	AvoidedLoss	True
80.825	1.45	Lose2	1.0	n/a	Yes	4.023	n/a	5.0	GoodResponse	0	0.03	79.855	3	7	Feedback	AvoidedLoss	True
82.279	4.023	Lose2	1.0	n/a	Yes	4.023	n/a	n/a	GoodResponse	0	0.0	n/a	3	7	ISIslide	AvoidedLoss	True
86.325	0.25	Lose2	1.0	0.0	Yes	3.025	0.025	n/a	GoodResponse	0	n/a	n/a	3	8	Cue	AvoidedLoss	True
86.576	3.95	Lose2	1.0	0.0	Yes	3.025	0.001	n/a	GoodResponse	0	n/a	n/a	3	8	Fixation	AvoidedLoss	True
90.521	0.32	Lose2	1.0	0.004	Yes	3.025	-0.004	4.0	GoodResponse	0	0.261	89.782	3	8	Target	AvoidedLoss	True
90.782	0.3	Lose2	1.0	0.004	Yes	3.025	-0.004	4.0	GoodResponse	0	0.261	n/a	3	8	ButtonPress	AvoidedLoss	True
90.855	0.38	Lose2	1.0	n/a	Yes	3.025	n/a	n/a	GoodResponse	0	n/a	n/a	3	8	Blank	AvoidedLoss	True
91.223	1.45	Lose2	1.0	n/a	Yes	3.025	n/a	5.0	GoodResponse	0	0.023	90.246	3	8	Feedback	AvoidedLoss	True
92.677	3.025	Lose2	1.0	n/a	Yes	3.025	n/a	n/a	GoodResponse	0	0.0	n/a	3	8	ISIslide	AvoidedLoss	True
95.72	0.25	Lose2	1.0	0.0	Yes	3.13	0.02	n/a	GoodResponse	0	n/a	n/a	3	9	Cue	AvoidedLoss	True
95.97	3.95	Lose2	1.0	0.0	Yes	3.13	0.0	n/a	GoodResponse	0	n/a	n/a	3	9	Fixation	AvoidedLoss	True
99.915	0.31	Lose2	1.0	0.005	Yes	3.13	-0.005	4.0	GoodResponse	0	0.233	99.148	3	9	Target	AvoidedLoss	True
100.148	0.3	Lose2	1.0	0.005	Yes	3.13	-0.005	4.0	GoodResponse	0	0.233	n/a	3	9	ButtonPress	AvoidedLoss	True
100.233	0.39	Lose2	1.0	n/a	Yes	3.13	n/a	n/a	GoodResponse	0	n/a	n/a	3	9	Blank	AvoidedLoss	True
100.618	1.45	Lose2	1.0	n/a	Yes	3.13	n/a	5.0	GoodResponse	0	0.042	99.66	3	9	Feedback	AvoidedLoss	True
102.072	3.13	Lose2	1.0	n/a	Yes	3.13	n/a	n/a	GoodResponse	0	0.0	n/a	3	9	ISIslide	AvoidedLoss	True
105.215	0.25	Control	1.0	0.0	Yes	3.285	0.015	n/a	GoodResponse	0	n/a	n/a	3	10	Cue	Neutral	True
105.465	4.0	Control	1.0	0.001	Yes	3.285	0.0	n/a	GoodResponse	0	n/a	n/a	3	10	Fixation	Neutral	True
109.461	0.3	Control	1.0	0.004	Yes	3.285	-0.004	4.0	GoodResponse	0	0.262	108.723	3	10	Target	Neutral	True
109.723	0.3	Control	1.0	0.004	Yes	3.285	-0.004	4.0	GoodResponse	0	0.262	n/a	3	10	ButtonPress	Neutral	True
109.762	0.4	Control	1.0	n/a	Yes	3.285	n/a	n/a	GoodResponse	0	n/a	n/a	3	10	Blank	Neutral	True
110.163	1.45	Control	1.0	n/a	Yes	3.285	n/a	5.0	GoodResponse	0	0.009	109.172	3	10	Feedback	Neutral	True
111.617	3.285	Control	1.0	n/a	Yes	3.285	n/a	n/a	GoodResponse	0	0.0	n/a	3	10	ISIslide	Neutral	True
114.927	0.25	Lose2	1.0	0.0	Yes	2.723	0.027	n/a	GoodResponse	0	n/a	n/a	3	11	Cue	AvoidedLoss	True
115.178	4.05	Lose2	1.0	0.0	Yes	2.723	0.001	n/a	GoodResponse	0	n/a	n/a	3	11	Fixation	AvoidedLoss	True
119.223	0.29	Lose2	1.0	0.004	Yes	2.723	-0.004	4.0	GoodResponse	0	0.177	118.4	3	11	Target	AvoidedLoss	True
119.4	0.3	Lose2	1.0	0.004	Yes	2.723	-0.004	4.0	GoodResponse	0	0.177	n/a	3	11	ButtonPress	AvoidedLoss	True
119.524	0.41	Lose2	1.0	n/a	Yes	2.723	n/a	n/a	GoodResponse	0	n/a	n/a	3	11	Blank	AvoidedLoss	True
119.925	1.45	Lose2	1.0	n/a	Yes	2.723	n/a	5.0	GoodResponse	0	0.006	118.931	3	11	Feedback	AvoidedLoss	True
121.38	2.723	Lose2	1.0	n/a	Yes	2.723	n/a	n/a	GoodResponse	0	0.0	n/a	3	11	ISIslide	AvoidedLoss	True
124.121	0.25	Control	1.0	0.0	Yes	2.979	0.021	n/a	GoodResponse	0	n/a	n/a	3	12	Cue	Neutral	True
124.372	3.9	Control	1.0	0.0	Yes	2.979	0.001	n/a	GoodResponse	0	n/a	n/a	3	12	Fixation	Neutral	True
128.267	0.28	Control	1.0	0.004	Yes	2.979	-0.004	4.0	GoodResponse	0	0.215	127.482	3	12	Target	Neutral	True
128.482	0.3	Control	1.0	0.004	Yes	2.979	-0.004	4.0	GoodResponse	0	0.215	n/a	3	12	ButtonPress	Neutral	True
128.551	0.42	Control	1.0	n/a	Yes	2.979	n/a	n/a	GoodResponse	0	n/a	n/a	3	12	Blank	Neutral	True
128.969	1.45	Control	1.0	n/a	Yes	2.979	n/a	5.0	GoodResponse	0	0.032	128.001	3	12	Feedback	Neutral	True
130.423	2.979	Control	1.0	n/a	Yes	2.979	n/a	n/a	GoodResponse	0	0.0	n/a	3	12	ISIslide	Neutral	True
133.432	0.25	Control	1.0	0.001	Yes	2.768	0.032	n/a	GoodResponse	0	n/a	n/a	3	13	Cue	Neutral	True
133.683	4.0	Control	1.0	0.0	Yes	2.768	0.001	n/a	GoodResponse	0	n/a	n/a	3	13	Fixation	Neutral	True
137.678	0.27	Control	1.0	0.004	Yes	2.768	-0.004	4.0	GoodResponse	0	0.258	136.936	3	13	Target	Neutral	True
137.936	0.3	Control	1.0	0.004	Yes	2.768	-0.004	4.0	GoodResponse	0	0.258	n/a	3	13	ButtonPress	Neutral	True
137.963	0.43	Control	1.0	n/a	Yes	2.768	n/a	n/a	GoodResponse	0	n/a	n/a	3	13	Blank	Neutral	True
138.381	1.45	Control	1.0	n/a	Yes	2.768	n/a	5.0	GoodResponse	0	0.035	137.416	3	13	Feedback	Neutral	True
139.835	2.768	Control	1.0	n/a	Yes	2.768	n/a	n/a	GoodResponse	0	0.0	n/a	3	13	ISIslide	Neutral	True
142.627	0.25	Win2	1.0	0.0	Yes	2.673	0.027	n/a	GoodResponse	1	n/a	n/a	4	14	Cue	Win	True
142.877	4.1	Win2	1.0	0.001	Yes	2.673	0.0	n/a	GoodResponse	1	n/a	n/a	4	14	Fixation	Win	True
146.973	0.26	Win2	1.0	0.004	Yes	2.673	-0.004	4.0	GoodResponse	1	0.208	146.181	4	14	Target	Win	True
147.181	0.3	Win2	1.0	0.004	Yes	2.673	-0.004	4.0	GoodResponse	1	0.208	n/a	4	14	ButtonPress	Win	True
147.24	0.44	Win2	1.0	n/a	Yes	2.673	n/a	n/a	GoodResponse	1	n/a	n/a	4	14	Blank	Win	True
147.675	1.45	Win2	1.0	n/a	Yes	2.673	n/a	5.0	GoodResponse	1	0.009	146.684	4	14	Feedback	Win	True
149.129	2.673	Win2	1.0	n/a	Yes	2.673	n/a	n/a	GoodResponse	1	0.0	n/a	4	14	ISIslide	Win	True
151.821	0.25	Control	1.0	0.0	Yes	2.979	0.021	n/a	GoodResponse	0	n/a	n/a	4	15	Cue	Neutral	True
152.072	4.0	Control	1.0	0.0	Yes	2.979	0.001	n/a	GoodResponse	0	n/a	n/a	4	15	Fixation	Neutral	True
156.067	0.25	Control	1.0	0.004	Yes	2.979	-0.004	4.0	GoodResponse	0	0.189	155.256	4	15	Target	Neutral	True
156.256	0.3	Control	1.0	0.004	Yes	2.979	-0.004	4.0	GoodResponse	0	0.189	n/a	4	15	ButtonPress	Neutral	True
156.318	0.45	Control	1.0	n/a	Yes	2.979	n/a	n/a	GoodResponse	0	n/a	n/a	4	15	Blank	Neutral	True
156.769	1.45	Control	1.0	n/a	Yes	2.979	n/a	5.0	GoodResponse	0	0.037	155.806	4	15	Feedback	Neutral	True
158.223	2.979	Control	1.0	n/a	Yes	2.979	n/a	n/a	GoodResponse	0	0.0	n/a	4	15	ISIslide	Neutral	True
161.216	0.25	Win2	1.0	0.0	Yes	2.884	0.016	n/a	GoodResponse	1	n/a	n/a	5	16	Cue	Win	True
161.466	4.0	Win2	1.0	0.0	Yes	2.884	0.0	n/a	GoodResponse	1	n/a	n/a	5	16	Fixation	Win	True
165.462	0.24	Win2	1.0	0.004	Yes	2.884	-0.004	4.0	GoodResponse	1	0.2	164.662	5	16	Target	Win	True
165.662	0.3	Win2	1.0	0.004	Yes	2.884	-0.004	4.0	GoodResponse	1	0.2	n/a	5	16	ButtonPress	Win	True
165.712	0.46	Win2	1.0	n/a	Yes	2.884	n/a	n/a	GoodResponse	1	n/a	n/a	5	16	Blank	Win	True
166.164	1.45	Win2	1.0	n/a	Yes	2.884	n/a	5.0	GoodResponse	1	0.007	165.171	5	16	Feedback	Win	True
167.618	2.884	Win2	1.0	n/a	Yes	2.884	n/a	n/a	GoodResponse	1	0.0	n/a	5	16	ISIslide	Win	True
170.527	0.25	Lose2	1.0	0.0	Yes	2.723	0.027	n/a	GoodResponse	0	n/a	n/a	5	17	Cue	AvoidedLoss	True
170.778	3.95	Lose2	1.0	0.0	Yes	2.723	0.001	n/a	GoodResponse	0	n/a	n/a	5	17	Fixation	AvoidedLoss	True
174.723	0.23	Lose2	1.0	0.004	Yes	2.723	-0.004	4.0	GoodResponse	0	0.227	173.95	5	17	Target	AvoidedLoss	True
174.95	0.3	Lose2	1.0	0.004	Yes	2.723	-0.004	4.0	GoodResponse	0	0.227	n/a	5	17	ButtonPress	AvoidedLoss	True
174.957	0.47	Lose2	1.0	n/a	Yes	2.723	n/a	n/a	GoodResponse	0	n/a	n/a	5	17	Blank	AvoidedLoss	True
175.425	1.45	Lose2	1.0	n/a	Yes	2.723	n/a	5.0	GoodResponse	0	0.015	174.44	5	17	Feedback	AvoidedLoss	True
176.879	2.723	Lose2	1.0	n/a	Yes	2.723	n/a	n/a	GoodResponse	0	0.0	n/a	5	17	ISIslide	AvoidedLoss	True
179.621	0.25	Lose2	1.0	0.0	Yes	2.729	0.021	n/a	GoodResponse	0	n/a	n/a	5	18	Cue	AvoidedLoss	False
179.871	4.05	Lose2	1.0	0.001	Yes	2.729	0.0	4.0	GoodResponse	0	3.6	182.471	5	18	Fixation	AvoidedLoss	False
183.471	0.3	Lose2	1.0	0.001	Yes	2.729	0.0	4.0	GoodResponse	0	3.6	n/a	5	18	ButtonPress	AvoidedLoss	False
183.917	0.22	Lose2	1.0	0.004	Yes	2.729	-0.004	4.0	GoodResponse	0	0.191	183.108	5	18	Target	AvoidedLoss	False
184.108	0.3	Lose2	1.0	0.004	Yes	2.729	-0.004	4.0	GoodResponse	0	0.191	n/a	5	18	ButtonPress	AvoidedLoss	False
184.151	0.48	Lose2	1.0	n/a	Yes	2.729	n/a	n/a	GoodResponse	0	n/a	n/a	5	18	Blank	AvoidedLoss	False
184.619	1.45	Lose2	1.0	n/a	Yes	2.729	n/a	5.0	GoodResponse	0	0.04	183.659	5	18	Feedback	AvoidedLoss	False
186.073	2.729	Lose2	1.0	n/a	Yes	2.729	n/a	n/a	GoodResponse	0	0.0	n/a	5	18	ISIslide	AvoidedLoss	False
188.815	0.25	Control	0.95	0.0	No	2.935	0.015	n/a	NoResponse	0	n/a	n/a	5	19	Cue	Neutral	True
189.066	3.95	Control	0.95	0.0	No	2.935	0.001	n/a	NoResponse	0	n/a	n/a	5	19	Fixation	Neutral	True
193.011	0.21	Control	0.95	0.004	No	2.935	-0.004	4.0	NoResponse	0	0.226	192.237	5	19	Target	Neutral	True
193.228	0.49	Control	0.95	n/a	No	2.935	n/a	n/a	NoResponse	0	n/a	n/a	5	19	Blank	Neutral	True
193.237	0.3	Control	0.95	0.004	No	2.935	-0.004	4.0	NoResponse	0	0.226	n/a	5	19	ButtonPress	Neutral	True
193.713	1.45	Control	0.95	n/a	No	2.935	n/a	5.0	NoResponse	0	0.02	192.733	5	19	Feedback	Neutral	True
195.167	2.935	Control	0.95	n/a	No	2.935	n/a	n/a	NoResponse	0	0.0	n/a	5	19	ISIslide	Neutral	True
198.126	0.25	Control	0.9048	0.0	No	2.624	0.026	n/a	NoResponse	0	n/a	n/a	5	20	Cue	Neutral	True
198.377	4.05	Control	0.9048	0.0	No	2.624	0.001	n/a	NoResponse	0	n/a	n/a	5	20	Fixation	Neutral	True
202.422	0.2	Control	0.9048	0.004	No	2.624	-0.004	4.0	NoResponse	0	0.227	201.649	5	20	Target	Neutral	True
202.623	0.5	Control	0.9048	n/a	No	2.624	n/a	n/a	NoResponse	0	n/a	n/a	5	20	Blank	Neutral	True
202.649	0.3	Control	0.9048	0.004	No	2.624	-0.004	4.0	NoResponse	0	0.227	n/a	5	20	ButtonPress	Neutral	True
203.124	1.45	Control	0.9048	n/a	No	2.624	n/a	5.0	NoResponse	0	0.023	202.147	5	20	Feedback	Neutral	True
204.579	2.624	Control	0.9048	n/a	No	2.624	n/a	n/a	NoResponse	0	0.0	n/a	5	20	ISIslide	Neutral	True
207.22	0.25	Control	0.8636	0.0	No	2.78	0.02	n/a	NoResponse	0	n/a	n/a	5	21	Cue	Neutral	True
207.471	4.1	Control	0.8636	0.0	No	2.78	0.001	n/a	NoResponse	0	n/a	n/a	5	21	Fixation	Neutral	True
211.566	0.19	Control	0.8636	0.004	No	2.78	-0.004	4.0	NoResponse	0	0.216	210.782	5	21	Target	Neutral	True
211.767	0.51	Control	0.8636	n/a	No	2.78	n/a	n/a	NoResponse	0	n/a	n/a	5	21	Blank	Neutral	True
211.782	0.3	Control	0.8636	0.004	No	2.78	-0.004	4.0	NoResponse	0	0.216	n/a	5	21	ButtonPress	Neutral	True
212.268	1.45	Control	0.8636	n/a	No	2.78	n/a	5.0	NoResponse	0	0.049	211.317	5	21	Feedback	Neutral	True
213.723	2.78	Control	0.8636	n/a	No	2.78	n/a	n/a	NoResponse	0	0.0	n/a	5	21	ISIslide	Neutral	True
216.531	0.25	Control	0.8261	0.0	No	2.769	0.031	n/a	NoResponse	0	n/a	n/a	5	22	Cue	Neutral	True
216.782	4.0	Control	0.8261	0.0	No	2.769	0.001	n/a	NoResponse	0	n/a	n/a	5	22	Fixation	Neutral	True
220.777	0.18	Control	0.8261	0.004	No	2.769	-0.004	4.0	NoResponse	0	0.213	219.99	5	22	Target	Neutral	True
220.961	0.52	Control	0.8261	n/a	No	2.769	n/a	n/a	NoResponse	0	n/a	n/a	5	22	Blank	Neutral	True
220.99	0.3	Control	0.8261	0.004	No	2.769	-0.004	4.0	NoResponse	0	0.213	n/a	5	22	ButtonPress	Neutral	True
221.479	1.45	Control	0.8261	n/a	No	2.769	n/a	5.0	NoResponse	0	0.009	220.488	5	22	Feedback	Neutral	True
222.934	2.769	Control	0.8261	n/a	No	2.769	n/a	n/a	NoResponse	0	0.0	n/a	5	22	ISIslide	Neutral	True
225.725	0.25	Control	0.7917000000000001	0.0	No	2.775	0.025	n/a	NoResponse	0	n/a	n/a	5	23	Cue	Neutral	True
225.976	3.9	Control	0.7917000000000001	0.0	No	2.775	0.001	n/a	NoResponse	0	n/a	n/a	5	23	Fixation	Neutral	True
229.871	0.17	Control	0.7917000000000001	0.004	No	2.775	-0.004	4.0	NoResponse	0	0.288	229.159	5	23	Target	Neutral	True
230.055	0.53	Control	0.7917000000000001	n/a	No	2.775	n/a	n/a	NoResponse	0	n/a	n/a	5	23	Blank	Neutral	True
230.159	0.3	Control	0.7917000000000001	0.004	No	2.775	-0.004	4.0	NoResponse	0	0.288	n/a	5	23	ButtonPress	Neutral	True
230.573	1.45	Control	0.7917000000000001	n/a	No	2.775	n/a	5.0	NoResponse	0	0.037	229.61	5	23	Feedback	Neutral	True
232.028	2.775	Control	0.7917000000000001	n/a	No	2.775	n/a	n/a	NoResponse	0	0.0	n/a	5	23	ISIslide	Neutral	True
234.819	0.25	Win2	0.76	0.0	No	3.131	0.019	n/a	NoResponse	0	n/a	n/a	5	24	Cue	MissedWin	True
235.07	3.95	Win2	0.76	0.0	No	3.131	0.001	n/a	NoResponse	0	n/a	n/a	5	24	Fixation	MissedWin	True
239.015	0.16	Win2	0.76	0.004	No	3.131	-0.004	4.0	NoResponse	0	0.216	238.231	5	24	Target	MissedWin	True
239.182	0.54	Win2	0.76	n/a	No	3.131	n/a	n/a	NoResponse	0	n/a	n/a	5	24	Blank	MissedWin	True
239.231	0.3	Win2	0.76	0.004	No	3.131	-0.004	4.0	NoResponse	0	0.216	n/a	5	24	ButtonPress	MissedWin	True
239.717	1.45	Win2	0.76	n/a	No	3.131	n/a	5.0	NoResponse	0	0.015	238.732	5	24	Feedback	MissedWin	True
241.172	3.131	Win2	0.76	n/a	No	3.131	n/a	n/a	NoResponse	0	0.0	n/a	5	24	ISIslide	MissedWin	True
244.331	0.25	Win2	0.7308	0.0	No	3.069	0.031	n/a	NoResponse	0	n/a	n/a	5	25	Cue	MissedWin	True
244.582	4.0	Win2	0.7308	0.0	No	3.069	0.001	n/a	NoResponse	0	n/a	n/a	5	25	Fixation	MissedWin	True
248.577	0.15	Win2	0.7308	0.004	No	3.069	-0.004	4.0	NoResponse	0	0.204	247.781	5	25	Target	MissedWin	True
248.728	0.55	Win2	0.7308	n/a	No	3.069	n/a	n/a	NoResponse	0	n/a	n/a	5	25	Blank	MissedWin	True
248.781	0.3	Win2	0.7308	0.004	No	3.069	-0.004	4.0	NoResponse	0	0.204	n/a	5	25	ButtonPress	MissedWin	True
249.279	1.45	Win2	0.7308	n/a	No	3.069	n/a	5.0	NoResponse	0	0.014	248.293	5	25	Feedback	MissedWin	True
250.734	3.069	Win2	0.7308	n/a	No	3.069	n/a	n/a	NoResponse	0	0.0	n/a	5	25	ISIslide	MissedWin	True
253.826	0.25	Win2	0.7037	0.0	No	2.924	0.026	n/a	NoResponse	0	n/a	n/a	5	26	Cue	MissedWin	True
254.077	3.95	Win2	0.7037	0.0	No	2.924	0.001	n/a	NoResponse	0	n/a	n/a	5	26	Fixation	MissedWin	True
258.022	0.15	Win2	0.7037	0.004	No	2.924	-0.004	4.0	NoResponse	0	0.196	257.218	5	26	Target	MissedWin	True
258.173	0.55	Win2	0.7037	n/a	No	2.924	n/a	n/a	NoResponse	0	n/a	n/a	5	26	Blank	MissedWin	True
258.218	0.3	Win2	0.7037	0.004	No	2.924	-0.004	4.0	NoResponse	0	0.196	n/a	5	26	ButtonPress	MissedWin	True
258.724	1.45	Win2	0.7037	n/a	No	2.924	n/a	5.0	NoResponse	0	0.033	257.757	5	26	Feedback	MissedWin	True
260.179	2.924	Win2	0.7037	n/a	No	2.924	n/a	n/a	NoResponse	0	0.0	n/a	5	26	ISIslide	MissedWin	True
263.121	0.25	Lose2	0.6786	0.0	No	2.829	0.021	n/a	NoResponse	-1	n/a	n/a	4	27	Cue	Loss	True
263.371	4.05	Lose2	0.6786	0.0	No	2.829	0.0	n/a	NoResponse	-1	n/a	n/a	4	27	Fixation	Loss	True
267.417	0.15	Lose2	0.6786	0.004	No	2.829	-0.004	4.0	NoResponse	-1	0.271	266.688	4	27	Target	Loss	True
267.567	0.55	Lose2	0.6786	n/a	No	2.829	n/a	n/a	NoResponse	-1	n/a	n/a	4	27	Blank	Loss	True
267.688	0.3	Lose2	0.6786	0.004	No	2.829	-0.004	4.0	NoResponse	-1	0.271	n/a	4	27	ButtonPress	Loss	True
268.119	1.45	Lose2	0.6786	n/a	No	2.829	n/a	5.0	NoResponse	-1	0.007	267.126	4	27	Feedback	Loss	True
269.573	2.829	Lose2	0.6786	n/a	No	2.829	n/a	n/a	NoResponse	-1	0.0	n/a	4	27	ISIslide	Loss	True
272.415	0.25	Control	0.6552	0.0	No	2.835	0.015	n/a	NoResponse	0	n/a	n/a	4	28	Cue	Neutral	True
272.666	4.05	Control	0.6552	0.0	No	2.835	0.001	n/a	NoResponse	0	n/a	n/a	4	28	Fixation	Neutral	True
276.711	0.15	Control	0.6552	0.004	No	2.835	-0.004	4.0	NoResponse	0	0.206	275.917	4	28	Target	Neutral	True
276.862	0.55	Control	0.6552	n/a	No	2.835	n/a	n/a	NoResponse	0	n/a	n/a	4	28	Blank	Neutral	True
276.917	0.3	Control	0.6552	0.004	No	2.835	-0.004	4.0	NoResponse	0	0.206	n/a	4	28	ButtonPress	Neutral	True
277.413	1.45	Control	0.6552	n/a	No	2.835	n/a	5.0	NoResponse	0	0.026	276.439	4	28	Feedback	Neutral	True
278.868	2.835	Control	0.6552	n/a	No	2.835	n/a	n/a	NoResponse	0	0.0	n/a	4	28	ISIslide	Neutral	True
281.726	0.25	Lose2	0.6333	0.0	No	2.824	0.026	n/a	NoResponse	-1	n/a	n/a	3	29	Cue	Loss	True
281.977	3.95	Lose2	0.6333	0.0	No	2.824	0.001	n/a	NoResponse	-1	n/a	n/a	3	29	Fixation	Loss	True
285.922	0.15	Lose2	0.6333	0.004	No	2.824	-0.004	4.0	NoResponse	-1	0.216	285.138	3	29	Target	Loss	True
286.073	0.55	Lose2	0.6333	n/a	No	2.824	n/a	n/a	NoResponse	-1	n/a	n/a	3	29	Blank	Loss	True
286.138	0.3	Lose2	0.6333	0.004	No	2.824	-0.004	4.0	NoResponse	-1	0.216	n/a	3	29	ButtonPress	Loss	True
286.624	1.45	Lose2	0.6333	n/a	No	2.824	n/a	5.0	NoResponse	-1	0.035	285.659	3	29	Feedback	Loss	True
288.079	2.824	Lose2	0.6333	n/a	No	2.824	n/a	n/a	NoResponse	-1	0.0	n/a	3	29	ISIslide	Loss	True
290.921	0.25	Win2	0.6452	0.0	Yes	2.779	0.021	n/a	GoodResponse	1	n/a	n/a	4	30	Cue	Win	True
291.171	3.9	Win2	0.6452	0.0	Yes	2.779	0.0	n/a	GoodResponse	1	n/a	n/a	4	30	Fixation	Win	True
295.083	0.16	Win2	0.6452	0.0	Yes	2.779	0.012	4.0	GoodResponse	1	0.123	294.206	4	30	Target	Win	True
295.206	0.3	Win2	0.6452	0.0	Yes	2.779	0.012	4.0	GoodResponse	1	0.123	n/a	4	30	ButtonPress	Win	True
295.233	0.54	Win2	0.6452	n/a	Yes	2.779	n/a	n/a	GoodResponse	1	n/a	n/a	4	30	Blank	Win	True
295.768	1.45	Win2	0.6452	n/a	Yes	2.779	n/a	5.0	GoodResponse	1	0.013	294.781	4	30	Feedback	Win	True
297.223	2.779	Win2	0.6452	n/a	Yes	2.779	n/a	n/a	GoodResponse	1	0.0	n/a	4	30	ISIslide	Win	True
300.031	0.25	Lose2	0.625	0.0	No	2.819	0.031	n/a	NoResponse	-1	n/a	n/a	3	31	Cue	Loss	True
300.282	4.05	Lose2	0.625	0.0	No	2.819	0.001	n/a	NoResponse	-1	n/a	n/a	3	31	Fixation	Loss	True
304.327	0.17	Lose2	0.625	0.004	No	2.819	-0.004	4.0	NoResponse	-1	0.196	303.523	3	31	Target	Loss	True
304.511	0.53	Lose2	0.625	n/a	No	2.819	n/a	n/a	NoResponse	-1	n/a	n/a	3	31	Blank	Loss	True
304.523	0.3	Lose2	0.625	0.004	No	2.819	-0.004	4.0	NoResponse	-1	0.196	n/a	3	31	ButtonPress	Loss	True
305.029	1.45	Lose2	0.625	n/a	No	2.819	n/a	5.0	NoResponse	-1	0.02	304.049	3	31	Feedback	Loss	True
306.484	2.819	Lose2	0.625	n/a	No	2.819	n/a	n/a	NoResponse	-1	0.0	n/a	3	31	ISIslide	Loss	True
309.326	0.25	Lose2	0.6364	0.0	Yes	2.624	0.026	n/a	GoodResponse	0	n/a	n/a	3	32	Cue	AvoidedLoss	True
309.576	4.15	Lose2	0.6364	0.0	Yes	2.624	0.0	n/a	GoodResponse	0	n/a	n/a	3	32	Fixation	AvoidedLoss	True
313.722	0.18	Lose2	0.6364	0.004	Yes	2.624	-0.004	4.0	GoodResponse	0	0.174	312.896	3	32	Target	AvoidedLoss	True
313.896	0.3	Lose2	0.6364	0.004	Yes	2.624	-0.004	4.0	GoodResponse	0	0.174	n/a	3	32	ButtonPress	AvoidedLoss	True
313.906	0.52	Lose2	0.6364	n/a	Yes	2.624	n/a	n/a	GoodResponse	0	n/a	n/a	3	32	Blank	AvoidedLoss	True
314.424	1.45	Lose2	0.6364	n/a	Yes	2.624	n/a	5.0	GoodResponse	0	0.039	313.463	3	32	Feedback	AvoidedLoss	True
315.879	2.624	Lose2	0.6364	n/a	Yes	2.624	n/a	n/a	GoodResponse	0	0.0	n/a	3	32	ISIslide	AvoidedLoss	True
318.52	0.25	Win2	0.6175999999999999	0.0	No	2.68	0.02	n/a	NoResponse	0	n/a	n/a	3	33	Cue	MissedWin	True
318.771	4.0	Win2	0.6175999999999999	0.0	No	2.68	0.001	n/a	NoResponse	0	n/a	n/a	3	33	Fixation	MissedWin	True
322.766	0.19	Win2	0.6175999999999999	0.004	No	2.68	-0.004	4.0	NoResponse	0	0.208	321.974	3	33	Target	MissedWin	True
322.966	0.51	Win2	0.6175999999999999	n/a	No	2.68	n/a	n/a	NoResponse	0	n/a	n/a	3	33	Blank	MissedWin	True
322.974	0.3	Win2	0.6175999999999999	0.004	No	2.68	-0.004	4.0	NoResponse	0	0.208	n/a	3	33	ButtonPress	MissedWin	True
323.468	1.45	Win2	0.6175999999999999	n/a	No	2.68	n/a	5.0	NoResponse	0	0.019	322.487	3	33	Feedback	MissedWin	True
324.922	2.68	Win2	0.6175999999999999	n/a	No	2.68	n/a	n/a	NoResponse	0	0.0	n/a	3	33	ISIslide	MissedWin	True
327.63	0.25	Lose2	0.6	0.0	No	2.62	0.03	n/a	PrematurePress	-1	n/a	n/a	2	34	Cue	Loss	False
327.881	4.05	Lose2	0.6	0.0	No	2.62	0.001	4.0	PrematurePress	-1	3.589	330.47	2	34	Fixation	Loss	False
331.47	0.3	Lose2	0.6	0.0	No	2.62	0.001	4.0	PrematurePress	-1	3.589	n/a	2	34	ButtonPress	Loss	False
331.927	0.2	Lose2	0.6	0.003	No	2.62	-0.003	4.0	PrematurePress	-1	0.011	330.938	2	34	Target	Loss	False
331.938	0.3	Lose2	0.6	0.003	No	2.62	-0.003	4.0	PrematurePress	-1	0.011	n/a	2	34	ButtonPress	Loss	False
332.127	0.5	Lose2	0.6	n/a	No	2.62	n/a	n/a	PrematurePress	-1	n/a	n/a	2	34	Blank	Loss	False
332.629	1.45	Lose2	0.6	n/a	No	2.62	n/a	5.0	PrematurePress	-1	0.029	331.658	2	34	Feedback	Loss	False
334.083	2.62	Lose2	0.6	n/a	No	2.62	n/a	n/a	PrematurePress	-1	0.0	n/a	2	34	ISIslide	Loss	False
336.724	0.25	Lose2	0.5832999999999999	0.0	No	2.676	0.024	n/a	LatePress	-1	n/a	n/a	1	35	Cue	Loss	True
336.975	4.0	Lose2	0.5832999999999999	0.0	No	2.676	0.001	n/a	LatePress	-1	n/a	n/a	1	35	Fixation	Loss	True
340.97	0.21	Lose2	0.5832999999999999	0.004	No	2.676	-0.004	4.0	LatePress	-1	0.212	340.182	1	35	Target	Loss	True
341.182	0.3	Lose2	0.5832999999999999	0.004	No	2.676	-0.004	4.0	LatePress	-1	0.212	n/a	1	35	ButtonPress	Loss	True
341.188	0.49	Lose2	0.5832999999999999	n/a	No	2.676	n/a	n/a	LatePress	-1	n/a	n/a	1	35	Blank	Loss	True
341.672	1.45	Lose2	0.5832999999999999	n/a	No	2.676	n/a	5.0	LatePress	-1	0.011	340.683	1	35	Feedback	Loss	True
343.127	2.676	Lose2	0.5832999999999999	n/a	No	2.676	n/a	n/a	LatePress	-1	0.0	n/a	1	35	ISIslide	Loss	True
345.818	0.25	Control	0.5946	0.0	Yes	2.682	0.018	n/a	GoodResponse	0	n/a	n/a	1	36	Cue	Neutral	True
346.069	4.0	Control	0.5946	0.0	Yes	2.682	0.001	n/a	GoodResponse	0	n/a	n/a	1	36	Fixation	Neutral	True
350.064	0.22	Control	0.5946	0.004	Yes	2.682	-0.004	4.0	GoodResponse	0	0.201	349.265	1	36	Target	Neutral	True
350.265	0.3	Control	0.5946	0.004	Yes	2.682	-0.004	4.0	GoodResponse	0	0.201	n/a	1	36	ButtonPress	Neutral	True
350.298	0.48	Control	0.5946	n/a	Yes	2.682	n/a	n/a	GoodResponse	0	n/a	n/a	1	36	Blank	Neutral	True
350.766	1.45	Control	0.5946	n/a	Yes	2.682	n/a	5.0	GoodResponse	0	0.039	349.805	1	36	Feedback	Neutral	True
352.221	2.682	Control	0.5946	n/a	Yes	2.682	n/a	n/a	GoodResponse	0	0.0	n/a	1	36	ISIslide	Neutral	True
354.929	0.25	Win2	0.6053000000000001	0.0	Yes	2.871	0.029	n/a	GoodResponse	1	n/a	n/a	2	37	Cue	Win	True
355.18	4.0	Win2	0.6053000000000001	0.0	Yes	2.871	0.001	n/a	GoodResponse	1	n/a	n/a	2	37	Fixation	Win	True
359.175	0.23	Win2	0.6053000000000001	0.004	Yes	2.871	-0.004	4.0	GoodResponse	1	0.216	358.391	2	37	Target	Win	True
359.391	0.3	Win2	0.6053000000000001	0.004	Yes	2.871	-0.004	4.0	GoodResponse	1	0.216	n/a	2	37	ButtonPress	Win	True
359.409	0.47	Win2	0.6053000000000001	n/a	Yes	2.871	n/a	n/a	GoodResponse	1	n/a	n/a	2	37	Blank	Win	True
359.877	1.45	Win2	0.6053000000000001	n/a	Yes	2.871	n/a	5.0	GoodResponse	1	0.001	358.878	2	37	Feedback	Win	True
361.331	2.871	Win2	0.6053000000000001	n/a	Yes	2.871	n/a	n/a	GoodResponse	1	0.0	n/a	2	37	ISIslide	Win	True
364.223	0.25	Lose2	0.6154	0.0	Yes	2.827	0.023	n/a	GoodResponse	0	n/a	n/a	2	38	Cue	AvoidedLoss	True
364.474	3.95	Lose2	0.6154	0.0	Yes	2.827	0.001	n/a	GoodResponse	0	n/a	n/a	2	38	Fixation	AvoidedLoss	True
368.419	0.24	Lose2	0.6154	0.004	Yes	2.827	-0.004	4.0	GoodResponse	0	0.203	367.622	2	38	Target	AvoidedLoss	True
368.622	0.3	Lose2	0.6154	0.004	Yes	2.827	-0.004	4.0	GoodResponse	0	0.203	n/a	2	38	ButtonPress	AvoidedLoss	True
368.67	0.46	Lose2	0.6154	n/a	Yes	2.827	n/a	n/a	GoodResponse	0	n/a	n/a	2	38	Blank	AvoidedLoss	True
369.121	1.45	Lose2	0.6154	n/a	Yes	2.827	n/a	5.0	GoodResponse	0	0.024	368.145	2	38	Feedback	AvoidedLoss	True
370.576	2.827	Lose2	0.6154	n/a	Yes	2.827	n/a	n/a	GoodResponse	0	0.0	n/a	2	38	ISIslide	AvoidedLoss	True
373.417	0.25	Win2	0.625	0.001	Yes	2.983	0.017	n/a	GoodResponse	1	n/a	n/a	3	39	Cue	Win	True
373.668	4.1	Win2	0.625	0.0	Yes	2.983	0.001	n/a	GoodResponse	1	n/a	n/a	3	39	Fixation	Win	True
377.764	0.25	Win2	0.625	0.003	Yes	2.983	-0.003	4.0	GoodResponse	1	0.212	376.976	3	39	Target	Win	True
377.976	0.3	Win2	0.625	0.003	Yes	2.983	-0.003	4.0	GoodResponse	1	0.212	n/a	3	39	ButtonPress	Win	True
378.015	0.45	Win2	0.625	n/a	Yes	2.983	n/a	n/a	GoodResponse	1	n/a	n/a	3	39	Blank	Win	True
378.466	1.45	Win2	0.625	n/a	Yes	2.983	n/a	5.0	GoodResponse	1	0.045	377.511	3	39	Feedback	Win	True
379.92	2.983	Win2	0.625	n/a	Yes	2.983	n/a	n/a	GoodResponse	1	0.0	n/a	3	39	ISIslide	Win	True
382.929	0.25	Win2	0.6341	0.0	Yes	2.721	0.029	n/a	GoodResponse	1	n/a	n/a	4	40	Cue	Win	True
383.18	3.95	Win2	0.6341	0.0	Yes	2.721	0.001	n/a	GoodResponse	1	n/a	n/a	4	40	Fixation	Win	True
387.125	0.26	Win2	0.6341	0.004	Yes	2.721	-0.004	4.0	GoodResponse	1	0.199	386.324	4	40	Target	Win	True
387.324	0.3	Win2	0.6341	0.004	Yes	2.721	-0.004	4.0	GoodResponse	1	0.199	n/a	4	40	ButtonPress	Win	True
387.393	0.44	Win2	0.6341	n/a	Yes	2.721	n/a	n/a	GoodResponse	1	n/a	n/a	4	40	Blank	Win	True
387.827	1.45	Win2	0.6341	n/a	Yes	2.721	n/a	5.0	GoodResponse	1	0.002	386.829	4	40	Feedback	Win	True
389.282	2.721	Win2	0.6341	n/a	Yes	2.721	n/a	n/a	GoodResponse	1	0.0	n/a	4	40	ISIslide	Win	True
392.023	0.25	Win2	0.6429	0.0	Yes	2.777	0.023	n/a	GoodResponse	1	n/a	n/a	5	41	Cue	Win	True
392.274	3.9	Win2	0.6429	0.0	Yes	2.777	0.001	n/a	GoodResponse	1	n/a	n/a	5	41	Fixation	Win	True
396.169	0.27	Win2	0.6429	0.004	Yes	2.777	-0.004	4.0	GoodResponse	1	0.212	395.381	5	41	Target	Win	True
396.381	0.3	Win2	0.6429	0.004	Yes	2.777	-0.004	4.0	GoodResponse	1	0.212	n/a	5	41	ButtonPress	Win	True
396.453	0.43	Win2	0.6429	n/a	Yes	2.777	n/a	n/a	GoodResponse	1	n/a	n/a	5	41	Blank	Win	True
396.871	1.45	Win2	0.6429	n/a	Yes	2.777	n/a	5.0	GoodResponse	1	0.031	395.902	5	41	Feedback	Win	True
398.325	2.777	Win2	0.6429	n/a	Yes	2.777	n/a	n/a	GoodResponse	1	0.0	n/a	5	41	ISIslide	Win	True
401.117	0.25	Control	0.6512	0.0	Yes	2.933	0.017	n/a	GoodResponse	0	n/a	n/a	5	42	Cue	Neutral	True
401.368	3.85	Control	0.6512	0.0	Yes	2.933	0.001	n/a	GoodResponse	0	n/a	n/a	5	42	Fixation	Neutral	True
405.213	0.28	Control	0.6512	0.004	Yes	2.933	-0.004	4.0	GoodResponse	0	0.205	404.418	5	42	Target	Neutral	True
405.418	0.3	Control	0.6512	0.004	Yes	2.933	-0.004	4.0	GoodResponse	0	0.205	n/a	5	42	ButtonPress	Neutral	True
405.497	0.42	Control	0.6512	n/a	Yes	2.933	n/a	n/a	GoodResponse	0	n/a	n/a	5	42	Blank	Neutral	True
405.915	1.45	Control	0.6512	n/a	Yes	2.933	n/a	5.0	GoodResponse	0	0.011	404.926	5	42	Feedback	Neutral	True
407.369	2.933	Control	0.6512	n/a	Yes	2.933	n/a	n/a	GoodResponse	0	0.0	n/a	5	42	ISIslide	Neutral	True
410.328	0.25	Win2	0.6591	0.0	Yes	3.172	0.028	n/a	GoodResponse	1	n/a	n/a	6	43	Cue	Win	True
410.579	4.0	Win2	0.6591	0.0	Yes	3.172	0.001	n/a	GoodResponse	1	n/a	n/a	6	43	Fixation	Win	True
414.574	0.29	Win2	0.6591	0.004	Yes	3.172	-0.004	4.0	GoodResponse	1	0.193	413.767	6	43	Target	Win	True
414.767	0.3	Win2	0.6591	0.004	Yes	3.172	-0.004	4.0	GoodResponse	1	0.193	n/a	6	43	ButtonPress	Win	True
414.875	0.41	Win2	0.6591	n/a	Yes	3.172	n/a	n/a	GoodResponse	1	n/a	n/a	6	43	Blank	Win	True
415.276	1.45	Win2	0.6591	n/a	Yes	3.172	n/a	5.0	GoodResponse	1	0.015	414.291	6	43	Feedback	Win	True
416.73	3.172	Win2	0.6591	n/a	Yes	3.172	n/a	n/a	GoodResponse	1	0.0	n/a	6	43	ISIslide	Win	True
419.923	0.25	Win2	0.6667000000000001	0.0	Yes	2.977	0.023	n/a	GoodResponse	1	n/a	n/a	7	44	Cue	Win	True
420.174	4.0	Win2	0.6667000000000001	0.0	Yes	2.977	0.001	n/a	GoodResponse	1	n/a	n/a	7	44	Fixation	Win	True
424.169	0.29	Win2	0.6667000000000001	0.004	Yes	2.977	-0.004	4.0	GoodResponse	1	0.237	423.406	7	44	Target	Win	True
424.406	0.3	Win2	0.6667000000000001	0.004	Yes	2.977	-0.004	4.0	GoodResponse	1	0.237	n/a	7	44	ButtonPress	Win	True
424.47	0.41	Win2	0.6667000000000001	n/a	Yes	2.977	n/a	n/a	GoodResponse	1	n/a	n/a	7	44	Blank	Win	True
424.871	1.45	Win2	0.6667000000000001	n/a	Yes	2.977	n/a	5.0	GoodResponse	1	0.03	423.901	7	44	Feedback	Win	True
426.326	2.977	Win2	0.6667000000000001	n/a	Yes	2.977	n/a	n/a	GoodResponse	1	0.0	n/a	7	44	ISIslide	Win	True
429.318	0.25	Control	0.6739	0.0	Yes	2.882	0.018	n/a	GoodResponse	0	n/a	n/a	7	45	Cue	Neutral	True
429.569	4.1	Control	0.6739	0.0	Yes	2.882	0.001	n/a	GoodResponse	0	n/a	n/a	7	45	Fixation	Neutral	True
433.664	0.28	Control	0.6739	0.004	Yes	2.882	-0.004	4.0	GoodResponse	0	0.234	432.898	7	45	Target	Neutral	True
433.898	0.3	Control	0.6739	0.004	Yes	2.882	-0.004	4.0	GoodResponse	0	0.234	n/a	7	45	ButtonPress	Neutral	True
433.949	0.42	Control	0.6739	n/a	Yes	2.882	n/a	n/a	GoodResponse	0	n/a	n/a	7	45	Blank	Neutral	True
434.367	1.45	Control	0.6739	n/a	Yes	2.882	n/a	5.0	GoodResponse	0	0.0	433.367	7	45	Feedback	Neutral	True
435.821	2.882	Control	0.6739	n/a	Yes	2.882	n/a	n/a	GoodResponse	0	0.0	n/a	7	45	ISIslide	Neutral	True
438.73	0.25	Lose2	0.6809000000000001	0.0	Yes	3.37	0.03	n/a	GoodResponse	0	n/a	n/a	7	46	Cue	AvoidedLoss	True
438.98	4.0	Lose2	0.6809000000000001	0.0	Yes	3.37	0.0	n/a	GoodResponse	0	n/a	n/a	7	46	Fixation	AvoidedLoss	True
442.976	0.27	Lose2	0.6809000000000001	0.004	Yes	3.37	-0.004	4.0	GoodResponse	0	0.194	442.17	7	46	Target	AvoidedLoss	True
443.17	0.3	Lose2	0.6809000000000001	0.004	Yes	3.37	-0.004	4.0	GoodResponse	0	0.194	n/a	7	46	ButtonPress	AvoidedLoss	True
443.26	0.43	Lose2	0.6809000000000001	n/a	Yes	3.37	n/a	n/a	GoodResponse	0	n/a	n/a	7	46	Blank	AvoidedLoss	True
443.678	1.45	Lose2	0.6809000000000001	n/a	Yes	3.37	n/a	5.0	GoodResponse	0	0.005	442.683	7	46	Feedback	AvoidedLoss	True
445.132	3.37	Lose2	0.6809000000000001	n/a	Yes	3.37	n/a	n/a	GoodResponse	0	0.0	n/a	7	46	ISIslide	AvoidedLoss	True
448.526	0.25	Lose2	0.6875	0.0	Yes	2.674	0.026	n/a	GoodResponse	0	n/a	n/a	7	47	Cue	AvoidedLoss	True
448.776	4.0	Lose2	0.6875	0.0	Yes	2.674	0.0	n/a	GoodResponse	0	n/a	n/a	7	47	Fixation	AvoidedLoss	True
452.772	0.26	Lose2	0.6875	0.004	Yes	2.674	-0.004	4.0	GoodResponse	0	0.196	451.968	7	47	Target	AvoidedLoss	True
452.968	0.3	Lose2	0.6875	0.004	Yes	2.674	-0.004	4.0	GoodResponse	0	0.196	n/a	7	47	ButtonPress	AvoidedLoss	True
453.039	0.44	Lose2	0.6875	n/a	Yes	2.674	n/a	n/a	GoodResponse	0	n/a	n/a	7	47	Blank	AvoidedLoss	True
453.474	1.45	Lose2	0.6875	n/a	Yes	2.674	n/a	5.0	GoodResponse	0	0.013	452.487	7	47	Feedback	AvoidedLoss	True
454.928	2.674	Lose2	0.6875	n/a	Yes	2.674	n/a	n/a	GoodResponse	0	0.0	n/a	7	47	ISIslide	AvoidedLoss	True
457.62	0.25	Lose2	0.6939	0.0	Yes	3.03	0.02	n/a	GoodResponse	0	n/a	n/a	7	48	Cue	AvoidedLoss	True
457.87	3.95	Lose2	0.6939	0.0	Yes	3.03	0.0	n/a	GoodResponse	0	n/a	n/a	7	48	Fixation	AvoidedLoss	True
461.832	0.25	Lose2	0.6939	0.0	Yes	3.03	0.012	4.0	GoodResponse	0	0.187	461.019	7	48	Target	AvoidedLoss	True
462.019	0.3	Lose2	0.6939	0.0	Yes	3.03	0.012	4.0	GoodResponse	0	0.187	n/a	7	48	ButtonPress	AvoidedLoss	True
462.066	0.45	Lose2	0.6939	n/a	Yes	3.03	n/a	n/a	GoodResponse	0	n/a	n/a	7	48	Blank	AvoidedLoss	True
462.518	1.45	Lose2	0.6939	n/a	Yes	3.03	n/a	5.0	GoodResponse	0	0.041	461.559	7	48	Feedback	AvoidedLoss	True
463.972	3.03	Lose2	0.6939	n/a	Yes	3.03	n/a	n/a	GoodResponse	0	0.0	n/a	7	48	ISIslide	AvoidedLoss	True
467.014	0.25	Control	0.7	0.0	Yes	2.886	0.014	n/a	GoodResponse	0	n/a	n/a	7	49	Cue	Neutral	True
467.265	4.0	Control	0.7	0.0	Yes	2.886	0.001	n/a	GoodResponse	0	n/a	n/a	7	49	Fixation	Neutral	True
471.26	0.24	Control	0.7	0.004	Yes	2.886	-0.004	4.0	GoodResponse	0	0.195	470.455	7	49	Target	Neutral	True
471.455	0.3	Control	0.7	0.004	Yes	2.886	-0.004	4.0	GoodResponse	0	0.195	n/a	7	49	ButtonPress	Neutral	True
471.511	0.46	Control	0.7	n/a	Yes	2.886	n/a	n/a	GoodResponse	0	n/a	n/a	7	49	Blank	Neutral	True
471.962	1.45	Control	0.7	n/a	Yes	2.886	n/a	5.0	GoodResponse	0	0.012	470.974	7	49	Feedback	Neutral	True
473.417	2.886	Control	0.7	n/a	Yes	2.886	n/a	n/a	GoodResponse	0	0.0	n/a	7	49	ISIslide	Neutral	True
476.325	0.25	Control	0.7059000000000001	0.001	Yes	2.775	0.025	n/a	GoodResponse	0	n/a	n/a	7	50	Cue	Neutral	True
476.576	4.0	Control	0.7059000000000001	0.0	Yes	2.775	0.001	n/a	GoodResponse	0	n/a	n/a	7	50	Fixation	Neutral	True
480.572	0.23	Control	0.7059000000000001	0.003	Yes	2.775	-0.003	4.0	GoodResponse	0	0.201	479.773	7	50	Target	Neutral	True
480.773	0.3	Control	0.7059000000000001	0.003	Yes	2.775	-0.003	4.0	GoodResponse	0	0.201	n/a	7	50	ButtonPress	Neutral	True
480.806	0.47	Control	0.7059000000000001	n/a	Yes	2.775	n/a	n/a	GoodResponse	0	n/a	n/a	7	50	Blank	Neutral	True
481.274	1.45	Control	0.7059000000000001	n/a	Yes	2.775	n/a	5.0	GoodResponse	0	0.017	480.291	7	50	Feedback	Neutral	True
482.728	2.775	Control	0.7059000000000001	n/a	Yes	2.775	n/a	n/a	GoodResponse	0	0.0	n/a	7	50	ISIslide	Neutral	True
485.52	0.25	Control	0.7115	0.0	Yes	2.73	0.02	n/a	GoodResponse	0	n/a	n/a	7	51	Cue	Neutral	True
485.77	3.95	Control	0.7115	0.001	Yes	2.73	0.0	n/a	GoodResponse	0	n/a	n/a	7	51	Fixation	Neutral	True
489.716	0.22	Control	0.7115	0.004	Yes	2.73	-0.004	4.0	GoodResponse	0	0.205	488.921	7	51	Target	Neutral	True
489.921	0.3	Control	0.7115	0.004	Yes	2.73	-0.004	4.0	GoodResponse	0	0.205	n/a	7	51	ButtonPress	Neutral	True
489.95	0.48	Control	0.7115	n/a	Yes	2.73	n/a	n/a	GoodResponse	0	n/a	n/a	7	51	Blank	Neutral	True
490.418	1.45	Control	0.7115	n/a	Yes	2.73	n/a	5.0	GoodResponse	0	0.044	489.462	7	51	Feedback	Neutral	True
491.872	2.73	Control	0.7115	n/a	Yes	2.73	n/a	n/a	GoodResponse	0	0.0	n/a	7	51	ISIslide	Neutral	True
494.63	0.25	Control	0.6981	0.0	No	2.62	0.03	n/a	NoResponse	0	n/a	n/a	7	52	Cue	Neutral	True
494.881	4.05	Control	0.6981	0.0	No	2.62	0.001	n/a	NoResponse	0	n/a	n/a	7	52	Fixation	Neutral	True
498.926	0.21	Control	0.6981	0.004	No	2.62	-0.004	4.0	NoResponse	0	0.248	498.174	7	52	Target	Neutral	True
499.144	0.49	Control	0.6981	n/a	No	2.62	n/a	n/a	NoResponse	0	n/a	n/a	7	52	Blank	Neutral	True
499.174	0.3	Control	0.6981	0.004	No	2.62	-0.004	4.0	NoResponse	0	0.248	n/a	7	52	ButtonPress	Neutral	True
499.629	1.45	Control	0.6981	n/a	No	2.62	n/a	5.0	NoResponse	0	0.004	498.633	7	52	Feedback	Neutral	True
501.083	2.62	Control	0.6981	n/a	No	2.62	n/a	n/a	NoResponse	0	0.0	n/a	7	52	ISIslide	Neutral	True
503.724	0.25	Win2	0.6851999999999999	0.0	No	2.926	0.024	n/a	LatePress	0	n/a	n/a	7	53	Cue	MissedWin	True
503.975	4.05	Win2	0.6851999999999999	0.0	No	2.926	0.001	n/a	LatePress	0	n/a	n/a	7	53	Fixation	MissedWin	True
508.02	0.2	Win2	0.6851999999999999	0.004	No	2.926	-0.004	4.0	LatePress	0	0.202	507.222	7	53	Target	MissedWin	True
508.221	0.5	Win2	0.6851999999999999	n/a	No	2.926	n/a	n/a	LatePress	0	n/a	n/a	7	53	Blank	MissedWin	True
508.222	0.3	Win2	0.6851999999999999	0.004	No	2.926	-0.004	4.0	LatePress	0	0.202	n/a	7	53	ButtonPress	MissedWin	True
508.722	1.45	Win2	0.6851999999999999	n/a	No	2.926	n/a	5.0	LatePress	0	0.033	507.755	7	53	Feedback	MissedWin	True
510.177	2.926	Win2	0.6851999999999999	n/a	No	2.926	n/a	n/a	LatePress	0	0.0	n/a	7	53	ISIslide	MissedWin	True
513.119	0.25	Win2	0.6727	0.0	No	2.731	0.019	n/a	NoResponse	0	n/a	n/a	7	54	Cue	MissedWin	False
513.37	3.95	Win2	0.6727	0.0	No	2.731	0.001	4.0	NoResponse	0	3.87	516.24	7	54	Fixation	MissedWin	False
517.24	0.3	Win2	0.6727	0.0	No	2.731	0.001	4.0	NoResponse	0	3.87	n/a	7	54	ButtonPress	MissedWin	False
517.315	0.19	Win2	0.6727	0.004	No	2.731	-0.004	4.0	NoResponse	0	0.25	516.565	7	54	Target	MissedWin	False
517.515	0.51	Win2	0.6727	n/a	No	2.731	n/a	n/a	NoResponse	0	n/a	n/a	7	54	Blank	MissedWin	False
517.565	0.3	Win2	0.6727	0.004	No	2.731	-0.004	4.0	NoResponse	0	0.25	n/a	7	54	ButtonPress	MissedWin	False
518.017	1.45	Win2	0.6727	n/a	No	2.731	n/a	5.0	NoResponse	0	0.006	517.023	7	54	Feedback	MissedWin	False
519.471	2.731	Win2	0.6727	n/a	No	2.731	n/a	n/a	NoResponse	0	0.0	n/a	7	54	ISIslide	MissedWin	False
522.23	0.25	Control	0.6607	0.0	No	3.02	0.03	n/a	NoResponse	0	n/a	n/a	7	55	Cue	Neutral	True
522.48	3.95	Control	0.6607	0.0	No	3.02	0.0	n/a	NoResponse	0	n/a	n/a	7	55	Fixation	Neutral	True
526.425	0.18	Control	0.6607	0.005	No	3.02	-0.005	4.0	NoResponse	0	0.198	525.623	7	55	Target	Neutral	True
526.609	0.52	Control	0.6607	n/a	No	3.02	n/a	n/a	NoResponse	0	n/a	n/a	7	55	Blank	Neutral	True
526.623	0.3	Control	0.6607	0.005	No	3.02	-0.005	4.0	NoResponse	0	0.198	n/a	7	55	ButtonPress	Neutral	True
527.128	1.45	Control	0.6607	n/a	No	3.02	n/a	5.0	NoResponse	0	0.016	526.144	7	55	Feedback	Neutral	True
528.582	3.02	Control	0.6607	n/a	No	3.02	n/a	n/a	NoResponse	0	0.0	n/a	7	55	ISIslide	Neutral	True
531.624	0.25	Control	0.6491	0.0	No	2.826	0.024	n/a	NoResponse	0	n/a	n/a	7	56	Cue	Neutral	True
531.875	3.95	Control	0.6491	0.0	No	2.826	0.001	n/a	NoResponse	0	n/a	n/a	7	56	Fixation	Neutral	True
535.82	0.18	Control	0.6491	0.004	No	2.826	-0.004	4.0	NoResponse	0	0.21	535.03	7	56	Target	Neutral	True
536.004	0.52	Control	0.6491	n/a	No	2.826	n/a	n/a	NoResponse	0	n/a	n/a	7	56	Blank	Neutral	True
536.03	0.3	Control	0.6491	0.004	No	2.826	-0.004	4.0	NoResponse	0	0.21	n/a	7	56	ButtonPress	Neutral	True
536.522	1.45	Control	0.6491	n/a	No	2.826	n/a	5.0	NoResponse	0	0.037	535.559	7	56	Feedback	Neutral	True
537.977	2.826	Control	0.6491	n/a	No	2.826	n/a	n/a	NoResponse	0	0.0	n/a	7	56	ISIslide	Neutral	True
540.819	0.25	Control	0.6379	0.0	No	3.481	0.019	n/a	NoResponse	0	n/a	n/a	7	57	Cue	Neutral	True
541.069	4.0	Control	0.6379	0.0	No	3.481	0.0	n/a	NoResponse	0	n/a	n/a	7	57	Fixation	Neutral	True
545.065	0.19	Control	0.6379	0.004	No	3.481	-0.004	4.0	NoResponse	0	0.233	544.298	7	57	Target	Neutral	True
545.265	0.51	Control	0.6379	n/a	No	3.481	n/a	n/a	NoResponse	0	n/a	n/a	7	57	Blank	Neutral	True
545.298	0.3	Control	0.6379	0.004	No	3.481	-0.004	4.0	NoResponse	0	0.233	n/a	7	57	ButtonPress	Neutral	True
545.767	1.45	Control	0.6379	n/a	No	3.481	n/a	5.0	NoResponse	0	0.012	544.779	7	57	Feedback	Neutral	True
547.221	3.481	Control	0.6379	n/a	No	3.481	n/a	n/a	NoResponse	0	0.0	n/a	7	57	ISIslide	Neutral	True
550.732	0.25	Win2	0.6271	0.0	No	2.718	0.032	n/a	NoResponse	0	n/a	n/a	7	58	Cue	MissedWin	True
550.982	4.05	Win2	0.6271	0.0	No	2.718	0.0	n/a	NoResponse	0	n/a	n/a	7	58	Fixation	MissedWin	True
555.028	0.2	Win2	0.6271	0.004	No	2.718	-0.004	4.0	NoResponse	0	0.212	554.24	7	58	Target	MissedWin	True
555.228	0.5	Win2	0.6271	n/a	No	2.718	n/a	n/a	NoResponse	0	n/a	n/a	7	58	Blank	MissedWin	True
555.24	0.3	Win2	0.6271	0.004	No	2.718	-0.004	4.0	NoResponse	0	0.212	n/a	7	58	ButtonPress	MissedWin	True
555.73	1.45	Win2	0.6271	n/a	No	2.718	n/a	5.0	NoResponse	0	0.0	554.73	7	58	Feedback	MissedWin	True
557.184	2.718	Win2	0.6271	n/a	No	2.718	n/a	n/a	NoResponse	0	0.0	n/a	7	58	ISIslide	MissedWin	True
559.926	0.25	Lose2	0.6167	0.0	No	2.674	0.026	n/a	NoResponse	-1	n/a	n/a	6	59	Cue	Loss	True
560.176	4.0	Lose2	0.6167	0.001	No	2.674	0.0	n/a	NoResponse	-1	n/a	n/a	6	59	Fixation	Loss	True
564.172	0.21	Lose2	0.6167	0.004	No	2.674	-0.004	4.0	NoResponse	-1	0.226	563.398	6	59	Target	Loss	True
564.389	0.49	Lose2	0.6167	n/a	No	2.674	n/a	n/a	NoResponse	-1	n/a	n/a	6	59	Blank	Loss	True
564.398	0.3	Lose2	0.6167	0.004	No	2.674	-0.004	4.0	NoResponse	-1	0.226	n/a	6	59	ButtonPress	Loss	True
564.874	1.45	Lose2	0.6167	n/a	No	2.674	n/a	5.0	NoResponse	-1	0.026	563.9	6	59	Feedback	Loss	True
566.328	2.674	Lose2	0.6167	n/a	No	2.674	n/a	n/a	NoResponse	-1	0.0	n/a	6	59	ISIslide	Loss	True
569.02	0.25	Control	0.623	0.0	Yes	2.68	0.02	n/a	GoodResponse	0	n/a	n/a	6	60	Cue	Neutral	True
569.27	4.0	Control	0.623	0.0	Yes	2.68	0.0	n/a	GoodResponse	0	n/a	n/a	6	60	Fixation	Neutral	True
573.266	0.22	Control	0.623	0.004	Yes	2.68	-0.004	4.0	GoodResponse	0	0.189	572.455	6	60	Target	Neutral	True
573.455	0.3	Control	0.623	0.004	Yes	2.68	-0.004	4.0	GoodResponse	0	0.189	n/a	6	60	ButtonPress	Neutral	True
573.5	0.48	Control	0.623	n/a	Yes	2.68	n/a	n/a	GoodResponse	0	n/a	n/a	6	60	Blank	Neutral	True
573.968	1.45	Control	0.623	n/a	Yes	2.68	n/a	5.0	GoodResponse	0	0.007	572.975	6	60	Feedback	Neutral	True
575.422	2.68	Control	0.623	n/a	Yes	2.68	n/a	n/a	GoodResponse	0	0.0	n/a	6	60	ISIslide	Neutral	True
578.13	0.25	Lose2	0.629	0.0	Yes	2.97	0.03	n/a	GoodResponse	0	n/a	n/a	6	61	Cue	AvoidedLoss	True
578.381	4.0	Lose2	0.629	0.0	Yes	2.97	0.001	n/a	GoodResponse	0	n/a	n/a	6	61	Fixation	AvoidedLoss	True
582.376	0.23	Lose2	0.629	0.004	Yes	2.97	-0.004	4.0	GoodResponse	0	0.224	581.6	6	61	Target	AvoidedLoss	True
582.6	0.3	Lose2	0.629	0.004	Yes	2.97	-0.004	4.0	GoodResponse	0	0.224	n/a	6	61	ButtonPress	AvoidedLoss	True
582.61	0.47	Lose2	0.629	n/a	Yes	2.97	n/a	n/a	GoodResponse	0	n/a	n/a	6	61	Blank	AvoidedLoss	True
583.078	1.45	Lose2	0.629	n/a	Yes	2.97	n/a	5.0	GoodResponse	0	0.017	582.095	6	61	Feedback	AvoidedLoss	True
584.533	2.97	Lose2	0.629	n/a	Yes	2.97	n/a	n/a	GoodResponse	0	0.0	n/a	6	61	ISIslide	AvoidedLoss	True
587.525	0.25	Lose2	0.619	0.0	No	2.875	0.025	n/a	NoResponse	-1	n/a	n/a	5	62	Cue	Loss	True
587.776	3.9	Lose2	0.619	0.0	No	2.875	0.001	n/a	NoResponse	-1	n/a	n/a	5	62	Fixation	Loss	True
591.671	0.24	Lose2	0.619	0.004	No	2.875	-0.004	4.0	NoResponse	-1	0.259	590.93	5	62	Target	Loss	True
591.922	0.46	Lose2	0.619	n/a	No	2.875	n/a	n/a	NoResponse	-1	n/a	n/a	5	62	Blank	Loss	True
591.93	0.3	Lose2	0.619	0.004	No	2.875	-0.004	4.0	NoResponse	-1	0.259	n/a	5	62	ButtonPress	Loss	True
592.373	1.45	Lose2	0.619	n/a	No	2.875	n/a	5.0	NoResponse	-1	0.04	591.413	5	62	Feedback	Loss	True
593.827	2.875	Lose2	0.619	n/a	No	2.875	n/a	n/a	NoResponse	-1	0.0	n/a	5	62	ISIslide	Loss	True
596.719	0.25	Lose2	0.625	0.0	Yes	2.631	0.019	n/a	GoodResponse	0	n/a	n/a	5	63	Cue	AvoidedLoss	True
596.97	4.05	Lose2	0.625	0.0	Yes	2.631	0.001	n/a	GoodResponse	0	n/a	n/a	5	63	Fixation	AvoidedLoss	True
601.015	0.25	Lose2	0.625	0.004	Yes	2.631	-0.004	4.0	GoodResponse	0	0.205	600.22	5	63	Target	AvoidedLoss	True
601.22	0.3	Lose2	0.625	0.004	Yes	2.631	-0.004	4.0	GoodResponse	0	0.205	n/a	5	63	ButtonPress	AvoidedLoss	True
601.266	0.45	Lose2	0.625	n/a	Yes	2.631	n/a	n/a	GoodResponse	0	n/a	n/a	5	63	Blank	AvoidedLoss	True
601.717	1.45	Lose2	0.625	n/a	Yes	2.631	n/a	5.0	GoodResponse	0	0.013	600.73	5	63	Feedback	AvoidedLoss	True
603.172	2.631	Lose2	0.625	n/a	Yes	2.631	n/a	n/a	GoodResponse	0	0.0	n/a	5	63	ISIslide	AvoidedLoss	True
605.83	0.25	Win2	0.6308	0.0	Yes	3.12	0.03	n/a	GoodResponse	1	n/a	n/a	6	64	Cue	Win	True
606.081	4.15	Win2	0.6308	0.0	Yes	3.12	0.001	n/a	GoodResponse	1	n/a	n/a	6	64	Fixation	Win	True
610.226	0.26	Win2	0.6308	0.004	Yes	3.12	-0.004	4.0	GoodResponse	1	0.241	609.467	6	64	Target	Win	True
610.467	0.3	Win2	0.6308	0.004	Yes	3.12	-0.004	4.0	GoodResponse	1	0.241	n/a	6	64	ButtonPress	Win	True
610.494	0.44	Win2	0.6308	n/a	Yes	3.12	n/a	n/a	GoodResponse	1	n/a	n/a	6	64	Blank	Win	True
610.928	1.45	Win2	0.6308	n/a	Yes	3.12	n/a	5.0	GoodResponse	1	0.021	609.949	6	64	Feedback	Win	True
612.383	3.12	Win2	0.6308	n/a	Yes	3.12	n/a	n/a	GoodResponse	1	0.0	n/a	6	64	ISIslide	Win	True
615.526	0.25	Control	0.6364	0.0	Yes	2.774	0.026	n/a	GoodResponse	0	n/a	n/a	6	65	Cue	Neutral	True
615.776	4.0	Control	0.6364	0.0	Yes	2.774	0.0	n/a	GoodResponse	0	n/a	n/a	6	65	Fixation	Neutral	True
619.772	0.27	Control	0.6364	0.004	Yes	2.774	-0.004	4.0	GoodResponse	0	0.194	618.966	6	65	Target	Neutral	True
619.966	0.3	Control	0.6364	0.004	Yes	2.774	-0.004	4.0	GoodResponse	0	0.194	n/a	6	65	ButtonPress	Neutral	True
620.056	0.43	Control	0.6364	n/a	Yes	2.774	n/a	n/a	GoodResponse	0	n/a	n/a	6	65	Blank	Neutral	True
620.474	1.45	Control	0.6364	n/a	Yes	2.774	n/a	5.0	GoodResponse	0	0.035	619.509	6	65	Feedback	Neutral	True
621.928	2.774	Control	0.6364	n/a	Yes	2.774	n/a	n/a	GoodResponse	0	0.0	n/a	6	65	ISIslide	Neutral	True
624.72	0.25	Win2	0.6418	0.0	Yes	2.78	0.02	n/a	GoodResponse	1	n/a	n/a	7	66	Cue	Win	True
624.97	3.9	Win2	0.6418	0.001	Yes	2.78	0.0	n/a	GoodResponse	1	n/a	n/a	7	66	Fixation	Win	True
628.882	0.28	Win2	0.6418	0.0	Yes	2.78	0.012	4.0	GoodResponse	1	0.225	628.107	7	66	Target	Win	True
629.107	0.3	Win2	0.6418	0.0	Yes	2.78	0.012	4.0	GoodResponse	1	0.225	n/a	7	66	ButtonPress	Win	True
629.15	0.42	Win2	0.6418	n/a	Yes	2.78	n/a	n/a	GoodResponse	1	n/a	n/a	7	66	Blank	Win	True
629.568	1.45	Win2	0.6418	n/a	Yes	2.78	n/a	5.0	GoodResponse	1	0.015	628.583	7	66	Feedback	Win	True
631.022	2.78	Win2	0.6418	n/a	Yes	2.78	n/a	n/a	GoodResponse	1	0.0	n/a	7	66	ISIslide	Win	True
633.83	0.25	Control	0.6470999999999999	0.0	Yes	2.72	0.03	n/a	GoodResponse	0	n/a	n/a	7	67	Cue	Neutral	True
634.081	3.95	Control	0.6470999999999999	0.0	Yes	2.72	0.001	n/a	GoodResponse	0	n/a	n/a	7	67	Fixation	Neutral	True
638.026	0.29	Control	0.6470999999999999	0.004	Yes	2.72	-0.004	4.0	GoodResponse	0	0.215	637.241	7	67	Target	Neutral	True
638.241	0.3	Control	0.6470999999999999	0.004	Yes	2.72	-0.004	4.0	GoodResponse	0	0.215	n/a	7	67	ButtonPress	Neutral	True
638.327	0.41	Control	0.6470999999999999	n/a	Yes	2.72	n/a	n/a	GoodResponse	0	n/a	n/a	7	67	Blank	Neutral	True
638.728	1.45	Control	0.6470999999999999	n/a	Yes	2.72	n/a	5.0	GoodResponse	0	0.026	637.754	7	67	Feedback	Neutral	True
640.183	2.72	Control	0.6470999999999999	n/a	Yes	2.72	n/a	n/a	GoodResponse	0	0.0	n/a	7	67	ISIslide	Neutral	True
642.924	0.25	Win2	0.6522	0.0	Yes	3.076	0.024	n/a	GoodResponse	1	n/a	n/a	8	68	Cue	Win	True
643.175	4.0	Win2	0.6522	0.0	Yes	3.076	0.001	n/a	GoodResponse	1	n/a	n/a	8	68	Fixation	Win	True
647.17	0.3	Win2	0.6522	0.004	Yes	3.076	-0.004	4.0	GoodResponse	1	0.213	646.383	8	68	Target	Win	True
647.383	0.3	Win2	0.6522	0.004	Yes	3.076	-0.004	4.0	GoodResponse	1	0.213	n/a	8	68	ButtonPress	Win	True
647.471	0.4	Win2	0.6522	n/a	Yes	3.076	n/a	n/a	GoodResponse	1	n/a	n/a	8	68	Blank	Win	True
647.872	1.45	Win2	0.6522	n/a	Yes	3.076	n/a	5.0	GoodResponse	1	0.005	646.877	8	68	Feedback	Win	True
649.327	3.076	Win2	0.6522	n/a	Yes	3.076	n/a	n/a	GoodResponse	1	0.0	n/a	8	68	ISIslide	Win	True
652.419	0.25	Win2	0.6570999999999999	0.0	Yes	3.231	0.019	n/a	GoodResponse	1	n/a	n/a	9	69	Cue	Win	True
652.67	3.95	Win2	0.6570999999999999	0.0	Yes	3.231	0.001	n/a	GoodResponse	1	n/a	n/a	9	69	Fixation	Win	True
656.615	0.31	Win2	0.6570999999999999	0.004	Yes	3.231	-0.004	4.0	GoodResponse	1	0.196	655.811	9	69	Target	Win	True
656.811	0.3	Win2	0.6570999999999999	0.004	Yes	3.231	-0.004	4.0	GoodResponse	1	0.196	n/a	9	69	ButtonPress	Win	True
656.933	0.39	Win2	0.6570999999999999	n/a	Yes	3.231	n/a	n/a	GoodResponse	1	n/a	n/a	9	69	Blank	Win	True
657.317	1.45	Win2	0.6570999999999999	n/a	Yes	3.231	n/a	5.0	GoodResponse	1	0.022	656.339	9	69	Feedback	Win	True
658.772	3.231	Win2	0.6570999999999999	n/a	Yes	3.231	n/a	n/a	GoodResponse	1	0.0	n/a	9	69	ISIslide	Win	True
662.031	0.25	Lose2	0.662	0.0	Yes	3.019	0.031	n/a	GoodResponse	0	n/a	n/a	9	70	Cue	AvoidedLoss	True
662.282	4.05	Lose2	0.662	0.0	Yes	3.019	0.001	n/a	GoodResponse	0	n/a	n/a	9	70	Fixation	AvoidedLoss	True
666.328	0.31	Lose2	0.662	0.003	Yes	3.019	-0.003	4.0	GoodResponse	0	0.206	665.534	9	70	Target	AvoidedLoss	True
666.534	0.3	Lose2	0.662	0.003	Yes	3.019	-0.003	4.0	GoodResponse	0	0.206	n/a	9	70	ButtonPress	AvoidedLoss	True
666.645	0.39	Lose2	0.662	n/a	Yes	3.019	n/a	n/a	GoodResponse	0	n/a	n/a	9	70	Blank	AvoidedLoss	True
667.03	1.45	Lose2	0.662	n/a	Yes	3.019	n/a	5.0	GoodResponse	0	0.016	666.046	9	70	Feedback	AvoidedLoss	True
668.484	3.019	Lose2	0.662	n/a	Yes	3.019	n/a	n/a	GoodResponse	0	0.0	n/a	9	70	ISIslide	AvoidedLoss	True
671.526	0.25	Win2	0.6667000000000001	0.001	Yes	2.724	0.026	n/a	GoodResponse	1	n/a	n/a	10	71	Cue	Win	True
671.777	4.05	Win2	0.6667000000000001	0.0	Yes	2.724	0.001	n/a	GoodResponse	1	n/a	n/a	10	71	Fixation	Win	True
675.823	0.31	Win2	0.6667000000000001	0.003	Yes	2.724	-0.003	4.0	GoodResponse	1	0.212	675.035	10	71	Target	Win	True
676.035	0.3	Win2	0.6667000000000001	0.003	Yes	2.724	-0.003	4.0	GoodResponse	1	0.212	n/a	10	71	ButtonPress	Win	True
676.14	0.39	Win2	0.6667000000000001	n/a	Yes	2.724	n/a	n/a	GoodResponse	1	n/a	n/a	10	71	Blank	Win	True
676.525	1.45	Win2	0.6667000000000001	n/a	Yes	2.724	n/a	5.0	GoodResponse	1	0.033	675.558	10	71	Feedback	Win	True
677.979	2.724	Win2	0.6667000000000001	n/a	Yes	2.724	n/a	n/a	GoodResponse	1	0.0	n/a	10	71	ISIslide	Win	True
680.721	0.25	Win2	0.6712	0.0	Yes	2.779	0.021	n/a	GoodResponse	1	n/a	n/a	11	72	Cue	Win	True
680.971	4.1	Win2	0.6712	0.001	Yes	2.779	0.0	n/a	GoodResponse	1	n/a	n/a	11	72	Fixation	Win	True
685.067	0.3	Win2	0.6712	0.004	Yes	2.779	-0.004	4.0	GoodResponse	1	0.203	684.27	11	72	Target	Win	True
685.27	0.3	Win2	0.6712	0.004	Yes	2.779	-0.004	4.0	GoodResponse	1	0.203	n/a	11	72	ButtonPress	Win	True
685.368	0.4	Win2	0.6712	n/a	Yes	2.779	n/a	n/a	GoodResponse	1	n/a	n/a	11	72	Blank	Win	True
685.769	1.45	Win2	0.6712	n/a	Yes	2.779	n/a	5.0	GoodResponse	1	0.009	684.778	11	72	Feedback	Win	True
687.223	2.779	Win2	0.6712	n/a	Yes	2.779	n/a	n/a	GoodResponse	1	0.0	n/a	11	72	ISIslide	Win	True
690.032	0.25	Win2	0.6757	0.0	Yes	2.668	0.032	n/a	GoodResponse	1	n/a	n/a	12	73	Cue	Win	True
690.283	4.0	Win2	0.6757	0.0	Yes	2.668	0.001	n/a	GoodResponse	1	n/a	n/a	12	73	Fixation	Win	True
694.278	0.29	Win2	0.6757	0.004	Yes	2.668	-0.004	4.0	GoodResponse	1	0.207	693.485	12	73	Target	Win	True
694.485	0.3	Win2	0.6757	0.004	Yes	2.668	-0.004	4.0	GoodResponse	1	0.207	n/a	12	73	ButtonPress	Win	True
694.579	0.41	Win2	0.6757	n/a	Yes	2.668	n/a	n/a	GoodResponse	1	n/a	n/a	12	73	Blank	Win	True
694.98	1.45	Win2	0.6757	n/a	Yes	2.668	n/a	5.0	GoodResponse	1	0.017	693.997	12	73	Feedback	Win	True
696.434	2.668	Win2	0.6757	n/a	Yes	2.668	n/a	n/a	GoodResponse	1	0.0	n/a	12	73	ISIslide	Win	True
699.126	0.25	Lose2	0.68	0.0	Yes	2.624	0.026	n/a	GoodResponse	0	n/a	n/a	12	74	Cue	AvoidedLoss	True
699.376	4.05	Lose2	0.68	0.001	Yes	2.624	0.0	n/a	GoodResponse	0	n/a	n/a	12	74	Fixation	AvoidedLoss	True
703.422	0.28	Lose2	0.68	0.004	Yes	2.624	-0.004	4.0	GoodResponse	0	0.235	702.657	12	74	Target	AvoidedLoss	True
703.657	0.3	Lose2	0.68	0.004	Yes	2.624	-0.004	4.0	GoodResponse	0	0.235	n/a	12	74	ButtonPress	AvoidedLoss	True
703.706	0.42	Lose2	0.68	n/a	Yes	2.624	n/a	n/a	GoodResponse	0	n/a	n/a	12	74	Blank	AvoidedLoss	True
704.124	1.45	Lose2	0.68	n/a	Yes	2.624	n/a	5.0	GoodResponse	0	0.0	703.124	12	74	Feedback	AvoidedLoss	True
705.578	2.624	Lose2	0.68	n/a	Yes	2.624	n/a	n/a	GoodResponse	0	0.0	n/a	12	74	ISIslide	AvoidedLoss	True
708.22	0.25	Lose2	0.6711	0.0	No	2.93	0.02	n/a	NoResponse	-1	n/a	n/a	11	75	Cue	Loss	True
708.47	3.95	Lose2	0.6711	0.0	No	2.93	0.0	n/a	NoResponse	-1	n/a	n/a	11	75	Fixation	Loss	True
712.416	0.27	Lose2	0.6711	0.004	No	2.93	-0.004	4.0	NoResponse	-1	0.351	711.767	11	75	Target	Loss	True
712.7	0.43	Lose2	0.6711	n/a	No	2.93	n/a	n/a	NoResponse	-1	n/a	n/a	11	75	Blank	Loss	True
712.767	0.3	Lose2	0.6711	0.004	No	2.93	-0.004	4.0	NoResponse	-1	0.351	n/a	11	75	ButtonPress	Loss	True
713.118	1.45	Lose2	0.6711	n/a	No	2.93	n/a	5.0	NoResponse	-1	0.026	712.144	11	75	Feedback	Loss	True
714.572	2.93	Lose2	0.6711	n/a	No	2.93	n/a	n/a	NoResponse	-1	0.0	n/a	11	75	ISIslide	Loss	True
717.531	0.25	Control	0.6753	0.0	Yes	3.219	0.031	n/a	GoodResponse	0	n/a	n/a	11	76	Cue	Neutral	True
717.782	4.05	Control	0.6753	0.0	Yes	3.219	0.001	n/a	GoodResponse	0	n/a	n/a	11	76	Fixation	Neutral	True
721.827	0.26	Control	0.6753	0.004	Yes	3.219	-0.004	4.0	GoodResponse	0	0.223	721.05	11	76	Target	Neutral	True
722.05	0.3	Control	0.6753	0.004	Yes	3.219	-0.004	4.0	GoodResponse	0	0.223	n/a	11	76	ButtonPress	Neutral	True
722.095	0.44	Control	0.6753	n/a	Yes	3.219	n/a	n/a	GoodResponse	0	n/a	n/a	11	76	Blank	Neutral	True
722.529	1.45	Control	0.6753	n/a	Yes	3.219	n/a	5.0	GoodResponse	0	0.029	721.558	11	76	Feedback	Neutral	True
723.983	3.219	Control	0.6753	n/a	Yes	3.219	n/a	n/a	GoodResponse	0	0.0	n/a	11	76	ISIslide	Neutral	True
727.227	0.25	Lose2	0.6795	0.0	Yes	2.573	0.027	n/a	GoodResponse	0	n/a	n/a	11	77	Cue	AvoidedLoss	True
727.477	3.95	Lose2	0.6795	0.0	Yes	2.573	0.0	n/a	GoodResponse	0	n/a	n/a	11	77	Fixation	AvoidedLoss	True
731.439	0.25	Lose2	0.6795	0.0	Yes	2.573	0.012	4.0	GoodResponse	0	0.21	730.649	11	77	Target	AvoidedLoss	True
731.649	0.3	Lose2	0.6795	0.0	Yes	2.573	0.012	4.0	GoodResponse	0	0.21	n/a	11	77	ButtonPress	AvoidedLoss	True
731.673	0.45	Lose2	0.6795	n/a	Yes	2.573	n/a	n/a	GoodResponse	0	n/a	n/a	11	77	Blank	AvoidedLoss	True
732.125	1.45	Lose2	0.6795	n/a	Yes	2.573	n/a	5.0	GoodResponse	0	0.0	731.125	11	77	Feedback	AvoidedLoss	True
733.579	2.573	Lose2	0.6795	n/a	Yes	2.573	n/a	n/a	GoodResponse	0	0.0	n/a	11	77	ISIslide	AvoidedLoss	True
