onset	duration	cue_type	current_mean_accuracy	duration_error	is_hit	isi_adjusted	onset_delay	response	response_type	reward	rt	rt_time	total_reward	trial_number	trial_phase	trial_type	one_press
11.096	0.25	Control	1.0	0.0	Yes	2.954	-0.004	n/a	GoodResponse	0	n/a	n/a	0	0	Cue	Neutral	True
11.347	3.85	Control	1.0	0.0	Yes	2.954	0.001	n/a	GoodResponse	0	n/a	n/a	0	0	Fixation	Neutral	True
15.192	0.4	Control	1.0	0.004	Yes	2.954	-0.004	2.0	GoodResponse	0	0.274	14.466	0	0	Target	Neutral	True
15.466	0.3	Control	1.0	0.004	Yes	2.954	-0.004	2.0	GoodResponse	0	0.274	n/a	0	0	ButtonPress	Neutral	True
15.593	0.3	Control	1.0	n/a	Yes	2.954	n/a	n/a	GoodResponse	0	n/a	n/a	0	0	Blank	Neutral	True
15.894	1.45	Control	1.0	n/a	Yes	2.954	n/a	5.0	GoodResponse	0	0.032	14.926	0	0	Feedback	Neutral	True
17.348	2.954	Control	1.0	n/a	Yes	2.954	n/a	n/a	GoodResponse	0	0.0	n/a	0	0	ISIslide	Neutral	True
20.391	0.25	Lose2	1.0	0.0	Yes	2.709	0.091	n/a	GoodResponse	0	n/a	n/a	0	1	Cue	AvoidedLoss	True
20.641	4.0	Lose2	1.0	0.0	Yes	2.709	0.0	n/a	GoodResponse	0	n/a	n/a	0	1	Fixation	AvoidedLoss	True
24.637	0.39	Lose2	1.0	0.004	Yes	2.709	-0.004	2.0	GoodResponse	0	0.253	23.89	0	1	Target	AvoidedLoss	True
24.89	0.3	Lose2	1.0	0.004	Yes	2.709	-0.004	2.0	GoodResponse	0	0.253	n/a	0	1	ButtonPress	AvoidedLoss	True
25.038	0.31	Lose2	1.0	n/a	Yes	2.709	n/a	n/a	GoodResponse	0	n/a	n/a	0	1	Blank	AvoidedLoss	True
25.339	1.45	Lose2	1.0	n/a	Yes	2.709	n/a	5.0	GoodResponse	0	0.001	24.34	0	1	Feedback	AvoidedLoss	True
26.793	2.709	Lose2	1.0	n/a	Yes	2.709	n/a	n/a	GoodResponse	0	0.0	n/a	0	1	ISIslide	AvoidedLoss	True
29.518	0.25	Control	1.0	0.0	Yes	2.582	0.018	n/a	GoodResponse	0	n/a	n/a	0	2	Cue	Neutral	True
29.769	4.1	Control	1.0	0.0	Yes	2.582	0.001	n/a	GoodResponse	0	n/a	n/a	0	2	Fixation	Neutral	True
33.864	0.38	Control	1.0	0.004	Yes	2.582	-0.004	2.0	GoodResponse	0	0.264	33.128	0	2	Target	Neutral	True
34.128	0.3	Control	1.0	0.004	Yes	2.582	-0.004	2.0	GoodResponse	0	0.264	n/a	0	2	ButtonPress	Neutral	True
34.249	0.32	Control	1.0	n/a	Yes	2.582	n/a	n/a	GoodResponse	0	n/a	n/a	0	2	Blank	Neutral	True
34.566	1.45	Control	1.0	n/a	Yes	2.582	n/a	5.0	GoodResponse	0	0.043	33.609	0	2	Feedback	Neutral	True
36.021	2.582	Control	1.0	n/a	Yes	2.582	n/a	n/a	GoodResponse	0	0.0	n/a	0	2	ISIslide	Neutral	True
38.679	0.25	Win2	1.0	0.0	Yes	2.771	0.079	n/a	GoodResponse	1	n/a	n/a	1	3	Cue	Win	True
38.929	3.95	Win2	1.0	0.0	Yes	2.771	0.0	n/a	GoodResponse	1	n/a	n/a	1	3	Fixation	Win	True
42.874	0.37	Win2	1.0	0.005	Yes	2.771	-0.005	2.0	GoodResponse	1	0.268	42.142	1	3	Target	Win	True
43.142	0.3	Win2	1.0	0.005	Yes	2.771	-0.005	2.0	GoodResponse	1	0.268	n/a	1	3	ButtonPress	Win	True
43.259	0.33	Win2	1.0	n/a	Yes	2.771	n/a	n/a	GoodResponse	1	n/a	n/a	1	3	Blank	Win	True
43.577	1.45	Win2	1.0	n/a	Yes	2.771	n/a	5.0	GoodResponse	1	0.007	42.584	1	3	Feedback	Win	True
45.031	2.771	Win2	1.0	n/a	Yes	2.771	n/a	n/a	GoodResponse	1	0.0	n/a	1	3	ISIslide	Win	True
47.823	0.25	Win2	1.0	0.0	Yes	3.277	0.023	n/a	GoodResponse	1	n/a	n/a	2	4	Cue	Win	True
48.073	4.0	Win2	1.0	0.0	Yes	3.277	0.0	n/a	GoodResponse	1	n/a	n/a	2	4	Fixation	Win	True
52.069	0.36	Win2	1.0	0.004	Yes	3.277	-0.004	2.0	GoodResponse	1	0.221	51.29	2	4	Target	Win	True
52.29	0.3	Win2	1.0	0.004	Yes	3.277	-0.004	2.0	GoodResponse	1	0.221	n/a	2	4	ButtonPress	Win	True
52.436	0.34	Win2	1.0	n/a	Yes	3.277	n/a	n/a	GoodResponse	1	n/a	n/a	2	4	Blank	Win	True
52.771	1.45	Win2	1.0	n/a	Yes	3.277	n/a	5.0	GoodResponse	1	0.032	51.803	2	4	Feedback	Win	True
54.225	3.277	Win2	1.0	n/a	Yes	3.277	n/a	n/a	GoodResponse	1	0.0	n/a	2	4	ISIslide	Win	True
57.518	0.25	Win2	1.0	0.0	Yes	2.782	0.018	n/a	GoodResponse	1	n/a	n/a	3	5	Cue	Win	True
57.769	4.0	Win2	1.0	0.0	Yes	2.782	0.001	n/a	GoodResponse	1	n/a	n/a	3	5	Fixation	Win	True
61.764	0.35	Win2	1.0	0.004	Yes	2.782	-0.004	2.0	GoodResponse	1	0.313	61.077	3	5	Target	Win	True
62.077	0.3	Win2	1.0	0.004	Yes	2.782	-0.004	2.0	GoodResponse	1	0.313	n/a	3	5	ButtonPress	Win	True
62.115	0.35	Win2	1.0	n/a	Yes	2.782	n/a	n/a	GoodResponse	1	n/a	n/a	3	5	Blank	Win	True
62.466	1.45	Win2	1.0	n/a	Yes	2.782	n/a	5.0	GoodResponse	1	0.044	61.51	3	5	Feedback	Win	True
63.921	2.782	Win2	1.0	n/a	Yes	2.782	n/a	n/a	GoodResponse	1	0.0	n/a	3	5	ISIslide	Win	True
66.729	0.25	Lose2	1.0	0.0	Yes	2.721	0.029	n/a	GoodResponse	0	n/a	n/a	3	6	Cue	AvoidedLoss	True
66.98	3.95	Lose2	1.0	0.0	Yes	2.721	0.001	n/a	GoodResponse	0	n/a	n/a	3	6	Fixation	AvoidedLoss	True
70.925	0.34	Lose2	1.0	0.004	Yes	2.721	-0.004	2.0	GoodResponse	0	0.251	70.176	3	6	Target	AvoidedLoss	True
71.176	0.3	Lose2	1.0	0.004	Yes	2.721	-0.004	2.0	GoodResponse	0	0.251	n/a	3	6	ButtonPress	AvoidedLoss	True
71.276	0.36	Lose2	1.0	n/a	Yes	2.721	n/a	n/a	GoodResponse	0	n/a	n/a	3	6	Blank	AvoidedLoss	True
71.627	1.45	Lose2	1.0	n/a	Yes	2.721	n/a	5.0	GoodResponse	0	0.006	70.633	3	6	Feedback	AvoidedLoss	True
73.081	2.721	Lose2	1.0	n/a	Yes	2.721	n/a	n/a	GoodResponse	0	0.0	n/a	3	6	ISIslide	AvoidedLoss	True
75.823	0.25	Lose2	1.0	0.0	Yes	4.027	0.023	n/a	GoodResponse	0	n/a	n/a	3	7	Cue	AvoidedLoss	False
76.074	4.05	Lose2	1.0	0.0	Yes	4.027	0.001	2.0	GoodResponse	0	0.128	75.202	3	7	Fixation	AvoidedLoss	False
76.202	0.3	Lose2	1.0	0.0	Yes	4.027	0.001	2.0	GoodResponse	0	0.128	n/a	3	7	ButtonPress	AvoidedLoss	False
80.119	0.33	Lose2	1.0	0.004	Yes	4.027	-0.004	2.0	GoodResponse	0	0.263	79.382	3	7	Target	AvoidedLoss	False
80.382	0.3	Lose2	1.0	0.004	Yes	4.027	-0.004	2.0	GoodResponse	0	0.263	n/a	3	7	ButtonPress	AvoidedLoss	False
80.453	0.37	Lose2	1.0	n/a	Yes	4.027	n/a	n/a	GoodResponse	0	n/a	n/a	3	7	Blank	AvoidedLoss	False
80.821	1.45	Lose2	1.0	n/a	Yes	4.027	n/a	5.0	GoodResponse	0	0.031	79.852	3	7	Feedback	AvoidedLoss	False
82.275	4.027	Lose2	1.0	n/a	Yes	4.027	n/a	n/a	GoodResponse	0	0.0	n/a	3	7	ISIslide	AvoidedLoss	False
86.321	0.25	Lose2	1.0	0.0	Yes	3.029	0.021	n/a	GoodResponse	0	n/a	n/a	3	8	Cue	AvoidedLoss	True
86.572	3.95	Lose2	1.0	0.0	Yes	3.029	0.001	n/a	GoodResponse	0	n/a	n/a	3	8	Fixation	AvoidedLoss	True
90.517	0.32	Lose2	1.0	0.004	Yes	3.029	-0.004	2.0	GoodResponse	0	0.236	89.753	3	8	Target	AvoidedLoss	True
90.753	0.3	Lose2	1.0	0.004	Yes	3.029	-0.004	2.0	GoodResponse	0	0.236	n/a	3	8	ButtonPress	AvoidedLoss	True
90.851	0.38	Lose2	1.0	n/a	Yes	3.029	n/a	n/a	GoodResponse	0	n/a	n/a	3	8	Blank	AvoidedLoss	True
91.219	1.45	Lose2	1.0	n/a	Yes	3.029	n/a	5.0	GoodResponse	0	0.022	90.241	3	8	Feedback	AvoidedLoss	True
92.673	3.029	Lose2	1.0	n/a	Yes	3.029	n/a	n/a	GoodResponse	0	0.0	n/a	3	8	ISIslide	AvoidedLoss	True
95.716	0.25	Lose2	1.0	0.0	Yes	3.134	0.016	n/a	GoodResponse	0	n/a	n/a	3	9	Cue	AvoidedLoss	True
95.966	3.95	Lose2	1.0	0.0	Yes	3.134	0.0	n/a	GoodResponse	0	n/a	n/a	3	9	Fixation	AvoidedLoss	True
99.912	0.31	Lose2	1.0	0.004	Yes	3.134	-0.004	2.0	GoodResponse	0	0.283	99.195	3	9	Target	AvoidedLoss	True
100.195	0.3	Lose2	1.0	0.004	Yes	3.134	-0.004	2.0	GoodResponse	0	0.283	n/a	3	9	ButtonPress	AvoidedLoss	True
100.229	0.39	Lose2	1.0	n/a	Yes	3.134	n/a	n/a	GoodResponse	0	n/a	n/a	3	9	Blank	AvoidedLoss	True
100.614	1.45	Lose2	1.0	n/a	Yes	3.134	n/a	5.0	GoodResponse	0	0.042	99.656	3	9	Feedback	AvoidedLoss	True
102.068	3.134	Lose2	1.0	n/a	Yes	3.134	n/a	n/a	GoodResponse	0	0.0	n/a	3	9	ISIslide	AvoidedLoss	True
105.227	0.25	Control	1.0	0.0	Yes	3.273	0.027	n/a	GoodResponse	0	n/a	n/a	3	10	Cue	Neutral	True
105.478	4.0	Control	1.0	0.0	Yes	3.273	0.001	n/a	GoodResponse	0	n/a	n/a	3	10	Fixation	Neutral	True
109.473	0.3	Control	1.0	0.004	Yes	3.273	-0.004	2.0	GoodResponse	0	0.237	108.71	3	10	Target	Neutral	True
109.71	0.3	Control	1.0	0.004	Yes	3.273	-0.004	2.0	GoodResponse	0	0.237	n/a	3	10	ButtonPress	Neutral	True
109.774	0.4	Control	1.0	n/a	Yes	3.273	n/a	n/a	GoodResponse	0	n/a	n/a	3	10	Blank	Neutral	True
110.175	1.45	Control	1.0	n/a	Yes	3.273	n/a	5.0	GoodResponse	0	0.042	109.217	3	10	Feedback	Neutral	True
111.63	3.273	Control	1.0	n/a	Yes	3.273	n/a	n/a	GoodResponse	0	0.0	n/a	3	10	ISIslide	Neutral	True
114.923	0.25	Lose2	1.0	0.0	Yes	2.727	0.023	n/a	GoodResponse	0	n/a	n/a	3	11	Cue	AvoidedLoss	False
115.174	4.05	Lose2	1.0	0.0	Yes	2.727	0.001	2.0	GoodResponse	0	3.696	117.87	3	11	Fixation	AvoidedLoss	False
118.87	0.3	Lose2	1.0	0.0	Yes	2.727	0.001	2.0	GoodResponse	0	3.696	n/a	3	11	ButtonPress	AvoidedLoss	False
119.219	0.29	Lose2	1.0	0.004	Yes	2.727	-0.004	2.0	GoodResponse	0	0.201	118.42	3	11	Target	AvoidedLoss	False
119.42	0.3	Lose2	1.0	0.004	Yes	2.727	-0.004	2.0	GoodResponse	0	0.201	n/a	3	11	ButtonPress	AvoidedLoss	False
119.52	0.41	Lose2	1.0	n/a	Yes	2.727	n/a	n/a	GoodResponse	0	n/a	n/a	3	11	Blank	AvoidedLoss	False
119.921	1.45	Lose2	1.0	n/a	Yes	2.727	n/a	5.0	GoodResponse	0	0.005	118.926	3	11	Feedback	AvoidedLoss	False
121.376	2.727	Lose2	1.0	n/a	Yes	2.727	n/a	n/a	GoodResponse	0	0.0	n/a	3	11	ISIslide	AvoidedLoss	False
124.117	0.25	Control	0.9231	0.0	No	2.983	0.017	n/a	NoResponse	0	n/a	n/a	3	12	Cue	Neutral	True
124.368	3.9	Control	0.9231	0.0	No	2.983	0.001	n/a	NoResponse	0	n/a	n/a	3	12	Fixation	Neutral	True
128.263	0.28	Control	0.9231	0.004	No	2.983	-0.004	2.0	NoResponse	0	0.308	127.571	3	12	Target	Neutral	True
128.547	0.42	Control	0.9231	n/a	No	2.983	n/a	n/a	NoResponse	0	n/a	n/a	3	12	Blank	Neutral	True
128.571	0.3	Control	0.9231	0.004	No	2.983	-0.004	2.0	NoResponse	0	0.308	n/a	3	12	ButtonPress	Neutral	True
128.965	1.45	Control	0.9231	n/a	No	2.983	n/a	5.0	NoResponse	0	0.032	127.997	3	12	Feedback	Neutral	True
130.419	2.983	Control	0.9231	n/a	No	2.983	n/a	n/a	NoResponse	0	0.0	n/a	3	12	ISIslide	Neutral	True
133.428	0.25	Control	0.8571	0.0	No	2.772	0.028	n/a	NoResponse	0	n/a	n/a	3	13	Cue	Neutral	True
133.679	4.0	Control	0.8571	0.0	No	2.772	0.001	n/a	NoResponse	0	n/a	n/a	3	13	Fixation	Neutral	True
137.674	0.27	Control	0.8571	0.004	No	2.772	-0.004	2.0	NoResponse	0	0.304	136.978	3	13	Target	Neutral	True
137.958	0.43	Control	0.8571	n/a	No	2.772	n/a	n/a	NoResponse	0	n/a	n/a	3	13	Blank	Neutral	True
137.978	0.3	Control	0.8571	0.004	No	2.772	-0.004	2.0	NoResponse	0	0.304	n/a	3	13	ButtonPress	Neutral	True
138.376	1.45	Control	0.8571	n/a	No	2.772	n/a	5.0	NoResponse	0	0.036	137.412	3	13	Feedback	Neutral	True
139.831	2.772	Control	0.8571	n/a	No	2.772	n/a	n/a	NoResponse	0	0.0	n/a	3	13	ISIslide	Neutral	True
142.622	0.25	Win2	0.8667	0.0	Yes	2.678	0.022	n/a	GoodResponse	1	n/a	n/a	4	14	Cue	Win	True
142.873	4.1	Win2	0.8667	0.0	Yes	2.678	0.001	n/a	GoodResponse	1	n/a	n/a	4	14	Fixation	Win	True
146.969	0.26	Win2	0.8667	0.003	Yes	2.678	-0.003	2.0	GoodResponse	1	0.244	146.213	4	14	Target	Win	True
147.213	0.3	Win2	0.8667	0.003	Yes	2.678	-0.003	2.0	GoodResponse	1	0.244	n/a	4	14	ButtonPress	Win	True
147.236	0.44	Win2	0.8667	n/a	Yes	2.678	n/a	n/a	GoodResponse	1	n/a	n/a	4	14	Blank	Win	True
147.671	1.45	Win2	0.8667	n/a	Yes	2.678	n/a	5.0	GoodResponse	1	0.009	146.68	4	14	Feedback	Win	True
149.125	2.678	Win2	0.8667	n/a	Yes	2.678	n/a	n/a	GoodResponse	1	0.0	n/a	4	14	ISIslide	Win	True
151.817	0.25	Control	0.8125	0.0	No	2.983	0.017	n/a	NoResponse	0	n/a	n/a	4	15	Cue	Neutral	True
152.067	4.0	Control	0.8125	0.0	No	2.983	0.0	n/a	NoResponse	0	n/a	n/a	4	15	Fixation	Neutral	True
156.063	0.25	Control	0.8125	0.004	No	2.983	-0.004	2.0	NoResponse	0	0.341	155.404	4	15	Target	Neutral	True
156.313	0.45	Control	0.8125	n/a	No	2.983	n/a	n/a	NoResponse	0	n/a	n/a	4	15	Blank	Neutral	True
156.404	0.3	Control	0.8125	0.004	No	2.983	-0.004	2.0	NoResponse	0	0.341	n/a	4	15	ButtonPress	Neutral	True
156.765	1.45	Control	0.8125	n/a	No	2.983	n/a	5.0	NoResponse	0	0.037	155.802	4	15	Feedback	Neutral	True
158.219	2.983	Control	0.8125	n/a	No	2.983	n/a	n/a	NoResponse	0	0.0	n/a	4	15	ISIslide	Neutral	True
161.228	0.25	Win2	0.7646999999999999	0.0	No	2.872	0.028	n/a	NoResponse	0	n/a	n/a	4	16	Cue	MissedWin	True
161.479	4.0	Win2	0.7646999999999999	0.0	No	2.872	0.001	n/a	NoResponse	0	n/a	n/a	4	16	Fixation	MissedWin	True
165.474	0.24	Win2	0.7646999999999999	0.004	No	2.872	-0.004	2.0	NoResponse	0	0.304	164.778	4	16	Target	MissedWin	True
165.725	0.46	Win2	0.7646999999999999	n/a	No	2.872	n/a	n/a	NoResponse	0	n/a	n/a	4	16	Blank	MissedWin	True
165.778	0.3	Win2	0.7646999999999999	0.004	No	2.872	-0.004	2.0	NoResponse	0	0.304	n/a	4	16	ButtonPress	MissedWin	True
166.176	1.45	Win2	0.7646999999999999	n/a	No	2.872	n/a	5.0	NoResponse	0	0.04	165.216	4	16	Feedback	MissedWin	True
167.63	2.872	Win2	0.7646999999999999	n/a	No	2.872	n/a	n/a	NoResponse	0	0.0	n/a	4	16	ISIslide	MissedWin	True
170.522	0.25	Lose2	0.7222	0.0	No	2.728	0.022	n/a	NoResponse	-1	n/a	n/a	3	17	Cue	Loss	True
170.773	3.95	Lose2	0.7222	0.0	No	2.728	0.001	n/a	NoResponse	-1	n/a	n/a	3	17	Fixation	Loss	True
174.718	0.23	Lose2	0.7222	0.004	No	2.728	-0.004	2.0	NoResponse	-1	0.263	173.981	3	17	Target	Loss	True
174.952	0.47	Lose2	0.7222	n/a	No	2.728	n/a	n/a	NoResponse	-1	n/a	n/a	3	17	Blank	Loss	True
174.981	0.3	Lose2	0.7222	0.004	No	2.728	-0.004	2.0	NoResponse	-1	0.263	n/a	3	17	ButtonPress	Loss	True
175.42	1.45	Lose2	0.7222	n/a	No	2.728	n/a	5.0	NoResponse	-1	0.015	174.435	3	17	Feedback	Loss	True
176.875	2.728	Lose2	0.7222	n/a	No	2.728	n/a	n/a	NoResponse	-1	0.0	n/a	3	17	ISIslide	Loss	True
179.616	0.25	Lose2	0.7368000000000001	0.0	Yes	2.734	0.016	n/a	GoodResponse	0	n/a	n/a	3	18	Cue	AvoidedLoss	True
179.867	4.05	Lose2	0.7368000000000001	0.0	Yes	2.734	0.001	n/a	GoodResponse	0	n/a	n/a	3	18	Fixation	AvoidedLoss	True
183.912	0.22	Lose2	0.7368000000000001	0.004	Yes	2.734	-0.004	2.0	GoodResponse	0	0.196	183.108	3	18	Target	AvoidedLoss	True
184.108	0.3	Lose2	0.7368000000000001	0.004	Yes	2.734	-0.004	2.0	GoodResponse	0	0.196	n/a	3	18	ButtonPress	AvoidedLoss	True
184.146	0.48	Lose2	0.7368000000000001	n/a	Yes	2.734	n/a	n/a	GoodResponse	0	n/a	n/a	3	18	Blank	AvoidedLoss	True
184.614	1.45	Lose2	0.7368000000000001	n/a	Yes	2.734	n/a	5.0	GoodResponse	0	0.041	183.655	3	18	Feedback	AvoidedLoss	True
186.069	2.734	Lose2	0.7368000000000001	n/a	Yes	2.734	n/a	n/a	GoodResponse	0	0.0	n/a	3	18	ISIslide	AvoidedLoss	True
188.827	0.25	Control	0.7	0.0	No	2.923	0.027	n/a	NoResponse	0	n/a	n/a	3	19	Cue	Neutral	True
189.078	3.95	Control	0.7	0.0	No	2.923	0.001	n/a	NoResponse	0	n/a	n/a	3	19	Fixation	Neutral	True
193.023	0.21	Control	0.7	0.004	No	2.923	-0.004	2.0	NoResponse	0	0.27	192.293	3	19	Target	Neutral	True
193.24	0.49	Control	0.7	n/a	No	2.923	n/a	n/a	NoResponse	0	n/a	n/a	3	19	Blank	Neutral	True
193.293	0.3	Control	0.7	0.004	No	2.923	-0.004	2.0	NoResponse	0	0.27	n/a	3	19	ButtonPress	Neutral	True
193.725	1.45	Control	0.7	n/a	No	2.923	n/a	5.0	NoResponse	0	0.005	192.73	3	19	Feedback	Neutral	True
195.179	2.923	Control	0.7	n/a	No	2.923	n/a	n/a	NoResponse	0	0.0	n/a	3	19	ISIslide	Neutral	True
198.121	0.25	Control	0.6667000000000001	0.001	No	2.629	0.021	n/a	NoResponse	0	n/a	n/a	3	20	Cue	Neutral	True
198.372	4.05	Control	0.6667000000000001	0.0	No	2.629	0.001	n/a	NoResponse	0	n/a	n/a	3	20	Fixation	Neutral	True
202.418	0.2	Control	0.6667000000000001	0.003	No	2.629	-0.003	2.0	NoResponse	0	0.306	201.724	3	20	Target	Neutral	True
202.618	0.5	Control	0.6667000000000001	n/a	No	2.629	n/a	n/a	NoResponse	0	n/a	n/a	3	20	Blank	Neutral	True
202.724	0.3	Control	0.6667000000000001	0.003	No	2.629	-0.003	2.0	NoResponse	0	0.306	n/a	3	20	ButtonPress	Neutral	True
203.12	1.45	Control	0.6667000000000001	n/a	No	2.629	n/a	5.0	NoResponse	0	0.022	202.142	3	20	Feedback	Neutral	True
204.574	2.629	Control	0.6667000000000001	n/a	No	2.629	n/a	n/a	NoResponse	0	0.0	n/a	3	20	ISIslide	Neutral	True
207.215	0.25	Control	0.6364	0.0	No	2.785	0.015	n/a	NoResponse	0	n/a	n/a	3	21	Cue	Neutral	True
207.466	4.1	Control	0.6364	0.0	No	2.785	0.001	n/a	NoResponse	0	n/a	n/a	3	21	Fixation	Neutral	True
211.562	0.19	Control	0.6364	0.003	No	2.785	-0.003	2.0	NoResponse	0	0.232	210.794	3	21	Target	Neutral	True
211.762	0.51	Control	0.6364	n/a	No	2.785	n/a	n/a	NoResponse	0	n/a	n/a	3	21	Blank	Neutral	True
211.794	0.3	Control	0.6364	0.003	No	2.785	-0.003	2.0	NoResponse	0	0.232	n/a	3	21	ButtonPress	Neutral	True
212.264	1.45	Control	0.6364	n/a	No	2.785	n/a	5.0	NoResponse	0	0.0	211.264	3	21	Feedback	Neutral	True
213.718	2.785	Control	0.6364	n/a	No	2.785	n/a	n/a	NoResponse	0	0.0	n/a	3	21	ISIslide	Neutral	True
216.526	0.25	Control	0.6087	0.001	No	2.774	0.026	n/a	NoResponse	0	n/a	n/a	3	22	Cue	Neutral	True
216.777	4.0	Control	0.6087	0.0	No	2.774	0.001	n/a	NoResponse	0	n/a	n/a	3	22	Fixation	Neutral	True
220.772	0.2	Control	0.6087	0.004	No	2.774	-0.004	2.0	NoResponse	0	0.236	220.008	3	22	Target	Neutral	True
220.973	0.5	Control	0.6087	n/a	No	2.774	n/a	n/a	NoResponse	0	n/a	n/a	3	22	Blank	Neutral	True
221.008	0.3	Control	0.6087	0.004	No	2.774	-0.004	2.0	NoResponse	0	0.236	n/a	3	22	ButtonPress	Neutral	True
221.475	1.45	Control	0.6087	n/a	No	2.774	n/a	5.0	NoResponse	0	0.009	220.484	3	22	Feedback	Neutral	True
222.929	2.774	Control	0.6087	n/a	No	2.774	n/a	n/a	NoResponse	0	0.0	n/a	3	22	ISIslide	Neutral	True
225.721	0.25	Control	0.5832999999999999	0.0	No	2.779	0.021	n/a	NoResponse	0	n/a	n/a	3	23	Cue	Neutral	True
225.971	3.9	Control	0.5832999999999999	0.0	No	2.779	0.0	n/a	NoResponse	0	n/a	n/a	3	23	Fixation	Neutral	True
229.883	0.21	Control	0.5832999999999999	0.0	No	2.779	0.012	2.0	NoResponse	0	0.214	229.097	3	23	Target	Neutral	True
230.084	0.49	Control	0.5832999999999999	n/a	No	2.779	n/a	n/a	NoResponse	0	n/a	n/a	3	23	Blank	Neutral	True
230.097	0.3	Control	0.5832999999999999	0.0	No	2.779	0.012	2.0	NoResponse	0	0.214	n/a	3	23	ButtonPress	Neutral	True
230.568	1.45	Control	0.5832999999999999	n/a	No	2.779	n/a	5.0	NoResponse	0	0.038	229.606	3	23	Feedback	Neutral	True
232.023	2.779	Control	0.5832999999999999	n/a	No	2.779	n/a	n/a	NoResponse	0	0.0	n/a	3	23	ISIslide	Neutral	True
234.814	0.25	Win2	0.56	0.0	No	3.136	0.014	n/a	NoResponse	0	n/a	n/a	3	24	Cue	MissedWin	True
235.065	3.95	Win2	0.56	0.0	No	3.136	0.001	n/a	NoResponse	0	n/a	n/a	3	24	Fixation	MissedWin	True
239.01	0.22	Win2	0.56	0.004	No	3.136	-0.004	2.0	NoResponse	0	0.241	238.251	3	24	Target	MissedWin	True
239.244	0.48	Win2	0.56	n/a	No	3.136	n/a	n/a	NoResponse	0	n/a	n/a	3	24	Blank	MissedWin	True
239.251	0.3	Win2	0.56	0.004	No	3.136	-0.004	2.0	NoResponse	0	0.241	n/a	3	24	ButtonPress	MissedWin	True
239.712	1.45	Win2	0.56	n/a	No	3.136	n/a	5.0	NoResponse	0	0.015	238.727	3	24	Feedback	MissedWin	True
241.167	3.136	Win2	0.56	n/a	No	3.136	n/a	n/a	NoResponse	0	0.0	n/a	3	24	ISIslide	MissedWin	True
244.326	0.25	Win2	0.5769	0.0	Yes	3.074	0.026	n/a	GoodResponse	1	n/a	n/a	4	25	Cue	Win	True
244.577	4.0	Win2	0.5769	0.0	Yes	3.074	0.001	n/a	GoodResponse	1	n/a	n/a	4	25	Fixation	Win	True
248.572	0.23	Win2	0.5769	0.004	Yes	3.074	-0.004	2.0	GoodResponse	1	0.229	247.801	4	25	Target	Win	True
248.801	0.3	Win2	0.5769	0.004	Yes	3.074	-0.004	2.0	GoodResponse	1	0.229	n/a	4	25	ButtonPress	Win	True
248.806	0.47	Win2	0.5769	n/a	Yes	3.074	n/a	n/a	GoodResponse	1	n/a	n/a	4	25	Blank	Win	True
249.274	1.45	Win2	0.5769	n/a	Yes	3.074	n/a	5.0	GoodResponse	1	0.014	248.288	4	25	Feedback	Win	True
250.729	3.074	Win2	0.5769	n/a	Yes	3.074	n/a	n/a	GoodResponse	1	0.0	n/a	4	25	ISIslide	Win	True
253.821	0.25	Win2	0.5556	0.0	No	2.929	0.021	n/a	NoResponse	0	n/a	n/a	4	26	Cue	MissedWin	True
254.072	3.95	Win2	0.5556	0.0	No	2.929	0.001	n/a	NoResponse	0	n/a	n/a	4	26	Fixation	MissedWin	True
258.017	0.24	Win2	0.5556	0.004	No	2.929	-0.004	2.0	NoResponse	0	0.26	257.277	4	26	Target	MissedWin	True
258.268	0.46	Win2	0.5556	n/a	No	2.929	n/a	n/a	NoResponse	0	n/a	n/a	4	26	Blank	MissedWin	True
258.277	0.3	Win2	0.5556	0.004	No	2.929	-0.004	2.0	NoResponse	0	0.26	n/a	4	26	ButtonPress	MissedWin	True
258.719	1.45	Win2	0.5556	n/a	No	2.929	n/a	5.0	NoResponse	0	0.032	257.751	4	26	Feedback	MissedWin	True
260.173	2.929	Win2	0.5556	n/a	No	2.929	n/a	n/a	NoResponse	0	0.0	n/a	4	26	ISIslide	MissedWin	True
263.116	0.25	Lose2	0.5357	0.0	No	2.834	0.016	n/a	NoResponse	-1	n/a	n/a	3	27	Cue	Loss	True
263.366	4.05	Lose2	0.5357	0.0	No	2.834	0.0	n/a	NoResponse	-1	n/a	n/a	3	27	Fixation	Loss	True
267.412	0.25	Lose2	0.5357	0.004	No	2.834	-0.004	2.0	NoResponse	-1	0.261	266.673	3	27	Target	Loss	True
267.662	0.45	Lose2	0.5357	n/a	No	2.834	n/a	n/a	NoResponse	-1	n/a	n/a	3	27	Blank	Loss	True
267.673	0.3	Lose2	0.5357	0.004	No	2.834	-0.004	2.0	NoResponse	-1	0.261	n/a	3	27	ButtonPress	Loss	True
268.114	1.45	Lose2	0.5357	n/a	No	2.834	n/a	5.0	NoResponse	-1	0.006	267.12	3	27	Feedback	Loss	True
269.568	2.834	Lose2	0.5357	n/a	No	2.834	n/a	n/a	NoResponse	-1	0.0	n/a	3	27	ISIslide	Loss	True
272.427	0.25	Control	0.5172	0.0	No	2.823	0.027	n/a	NoResponse	0	n/a	n/a	3	28	Cue	Neutral	True
272.677	4.05	Control	0.5172	0.001	No	2.823	0.0	n/a	NoResponse	0	n/a	n/a	3	28	Fixation	Neutral	True
276.723	0.26	Control	0.5172	0.004	No	2.823	-0.004	2.0	NoResponse	0	0.351	276.074	3	28	Target	Neutral	True
276.99	0.44	Control	0.5172	n/a	No	2.823	n/a	n/a	NoResponse	0	n/a	n/a	3	28	Blank	Neutral	True
277.074	0.3	Control	0.5172	0.004	No	2.823	-0.004	2.0	NoResponse	0	0.351	n/a	3	28	ButtonPress	Neutral	True
277.425	1.45	Control	0.5172	n/a	No	2.823	n/a	5.0	NoResponse	0	0.009	276.434	3	28	Feedback	Neutral	True
278.879	2.823	Control	0.5172	n/a	No	2.823	n/a	n/a	NoResponse	0	0.0	n/a	3	28	ISIslide	Neutral	True
281.721	0.25	Lose2	0.5333	0.0	Yes	2.829	0.021	n/a	GoodResponse	0	n/a	n/a	3	29	Cue	AvoidedLoss	False
281.972	3.95	Lose2	0.5333	0.0	Yes	2.829	0.001	2.0	GoodResponse	0	3.721	284.693	3	29	Fixation	AvoidedLoss	False
285.693	0.3	Lose2	0.5333	0.0	Yes	2.829	0.001	2.0	GoodResponse	0	3.721	n/a	3	29	ButtonPress	AvoidedLoss	False
285.917	0.27	Lose2	0.5333	0.004	Yes	2.829	-0.004	2.0	GoodResponse	0	0.224	285.141	3	29	Target	AvoidedLoss	False
286.141	0.3	Lose2	0.5333	0.004	Yes	2.829	-0.004	2.0	GoodResponse	0	0.224	n/a	3	29	ButtonPress	AvoidedLoss	False
286.201	0.43	Lose2	0.5333	n/a	Yes	2.829	n/a	n/a	GoodResponse	0	n/a	n/a	3	29	Blank	AvoidedLoss	False
286.619	1.45	Lose2	0.5333	n/a	Yes	2.829	n/a	5.0	GoodResponse	0	0.034	285.653	3	29	Feedback	AvoidedLoss	False
288.073	2.829	Lose2	0.5333	n/a	Yes	2.829	n/a	n/a	GoodResponse	0	0.0	n/a	3	29	ISIslide	AvoidedLoss	False
290.915	0.25	Win2	0.5484	0.0	Yes	2.785	0.015	n/a	GoodResponse	1	n/a	n/a	4	30	Cue	Win	True
291.166	3.9	Win2	0.5484	0.0	Yes	2.785	0.001	n/a	GoodResponse	1	n/a	n/a	4	30	Fixation	Win	True
295.061	0.28	Win2	0.5484	0.004	Yes	2.785	-0.004	2.0	GoodResponse	1	0.23	294.291	4	30	Target	Win	True
295.291	0.3	Win2	0.5484	0.004	Yes	2.785	-0.004	2.0	GoodResponse	1	0.23	n/a	4	30	ButtonPress	Win	True
295.345	0.42	Win2	0.5484	n/a	Yes	2.785	n/a	n/a	GoodResponse	1	n/a	n/a	4	30	Blank	Win	True
295.763	1.45	Win2	0.5484	n/a	Yes	2.785	n/a	5.0	GoodResponse	1	0.012	294.775	4	30	Feedback	Win	True
297.217	2.785	Win2	0.5484	n/a	Yes	2.785	n/a	n/a	GoodResponse	1	0.0	n/a	4	30	ISIslide	Win	True
300.026	0.25	Lose2	0.5625	0.0	Yes	2.824	0.026	n/a	GoodResponse	0	n/a	n/a	4	31	Cue	AvoidedLoss	True
300.277	4.05	Lose2	0.5625	0.0	Yes	2.824	0.001	n/a	GoodResponse	0	n/a	n/a	4	31	Fixation	AvoidedLoss	True
304.322	0.29	Lose2	0.5625	0.004	Yes	2.824	-0.004	2.0	GoodResponse	0	0.25	303.572	4	31	Target	AvoidedLoss	True
304.572	0.3	Lose2	0.5625	0.004	Yes	2.824	-0.004	2.0	GoodResponse	0	0.25	n/a	4	31	ButtonPress	AvoidedLoss	True
304.623	0.41	Lose2	0.5625	n/a	Yes	2.824	n/a	n/a	GoodResponse	0	n/a	n/a	4	31	Blank	AvoidedLoss	True
305.024	1.45	Lose2	0.5625	n/a	Yes	2.824	n/a	5.0	GoodResponse	0	0.02	304.044	4	31	Feedback	AvoidedLoss	True
306.478	2.824	Lose2	0.5625	n/a	Yes	2.824	n/a	n/a	GoodResponse	0	0.0	n/a	4	31	ISIslide	AvoidedLoss	True
309.32	0.25	Lose2	0.5758	0.0	Yes	2.63	0.02	n/a	GoodResponse	0	n/a	n/a	4	32	Cue	AvoidedLoss	True
309.571	4.15	Lose2	0.5758	0.0	Yes	2.63	0.001	n/a	GoodResponse	0	n/a	n/a	4	32	Fixation	AvoidedLoss	True
313.717	0.3	Lose2	0.5758	0.003	Yes	2.63	-0.003	2.0	GoodResponse	0	0.201	312.918	4	32	Target	AvoidedLoss	True
313.918	0.3	Lose2	0.5758	0.003	Yes	2.63	-0.003	2.0	GoodResponse	0	0.201	n/a	4	32	ButtonPress	AvoidedLoss	True
314.018	0.4	Lose2	0.5758	n/a	Yes	2.63	n/a	n/a	GoodResponse	0	n/a	n/a	4	32	Blank	AvoidedLoss	True
314.419	1.45	Lose2	0.5758	n/a	Yes	2.63	n/a	5.0	GoodResponse	0	0.038	313.457	4	32	Feedback	AvoidedLoss	True
315.873	2.63	Lose2	0.5758	n/a	Yes	2.63	n/a	n/a	GoodResponse	0	0.0	n/a	4	32	ISIslide	AvoidedLoss	True
318.514	0.25	Win2	0.5882000000000001	0.0	Yes	2.686	0.014	n/a	GoodResponse	1	n/a	n/a	5	33	Cue	Win	True
318.765	4.0	Win2	0.5882000000000001	0.0	Yes	2.686	0.001	n/a	GoodResponse	1	n/a	n/a	5	33	Fixation	Win	True
322.76	0.31	Win2	0.5882000000000001	0.004	Yes	2.686	-0.004	2.0	GoodResponse	1	0.236	321.996	5	33	Target	Win	True
322.996	0.3	Win2	0.5882000000000001	0.004	Yes	2.686	-0.004	2.0	GoodResponse	1	0.236	n/a	5	33	ButtonPress	Win	True
323.078	0.39	Win2	0.5882000000000001	n/a	Yes	2.686	n/a	n/a	GoodResponse	1	n/a	n/a	5	33	Blank	Win	True
323.462	1.45	Win2	0.5882000000000001	n/a	Yes	2.686	n/a	5.0	GoodResponse	1	0.02	322.482	5	33	Feedback	Win	True
324.917	2.686	Win2	0.5882000000000001	n/a	Yes	2.686	n/a	n/a	GoodResponse	1	0.0	n/a	5	33	ISIslide	Win	True
327.625	0.25	Lose2	0.6	0.0	Yes	2.625	0.025	n/a	GoodResponse	0	n/a	n/a	5	34	Cue	AvoidedLoss	True
327.876	4.05	Lose2	0.6	0.0	Yes	2.625	0.001	n/a	GoodResponse	0	n/a	n/a	5	34	Fixation	AvoidedLoss	True
331.921	0.32	Lose2	0.6	0.004	Yes	2.625	-0.004	2.0	GoodResponse	0	0.287	331.208	5	34	Target	AvoidedLoss	True
332.208	0.3	Lose2	0.6	0.004	Yes	2.625	-0.004	2.0	GoodResponse	0	0.287	n/a	5	34	ButtonPress	AvoidedLoss	True
332.255	0.38	Lose2	0.6	n/a	Yes	2.625	n/a	n/a	GoodResponse	0	n/a	n/a	5	34	Blank	AvoidedLoss	True
332.623	1.45	Lose2	0.6	n/a	Yes	2.625	n/a	5.0	GoodResponse	0	0.03	331.653	5	34	Feedback	AvoidedLoss	True
334.077	2.625	Lose2	0.6	n/a	Yes	2.625	n/a	n/a	GoodResponse	0	0.0	n/a	5	34	ISIslide	AvoidedLoss	True
336.719	0.25	Lose2	0.6111	0.0	Yes	2.681	0.019	n/a	GoodResponse	0	n/a	n/a	5	35	Cue	AvoidedLoss	True
336.969	4.0	Lose2	0.6111	0.001	Yes	2.681	0.0	n/a	GoodResponse	0	n/a	n/a	5	35	Fixation	AvoidedLoss	True
340.965	0.33	Lose2	0.6111	0.004	Yes	2.681	-0.004	2.0	GoodResponse	0	0.226	340.191	5	35	Target	AvoidedLoss	True
341.191	0.3	Lose2	0.6111	0.004	Yes	2.681	-0.004	2.0	GoodResponse	0	0.226	n/a	5	35	ButtonPress	AvoidedLoss	True
341.299	0.37	Lose2	0.6111	n/a	Yes	2.681	n/a	n/a	GoodResponse	0	n/a	n/a	5	35	Blank	AvoidedLoss	True
341.667	1.45	Lose2	0.6111	n/a	Yes	2.681	n/a	5.0	GoodResponse	0	0.01	340.677	5	35	Feedback	AvoidedLoss	True
343.121	2.681	Lose2	0.6111	n/a	Yes	2.681	n/a	n/a	GoodResponse	0	0.0	n/a	5	35	ISIslide	AvoidedLoss	True
345.829	0.25	Control	0.6215999999999999	0.0	Yes	2.671	0.029	n/a	GoodResponse	0	n/a	n/a	5	36	Cue	Neutral	True
346.08	4.0	Control	0.6215999999999999	0.0	Yes	2.671	0.001	n/a	GoodResponse	0	n/a	n/a	5	36	Fixation	Neutral	True
350.075	0.34	Control	0.6215999999999999	0.004	Yes	2.671	-0.004	2.0	GoodResponse	0	0.264	349.339	5	36	Target	Neutral	True
350.339	0.3	Control	0.6215999999999999	0.004	Yes	2.671	-0.004	2.0	GoodResponse	0	0.264	n/a	5	36	ButtonPress	Neutral	True
350.426	0.36	Control	0.6215999999999999	n/a	Yes	2.671	n/a	n/a	GoodResponse	0	n/a	n/a	5	36	Blank	Neutral	True
350.777	1.45	Control	0.6215999999999999	n/a	Yes	2.671	n/a	5.0	GoodResponse	0	0.021	349.798	5	36	Feedback	Neutral	True
352.232	2.671	Control	0.6215999999999999	n/a	Yes	2.671	n/a	n/a	GoodResponse	0	0.0	n/a	5	36	ISIslide	Neutral	True
354.923	0.25	Win2	0.6315999999999999	0.0	Yes	2.877	0.023	n/a	GoodResponse	1	n/a	n/a	6	37	Cue	Win	True
355.174	4.0	Win2	0.6315999999999999	0.0	Yes	2.877	0.001	n/a	GoodResponse	1	n/a	n/a	6	37	Fixation	Win	True
359.169	0.35	Win2	0.6315999999999999	0.004	Yes	2.877	-0.004	2.0	GoodResponse	1	0.239	358.408	6	37	Target	Win	True
359.408	0.3	Win2	0.6315999999999999	0.004	Yes	2.877	-0.004	2.0	GoodResponse	1	0.239	n/a	6	37	ButtonPress	Win	True
359.52	0.35	Win2	0.6315999999999999	n/a	Yes	2.877	n/a	n/a	GoodResponse	1	n/a	n/a	6	37	Blank	Win	True
359.871	1.45	Win2	0.6315999999999999	n/a	Yes	2.877	n/a	5.0	GoodResponse	1	0.049	358.92	6	37	Feedback	Win	True
361.326	2.877	Win2	0.6315999999999999	n/a	Yes	2.877	n/a	n/a	GoodResponse	1	0.0	n/a	6	37	ISIslide	Win	True
364.218	0.25	Lose2	0.6409999999999999	0.0	Yes	2.832	0.018	n/a	GoodResponse	0	n/a	n/a	6	38	Cue	AvoidedLoss	True
364.468	3.95	Lose2	0.6409999999999999	0.0	Yes	2.832	0.0	n/a	GoodResponse	0	n/a	n/a	6	38	Fixation	AvoidedLoss	True
368.43	0.36	Lose2	0.6409999999999999	0.0	Yes	2.832	0.012	2.0	GoodResponse	0	0.304	367.734	6	38	Target	AvoidedLoss	True
368.734	0.3	Lose2	0.6409999999999999	0.0	Yes	2.832	0.012	2.0	GoodResponse	0	0.304	n/a	6	38	ButtonPress	AvoidedLoss	True
368.781	0.34	Lose2	0.6409999999999999	n/a	Yes	2.832	n/a	n/a	GoodResponse	0	n/a	n/a	6	38	Blank	AvoidedLoss	True
369.115	1.45	Lose2	0.6409999999999999	n/a	Yes	2.832	n/a	5.0	GoodResponse	0	0.025	368.14	6	38	Feedback	AvoidedLoss	True
370.57	2.832	Lose2	0.6409999999999999	n/a	Yes	2.832	n/a	n/a	GoodResponse	0	0.0	n/a	6	38	ISIslide	AvoidedLoss	True
373.428	0.25	Win2	0.65	0.0	Yes	2.972	0.028	n/a	GoodResponse	1	n/a	n/a	7	39	Cue	Win	True
373.679	4.1	Win2	0.65	0.0	Yes	2.972	0.001	n/a	GoodResponse	1	n/a	n/a	7	39	Fixation	Win	True
377.775	0.37	Win2	0.65	0.003	Yes	2.972	-0.003	2.0	GoodResponse	1	0.212	376.987	7	39	Target	Win	True
377.987	0.3	Win2	0.65	0.003	Yes	2.972	-0.003	2.0	GoodResponse	1	0.212	n/a	7	39	ButtonPress	Win	True
378.159	0.33	Win2	0.65	n/a	Yes	2.972	n/a	n/a	GoodResponse	1	n/a	n/a	7	39	Blank	Win	True
378.477	1.45	Win2	0.65	n/a	Yes	2.972	n/a	5.0	GoodResponse	1	0.029	377.506	7	39	Feedback	Win	True
379.931	2.972	Win2	0.65	n/a	Yes	2.972	n/a	n/a	GoodResponse	1	0.0	n/a	7	39	ISIslide	Win	True
382.923	0.25	Win2	0.6585	0.0	Yes	2.727	0.023	n/a	GoodResponse	1	n/a	n/a	8	40	Cue	Win	True
383.174	3.95	Win2	0.6585	0.0	Yes	2.727	0.001	n/a	GoodResponse	1	n/a	n/a	8	40	Fixation	Win	True
387.119	0.38	Win2	0.6585	0.004	Yes	2.727	-0.004	2.0	GoodResponse	1	0.205	386.324	8	40	Target	Win	True
387.324	0.3	Win2	0.6585	0.004	Yes	2.727	-0.004	2.0	GoodResponse	1	0.205	n/a	8	40	ButtonPress	Win	True
387.504	0.32	Win2	0.6585	n/a	Yes	2.727	n/a	n/a	GoodResponse	1	n/a	n/a	8	40	Blank	Win	True
387.821	1.45	Win2	0.6585	n/a	Yes	2.727	n/a	5.0	GoodResponse	1	0.001	386.822	8	40	Feedback	Win	True
389.276	2.727	Win2	0.6585	n/a	Yes	2.727	n/a	n/a	GoodResponse	1	0.0	n/a	8	40	ISIslide	Win	True
392.017	0.25	Win2	0.6667000000000001	0.0	Yes	2.783	0.017	n/a	GoodResponse	1	n/a	n/a	9	41	Cue	Win	True
392.268	3.9	Win2	0.6667000000000001	0.0	Yes	2.783	0.001	n/a	GoodResponse	1	n/a	n/a	9	41	Fixation	Win	True
396.163	0.38	Win2	0.6667000000000001	0.004	Yes	2.783	-0.004	2.0	GoodResponse	1	0.219	395.382	9	41	Target	Win	True
396.382	0.3	Win2	0.6667000000000001	0.004	Yes	2.783	-0.004	2.0	GoodResponse	1	0.219	n/a	9	41	ButtonPress	Win	True
396.547	0.32	Win2	0.6667000000000001	n/a	Yes	2.783	n/a	n/a	GoodResponse	1	n/a	n/a	9	41	Blank	Win	True
396.865	1.45	Win2	0.6667000000000001	n/a	Yes	2.783	n/a	5.0	GoodResponse	1	0.03	395.895	9	41	Feedback	Win	True
398.319	2.783	Win2	0.6667000000000001	n/a	Yes	2.783	n/a	n/a	GoodResponse	1	0.0	n/a	9	41	ISIslide	Win	True
401.128	0.25	Control	0.6744	0.0	Yes	2.922	0.028	n/a	GoodResponse	0	n/a	n/a	9	42	Cue	Neutral	True
401.378	3.85	Control	0.6744	0.001	Yes	2.922	0.0	n/a	GoodResponse	0	n/a	n/a	9	42	Fixation	Neutral	True
405.24	0.37	Control	0.6744	0.0	Yes	2.922	0.012	2.0	GoodResponse	0	0.35	404.59	9	42	Target	Neutral	True
405.59	0.3	Control	0.6744	0.0	Yes	2.922	0.012	2.0	GoodResponse	0	0.35	n/a	9	42	ButtonPress	Neutral	True
405.608	0.33	Control	0.6744	n/a	Yes	2.922	n/a	n/a	GoodResponse	0	n/a	n/a	9	42	Blank	Neutral	True
405.925	1.45	Control	0.6744	n/a	Yes	2.922	n/a	5.0	GoodResponse	0	0.043	404.968	9	42	Feedback	Neutral	True
407.38	2.922	Control	0.6744	n/a	Yes	2.922	n/a	n/a	GoodResponse	0	0.0	n/a	9	42	ISIslide	Neutral	True
410.322	0.25	Win2	0.6818000000000001	0.0	Yes	3.178	0.022	n/a	GoodResponse	1	n/a	n/a	10	43	Cue	Win	True
410.573	4.0	Win2	0.6818000000000001	0.0	Yes	3.178	0.001	n/a	GoodResponse	1	n/a	n/a	10	43	Fixation	Win	True
414.568	0.36	Win2	0.6818000000000001	0.004	Yes	3.178	-0.004	2.0	GoodResponse	1	0.183	413.751	10	43	Target	Win	True
414.751	0.3	Win2	0.6818000000000001	0.004	Yes	3.178	-0.004	2.0	GoodResponse	1	0.183	n/a	10	43	ButtonPress	Win	True
414.936	0.34	Win2	0.6818000000000001	n/a	Yes	3.178	n/a	n/a	GoodResponse	1	n/a	n/a	10	43	Blank	Win	True
415.27	1.45	Win2	0.6818000000000001	n/a	Yes	3.178	n/a	5.0	GoodResponse	1	0.016	414.286	10	43	Feedback	Win	True
416.724	3.178	Win2	0.6818000000000001	n/a	Yes	3.178	n/a	n/a	GoodResponse	1	0.0	n/a	10	43	ISIslide	Win	True
419.917	0.25	Win2	0.6889	0.0	Yes	2.983	0.017	n/a	GoodResponse	1	n/a	n/a	11	44	Cue	Win	True
420.168	4.0	Win2	0.6889	0.0	Yes	2.983	0.001	n/a	GoodResponse	1	n/a	n/a	11	44	Fixation	Win	True
424.163	0.35	Win2	0.6889	0.004	Yes	2.983	-0.004	2.0	GoodResponse	1	0.204	423.367	11	44	Target	Win	True
424.367	0.3	Win2	0.6889	0.004	Yes	2.983	-0.004	2.0	GoodResponse	1	0.204	n/a	11	44	ButtonPress	Win	True
424.514	0.35	Win2	0.6889	n/a	Yes	2.983	n/a	n/a	GoodResponse	1	n/a	n/a	11	44	Blank	Win	True
424.865	1.45	Win2	0.6889	n/a	Yes	2.983	n/a	5.0	GoodResponse	1	0.03	423.895	11	44	Feedback	Win	True
426.32	2.983	Win2	0.6889	n/a	Yes	2.983	n/a	n/a	GoodResponse	1	0.0	n/a	11	44	ISIslide	Win	True
429.329	0.25	Control	0.6957	0.0	Yes	2.871	0.029	n/a	GoodResponse	0	n/a	n/a	11	45	Cue	Neutral	True
429.579	4.1	Control	0.6957	0.0	Yes	2.871	0.0	n/a	GoodResponse	0	n/a	n/a	11	45	Fixation	Neutral	True
433.675	0.34	Control	0.6957	0.004	Yes	2.871	-0.004	2.0	GoodResponse	0	0.115	432.79	11	45	Target	Neutral	True
433.79	0.3	Control	0.6957	0.004	Yes	2.871	-0.004	2.0	GoodResponse	0	0.115	n/a	11	45	ButtonPress	Neutral	True
434.026	0.36	Control	0.6957	n/a	Yes	2.871	n/a	n/a	GoodResponse	0	n/a	n/a	11	45	Blank	Neutral	True
434.377	1.45	Control	0.6957	n/a	Yes	2.871	n/a	5.0	GoodResponse	0	0.03	433.407	11	45	Feedback	Neutral	True
435.831	2.871	Control	0.6957	n/a	Yes	2.871	n/a	n/a	GoodResponse	0	0.0	n/a	11	45	ISIslide	Neutral	True
438.723	0.25	Lose2	0.7021	0.0	Yes	3.377	0.023	n/a	GoodResponse	0	n/a	n/a	11	46	Cue	AvoidedLoss	True
438.974	4.0	Lose2	0.7021	0.0	Yes	3.377	0.001	n/a	GoodResponse	0	n/a	n/a	11	46	Fixation	AvoidedLoss	True
442.969	0.33	Lose2	0.7021	0.004	Yes	3.377	-0.004	2.0	GoodResponse	0	0.212	442.181	11	46	Target	AvoidedLoss	True
443.181	0.3	Lose2	0.7021	0.004	Yes	3.377	-0.004	2.0	GoodResponse	0	0.212	n/a	11	46	ButtonPress	AvoidedLoss	True
443.304	0.37	Lose2	0.7021	n/a	Yes	3.377	n/a	n/a	GoodResponse	0	n/a	n/a	11	46	Blank	AvoidedLoss	True
443.671	1.45	Lose2	0.7021	n/a	Yes	3.377	n/a	5.0	GoodResponse	0	0.006	442.677	11	46	Feedback	AvoidedLoss	True
445.126	3.377	Lose2	0.7021	n/a	Yes	3.377	n/a	n/a	GoodResponse	0	0.0	n/a	11	46	ISIslide	AvoidedLoss	True
448.519	0.25	Lose2	0.7082999999999999	0.0	Yes	2.681	0.019	n/a	GoodResponse	0	n/a	n/a	11	47	Cue	AvoidedLoss	True
448.77	4.0	Lose2	0.7082999999999999	0.0	Yes	2.681	0.001	n/a	GoodResponse	0	n/a	n/a	11	47	Fixation	AvoidedLoss	True
452.765	0.32	Lose2	0.7082999999999999	0.004	Yes	2.681	-0.004	2.0	GoodResponse	0	0.224	451.989	11	47	Target	AvoidedLoss	True
452.989	0.3	Lose2	0.7082999999999999	0.004	Yes	2.681	-0.004	2.0	GoodResponse	0	0.224	n/a	11	47	ButtonPress	AvoidedLoss	True
453.1	0.38	Lose2	0.7082999999999999	n/a	Yes	2.681	n/a	n/a	GoodResponse	0	n/a	n/a	11	47	Blank	AvoidedLoss	True
453.467	1.45	Lose2	0.7082999999999999	n/a	Yes	2.681	n/a	5.0	GoodResponse	0	0.013	452.48	11	47	Feedback	AvoidedLoss	True
454.922	2.681	Lose2	0.7082999999999999	n/a	Yes	2.681	n/a	n/a	GoodResponse	0	0.0	n/a	11	47	ISIslide	AvoidedLoss	True
457.63	0.25	Lose2	0.7143	0.0	Yes	3.02	0.03	n/a	GoodResponse	0	n/a	n/a	11	48	Cue	AvoidedLoss	True
457.881	3.95	Lose2	0.7143	0.0	Yes	3.02	0.001	n/a	GoodResponse	0	n/a	n/a	11	48	Fixation	AvoidedLoss	True
461.826	0.31	Lose2	0.7143	0.004	Yes	3.02	-0.004	2.0	GoodResponse	0	0.207	461.033	11	48	Target	AvoidedLoss	True
462.033	0.3	Lose2	0.7143	0.004	Yes	3.02	-0.004	2.0	GoodResponse	0	0.207	n/a	11	48	ButtonPress	AvoidedLoss	True
462.143	0.39	Lose2	0.7143	n/a	Yes	3.02	n/a	n/a	GoodResponse	0	n/a	n/a	11	48	Blank	AvoidedLoss	True
462.528	1.45	Lose2	0.7143	n/a	Yes	3.02	n/a	5.0	GoodResponse	0	0.024	461.552	11	48	Feedback	AvoidedLoss	True
463.982	3.02	Lose2	0.7143	n/a	Yes	3.02	n/a	n/a	GoodResponse	0	0.0	n/a	11	48	ISIslide	AvoidedLoss	True
467.025	0.25	Control	0.72	0.0	Yes	2.875	0.025	n/a	GoodResponse	0	n/a	n/a	11	49	Cue	Neutral	True
467.275	4.0	Control	0.72	0.0	Yes	2.875	0.0	n/a	GoodResponse	0	n/a	n/a	11	49	Fixation	Neutral	True
471.271	0.3	Control	0.72	0.004	Yes	2.875	-0.004	2.0	GoodResponse	0	0.262	470.533	11	49	Target	Neutral	True
471.533	0.3	Control	0.72	0.004	Yes	2.875	-0.004	2.0	GoodResponse	0	0.262	n/a	11	49	ButtonPress	Neutral	True
471.571	0.4	Control	0.72	n/a	Yes	2.875	n/a	n/a	GoodResponse	0	n/a	n/a	11	49	Blank	Neutral	True
471.973	1.45	Control	0.72	n/a	Yes	2.875	n/a	5.0	GoodResponse	0	0.043	471.016	11	49	Feedback	Neutral	True
473.427	2.875	Control	0.72	n/a	Yes	2.875	n/a	n/a	GoodResponse	0	0.0	n/a	11	49	ISIslide	Neutral	True
476.319	0.25	Control	0.7059000000000001	0.0	No	2.781	0.019	n/a	NoResponse	0	n/a	n/a	11	50	Cue	Neutral	True
476.57	4.0	Control	0.7059000000000001	0.0	No	2.781	0.001	n/a	NoResponse	0	n/a	n/a	11	50	Fixation	Neutral	True
480.565	0.29	Control	0.7059000000000001	0.004	No	2.781	-0.004	2.0	NoResponse	0	0.37	479.935	11	50	Target	Neutral	True
480.866	0.41	Control	0.7059000000000001	n/a	No	2.781	n/a	n/a	NoResponse	0	n/a	n/a	11	50	Blank	Neutral	True
480.935	0.3	Control	0.7059000000000001	0.004	No	2.781	-0.004	2.0	NoResponse	0	0.37	n/a	11	50	ButtonPress	Neutral	True
481.267	1.45	Control	0.7059000000000001	n/a	No	2.781	n/a	5.0	NoResponse	0	0.017	480.284	11	50	Feedback	Neutral	True
482.721	2.781	Control	0.7059000000000001	n/a	No	2.781	n/a	n/a	NoResponse	0	0.0	n/a	11	50	ISIslide	Neutral	True
485.53	0.25	Control	0.7115	0.0	Yes	2.72	0.03	n/a	GoodResponse	0	n/a	n/a	11	51	Cue	Neutral	True
485.781	3.95	Control	0.7115	0.0	Yes	2.72	0.001	n/a	GoodResponse	0	n/a	n/a	11	51	Fixation	Neutral	True
489.726	0.28	Control	0.7115	0.004	Yes	2.72	-0.004	2.0	GoodResponse	0	0.208	488.934	11	51	Target	Neutral	True
489.934	0.3	Control	0.7115	0.004	Yes	2.72	-0.004	2.0	GoodResponse	0	0.208	n/a	11	51	ButtonPress	Neutral	True
490.01	0.42	Control	0.7115	n/a	Yes	2.72	n/a	n/a	GoodResponse	0	n/a	n/a	11	51	Blank	Neutral	True
490.428	1.45	Control	0.7115	n/a	Yes	2.72	n/a	5.0	GoodResponse	0	0.027	489.455	11	51	Feedback	Neutral	True
491.882	2.72	Control	0.7115	n/a	Yes	2.72	n/a	n/a	GoodResponse	0	0.0	n/a	11	51	ISIslide	Neutral	True
494.624	0.25	Control	0.7170000000000001	0.0	Yes	2.626	0.024	n/a	GoodResponse	0	n/a	n/a	11	52	Cue	Neutral	True
494.874	4.05	Control	0.7170000000000001	0.0	Yes	2.626	0.0	n/a	GoodResponse	0	n/a	n/a	11	52	Fixation	Neutral	True
498.92	0.27	Control	0.7170000000000001	0.004	Yes	2.626	-0.004	2.0	GoodResponse	0	0.244	498.164	11	52	Target	Neutral	True
499.164	0.3	Control	0.7170000000000001	0.004	Yes	2.626	-0.004	2.0	GoodResponse	0	0.244	n/a	11	52	ButtonPress	Neutral	True
499.204	0.43	Control	0.7170000000000001	n/a	Yes	2.626	n/a	n/a	GoodResponse	0	n/a	n/a	11	52	Blank	Neutral	True
499.622	1.45	Control	0.7170000000000001	n/a	Yes	2.626	n/a	5.0	GoodResponse	0	0.005	498.627	11	52	Feedback	Neutral	True
501.076	2.626	Control	0.7170000000000001	n/a	Yes	2.626	n/a	n/a	GoodResponse	0	0.0	n/a	11	52	ISIslide	Neutral	True
503.717	0.25	Win2	0.7222	0.001	Yes	2.933	0.017	n/a	GoodResponse	1	n/a	n/a	12	53	Cue	Win	True
503.968	4.05	Win2	0.7222	0.0	Yes	2.933	0.001	n/a	GoodResponse	1	n/a	n/a	12	53	Fixation	Win	True
508.014	0.26	Win2	0.7222	0.003	Yes	2.933	-0.003	2.0	GoodResponse	1	0.251	507.265	12	53	Target	Win	True
508.265	0.3	Win2	0.7222	0.003	Yes	2.933	-0.003	2.0	GoodResponse	1	0.251	n/a	12	53	ButtonPress	Win	True
508.281	0.44	Win2	0.7222	n/a	Yes	2.933	n/a	n/a	GoodResponse	1	n/a	n/a	12	53	Blank	Win	True
508.716	1.45	Win2	0.7222	n/a	Yes	2.933	n/a	5.0	GoodResponse	1	0.031	507.747	12	53	Feedback	Win	True
510.17	2.933	Win2	0.7222	n/a	Yes	2.933	n/a	n/a	GoodResponse	1	0.0	n/a	12	53	ISIslide	Win	True
513.129	0.25	Win2	0.7091	0.0	No	2.721	0.029	n/a	NoResponse	0	n/a	n/a	12	54	Cue	MissedWin	True
513.38	3.95	Win2	0.7091	0.0	No	2.721	0.001	n/a	NoResponse	0	n/a	n/a	12	54	Fixation	MissedWin	True
517.325	0.25	Win2	0.7091	0.004	No	2.721	-0.004	2.0	NoResponse	0	0.299	516.624	12	54	Target	MissedWin	True
517.576	0.45	Win2	0.7091	n/a	No	2.721	n/a	n/a	NoResponse	0	n/a	n/a	12	54	Blank	MissedWin	True
517.624	0.3	Win2	0.7091	0.004	No	2.721	-0.004	2.0	NoResponse	0	0.299	n/a	12	54	ButtonPress	MissedWin	True
518.027	1.45	Win2	0.7091	n/a	No	2.721	n/a	5.0	NoResponse	0	0.037	517.064	12	54	Feedback	MissedWin	True
519.481	2.721	Win2	0.7091	n/a	No	2.721	n/a	n/a	NoResponse	0	0.0	n/a	12	54	ISIslide	MissedWin	True
522.223	0.25	Control	0.6964	0.0	No	3.027	0.023	n/a	LatePress	0	n/a	n/a	12	55	Cue	Neutral	True
522.473	3.95	Control	0.6964	0.001	No	3.027	0.0	n/a	LatePress	0	n/a	n/a	12	55	Fixation	Neutral	True
526.419	0.24	Control	0.6964	0.004	No	3.027	-0.004	2.0	LatePress	0	0.242	525.661	12	55	Target	Neutral	True
526.661	0.3	Control	0.6964	0.004	No	3.027	-0.004	2.0	LatePress	0	0.242	n/a	12	55	ButtonPress	Neutral	True
526.669	0.46	Control	0.6964	n/a	No	3.027	n/a	n/a	LatePress	0	n/a	n/a	12	55	Blank	Neutral	True
527.121	1.45	Control	0.6964	n/a	No	3.027	n/a	5.0	LatePress	0	0.016	526.137	12	55	Feedback	Neutral	True
528.575	3.027	Control	0.6964	n/a	No	3.027	n/a	n/a	LatePress	0	0.0	n/a	12	55	ISIslide	Neutral	True
531.617	0.25	Control	0.6842	0.001	No	2.833	0.017	n/a	NoResponse	0	n/a	n/a	12	56	Cue	Neutral	True
531.868	3.95	Control	0.6842	0.0	No	2.833	0.001	n/a	NoResponse	0	n/a	n/a	12	56	Fixation	Neutral	True
535.813	0.23	Control	0.6842	0.004	No	2.833	-0.004	2.0	NoResponse	0	0.241	535.054	12	56	Target	Neutral	True
536.047	0.47	Control	0.6842	n/a	No	2.833	n/a	n/a	NoResponse	0	n/a	n/a	12	56	Blank	Neutral	True
536.054	0.3	Control	0.6842	0.004	No	2.833	-0.004	2.0	NoResponse	0	0.241	n/a	12	56	ButtonPress	Neutral	True
536.515	1.45	Control	0.6842	n/a	No	2.833	n/a	5.0	NoResponse	0	0.036	535.551	12	56	Feedback	Neutral	True
537.97	2.833	Control	0.6842	n/a	No	2.833	n/a	n/a	NoResponse	0	0.0	n/a	12	56	ISIslide	Neutral	True
540.828	0.25	Control	0.6724	0.0	No	3.472	0.028	n/a	NoResponse	0	n/a	n/a	12	57	Cue	Neutral	True
541.079	4.0	Control	0.6724	0.0	No	3.472	0.001	n/a	NoResponse	0	n/a	n/a	12	57	Fixation	Neutral	True
545.074	0.22	Control	0.6724	0.004	No	3.472	-0.004	2.0	NoResponse	0	0.241	544.315	12	57	Target	Neutral	True
545.308	0.48	Control	0.6724	n/a	No	3.472	n/a	n/a	NoResponse	0	n/a	n/a	12	57	Blank	Neutral	True
545.315	0.3	Control	0.6724	0.004	No	3.472	-0.004	2.0	NoResponse	0	0.241	n/a	12	57	ButtonPress	Neutral	True
545.776	1.45	Control	0.6724	n/a	No	3.472	n/a	5.0	NoResponse	0	0.044	544.82	12	57	Feedback	Neutral	True
547.231	3.472	Control	0.6724	n/a	No	3.472	n/a	n/a	NoResponse	0	0.0	n/a	12	57	ISIslide	Neutral	True
550.725	0.25	Win2	0.6609999999999999	0.0	No	2.725	0.025	n/a	PrematurePress	0	n/a	n/a	12	58	Cue	MissedWin	True
550.975	4.05	Win2	0.6609999999999999	0.0	No	2.725	0.0	n/a	PrematurePress	0	n/a	n/a	12	58	Fixation	MissedWin	True
555.021	0.21	Win2	0.6609999999999999	0.004	No	2.725	-0.004	2.0	PrematurePress	0	0.046	554.067	12	58	Target	MissedWin	True
555.067	0.3	Win2	0.6609999999999999	0.004	No	2.725	-0.004	2.0	PrematurePress	0	0.046	n/a	12	58	ButtonPress	MissedWin	True
555.238	0.49	Win2	0.6609999999999999	n/a	No	2.725	n/a	n/a	PrematurePress	0	n/a	n/a	12	58	Blank	MissedWin	True
555.723	1.45	Win2	0.6609999999999999	n/a	No	2.725	n/a	5.0	PrematurePress	0	0.048	554.771	12	58	Feedback	MissedWin	True
557.177	2.725	Win2	0.6609999999999999	n/a	No	2.725	n/a	n/a	PrematurePress	0	0.0	n/a	12	58	ISIslide	MissedWin	True
559.919	0.25	Lose2	0.65	0.0	No	2.681	0.019	n/a	NoResponse	-1	n/a	n/a	11	59	Cue	Loss	True
560.169	4.0	Lose2	0.65	0.0	No	2.681	0.0	n/a	NoResponse	-1	n/a	n/a	11	59	Fixation	Loss	True
564.165	0.21	Lose2	0.65	0.004	No	2.681	-0.004	2.0	NoResponse	-1	0.25	563.415	11	59	Target	Loss	True
564.382	0.49	Lose2	0.65	n/a	No	2.681	n/a	n/a	NoResponse	-1	n/a	n/a	11	59	Blank	Loss	True
564.415	0.3	Lose2	0.65	0.004	No	2.681	-0.004	2.0	NoResponse	-1	0.25	n/a	11	59	ButtonPress	Loss	True
564.867	1.45	Lose2	0.65	n/a	No	2.681	n/a	5.0	NoResponse	-1	0.026	563.893	11	59	Feedback	Loss	True
566.321	2.681	Lose2	0.65	n/a	No	2.681	n/a	n/a	NoResponse	-1	0.0	n/a	11	59	ISIslide	Loss	True
569.029	0.25	Control	0.6393	0.0	No	2.671	0.029	n/a	NoResponse	0	n/a	n/a	11	60	Cue	Neutral	True
569.28	4.0	Control	0.6393	0.0	No	2.671	0.001	n/a	NoResponse	0	n/a	n/a	11	60	Fixation	Neutral	True
573.275	0.22	Control	0.6393	0.004	No	2.671	-0.004	2.0	NoResponse	0	0.26	572.535	11	60	Target	Neutral	True
573.509	0.48	Control	0.6393	n/a	No	2.671	n/a	n/a	NoResponse	0	n/a	n/a	11	60	Blank	Neutral	True
573.535	0.3	Control	0.6393	0.004	No	2.671	-0.004	2.0	NoResponse	0	0.26	n/a	11	60	ButtonPress	Neutral	True
573.977	1.45	Control	0.6393	n/a	No	2.671	n/a	5.0	NoResponse	0	0.037	573.014	11	60	Feedback	Neutral	True
575.432	2.671	Control	0.6393	n/a	No	2.671	n/a	n/a	NoResponse	0	0.0	n/a	11	60	ISIslide	Neutral	True
578.123	0.25	Lose2	0.629	0.0	No	2.977	0.023	n/a	NoResponse	-1	n/a	n/a	10	61	Cue	Loss	True
578.374	4.0	Lose2	0.629	0.0	No	2.977	0.001	n/a	NoResponse	-1	n/a	n/a	10	61	Fixation	Loss	True
582.369	0.23	Lose2	0.629	0.004	No	2.977	-0.004	2.0	NoResponse	-1	0.241	581.61	10	61	Target	Loss	True
582.603	0.47	Lose2	0.629	n/a	No	2.977	n/a	n/a	NoResponse	-1	n/a	n/a	10	61	Blank	Loss	True
582.61	0.3	Lose2	0.629	0.004	No	2.977	-0.004	2.0	NoResponse	-1	0.241	n/a	10	61	ButtonPress	Loss	True
583.071	1.45	Lose2	0.629	n/a	No	2.977	n/a	5.0	NoResponse	-1	0.016	582.087	10	61	Feedback	Loss	True
584.525	2.977	Lose2	0.629	n/a	No	2.977	n/a	n/a	NoResponse	-1	0.0	n/a	10	61	ISIslide	Loss	True
587.518	0.25	Lose2	0.6349	0.0	Yes	2.882	0.018	n/a	GoodResponse	0	n/a	n/a	10	62	Cue	AvoidedLoss	True
587.768	3.9	Lose2	0.6349	0.001	Yes	2.882	0.0	n/a	GoodResponse	0	n/a	n/a	10	62	Fixation	AvoidedLoss	True
591.68	0.24	Lose2	0.6349	0.0	Yes	2.882	0.012	2.0	GoodResponse	0	0.206	590.886	10	62	Target	AvoidedLoss	True
591.886	0.3	Lose2	0.6349	0.0	Yes	2.882	0.012	2.0	GoodResponse	0	0.206	n/a	10	62	ButtonPress	AvoidedLoss	True
591.914	0.46	Lose2	0.6349	n/a	Yes	2.882	n/a	n/a	GoodResponse	0	n/a	n/a	10	62	Blank	AvoidedLoss	True
592.366	1.45	Lose2	0.6349	n/a	Yes	2.882	n/a	5.0	GoodResponse	0	0.038	591.404	10	62	Feedback	AvoidedLoss	True
593.82	2.882	Lose2	0.6349	n/a	Yes	2.882	n/a	n/a	GoodResponse	0	0.0	n/a	10	62	ISIslide	AvoidedLoss	True
596.729	0.25	Lose2	0.6406000000000001	0.0	Yes	2.621	0.029	n/a	GoodResponse	0	n/a	n/a	10	63	Cue	AvoidedLoss	True
596.979	4.05	Lose2	0.6406000000000001	0.0	Yes	2.621	0.0	n/a	GoodResponse	0	n/a	n/a	10	63	Fixation	AvoidedLoss	True
601.025	0.25	Lose2	0.6406000000000001	0.004	Yes	2.621	-0.004	2.0	GoodResponse	0	0.234	600.259	10	63	Target	AvoidedLoss	True
601.259	0.3	Lose2	0.6406000000000001	0.004	Yes	2.621	-0.004	2.0	GoodResponse	0	0.234	n/a	10	63	ButtonPress	AvoidedLoss	True
601.275	0.45	Lose2	0.6406000000000001	n/a	Yes	2.621	n/a	n/a	GoodResponse	0	n/a	n/a	10	63	Blank	AvoidedLoss	True
601.727	1.45	Lose2	0.6406000000000001	n/a	Yes	2.621	n/a	5.0	GoodResponse	0	0.043	600.77	10	63	Feedback	AvoidedLoss	True
603.181	2.621	Lose2	0.6406000000000001	n/a	Yes	2.621	n/a	n/a	GoodResponse	0	0.0	n/a	10	63	ISIslide	AvoidedLoss	True
605.822	0.25	Win2	0.6462	0.001	Yes	3.128	0.022	n/a	GoodResponse	1	n/a	n/a	11	64	Cue	Win	True
606.073	4.15	Win2	0.6462	0.0	Yes	3.128	0.001	n/a	GoodResponse	1	n/a	n/a	11	64	Fixation	Win	True
610.219	0.26	Win2	0.6462	0.003	Yes	3.128	-0.003	2.0	GoodResponse	1	0.253	609.472	11	64	Target	Win	True
610.472	0.3	Win2	0.6462	0.003	Yes	3.128	-0.003	2.0	GoodResponse	1	0.253	n/a	11	64	ButtonPress	Win	True
610.486	0.44	Win2	0.6462	n/a	Yes	3.128	n/a	n/a	GoodResponse	1	n/a	n/a	11	64	Blank	Win	True
610.921	1.45	Win2	0.6462	n/a	Yes	3.128	n/a	5.0	GoodResponse	1	0.019	609.94	11	64	Feedback	Win	True
612.375	3.128	Win2	0.6462	n/a	Yes	3.128	n/a	n/a	GoodResponse	1	0.0	n/a	11	64	ISIslide	Win	True
615.518	0.25	Control	0.6364	0.0	No	2.782	0.018	n/a	NoResponse	0	n/a	n/a	11	65	Cue	Neutral	True
615.769	4.0	Control	0.6364	0.0	No	2.782	0.001	n/a	NoResponse	0	n/a	n/a	11	65	Fixation	Neutral	True
619.764	0.27	Control	0.6364	0.004	No	2.782	-0.004	2.0	NoResponse	0	0.291	619.055	11	65	Target	Neutral	True
620.048	0.43	Control	0.6364	n/a	No	2.782	n/a	n/a	NoResponse	0	n/a	n/a	11	65	Blank	Neutral	True
620.055	0.3	Control	0.6364	0.004	No	2.782	-0.004	2.0	NoResponse	0	0.291	n/a	11	65	ButtonPress	Neutral	True
620.466	1.45	Control	0.6364	n/a	No	2.782	n/a	5.0	NoResponse	0	0.035	619.501	11	65	Feedback	Neutral	True
621.92	2.782	Control	0.6364	n/a	No	2.782	n/a	n/a	NoResponse	0	0.0	n/a	11	65	ISIslide	Neutral	True
624.729	0.25	Win2	0.6418	0.0	Yes	2.771	0.029	n/a	GoodResponse	1	n/a	n/a	12	66	Cue	Win	True
624.98	3.9	Win2	0.6418	0.0	Yes	2.771	0.001	n/a	GoodResponse	1	n/a	n/a	12	66	Fixation	Win	True
628.875	0.28	Win2	0.6418	0.004	Yes	2.771	-0.004	2.0	GoodResponse	1	0.243	628.118	12	66	Target	Win	True
629.118	0.3	Win2	0.6418	0.004	Yes	2.771	-0.004	2.0	GoodResponse	1	0.243	n/a	12	66	ButtonPress	Win	True
629.159	0.42	Win2	0.6418	n/a	Yes	2.771	n/a	n/a	GoodResponse	1	n/a	n/a	12	66	Blank	Win	True
629.577	1.45	Win2	0.6418	n/a	Yes	2.771	n/a	5.0	GoodResponse	1	0.046	628.623	12	66	Feedback	Win	True
631.031	2.771	Win2	0.6418	n/a	Yes	2.771	n/a	n/a	GoodResponse	1	0.0	n/a	12	66	ISIslide	Win	True
633.823	0.25	Control	0.6470999999999999	0.0	Yes	2.727	0.023	n/a	GoodResponse	0	n/a	n/a	12	67	Cue	Neutral	True
634.073	3.95	Control	0.6470999999999999	0.001	Yes	2.727	0.0	n/a	GoodResponse	0	n/a	n/a	12	67	Fixation	Neutral	True
638.019	0.29	Control	0.6470999999999999	0.004	Yes	2.727	-0.004	2.0	GoodResponse	0	0.207	637.226	12	67	Target	Neutral	True
638.226	0.3	Control	0.6470999999999999	0.004	Yes	2.727	-0.004	2.0	GoodResponse	0	0.207	n/a	12	67	ButtonPress	Neutral	True
638.319	0.41	Control	0.6470999999999999	n/a	Yes	2.727	n/a	n/a	GoodResponse	0	n/a	n/a	12	67	Blank	Neutral	True
638.721	1.45	Control	0.6470999999999999	n/a	Yes	2.727	n/a	5.0	GoodResponse	0	0.024	637.745	12	67	Feedback	Neutral	True
640.175	2.727	Control	0.6470999999999999	n/a	Yes	2.727	n/a	n/a	GoodResponse	0	0.0	n/a	12	67	ISIslide	Neutral	True
642.917	0.25	Win2	0.6522	0.0	Yes	3.083	0.017	n/a	GoodResponse	1	n/a	n/a	13	68	Cue	Win	True
643.167	4.0	Win2	0.6522	0.0	Yes	3.083	0.0	n/a	GoodResponse	1	n/a	n/a	13	68	Fixation	Win	True
647.163	0.3	Win2	0.6522	0.004	Yes	3.083	-0.004	2.0	GoodResponse	1	0.215	646.378	13	68	Target	Win	True
647.378	0.3	Win2	0.6522	0.004	Yes	3.083	-0.004	2.0	GoodResponse	1	0.215	n/a	13	68	ButtonPress	Win	True
647.463	0.4	Win2	0.6522	n/a	Yes	3.083	n/a	n/a	GoodResponse	1	n/a	n/a	13	68	Blank	Win	True
647.865	1.45	Win2	0.6522	n/a	Yes	3.083	n/a	5.0	GoodResponse	1	0.001	646.866	13	68	Feedback	Win	True
649.319	3.083	Win2	0.6522	n/a	Yes	3.083	n/a	n/a	GoodResponse	1	0.0	n/a	13	68	ISIslide	Win	True
652.428	0.25	Win2	0.6570999999999999	0.0	Yes	3.222	0.028	n/a	GoodResponse	1	n/a	n/a	14	69	Cue	Win	True
652.679	3.95	Win2	0.6570999999999999	0.0	Yes	3.222	0.001	n/a	GoodResponse	1	n/a	n/a	14	69	Fixation	Win	True
656.624	0.31	Win2	0.6570999999999999	0.004	Yes	3.222	-0.004	2.0	GoodResponse	1	0.231	655.855	14	69	Target	Win	True
656.855	0.3	Win2	0.6570999999999999	0.004	Yes	3.222	-0.004	2.0	GoodResponse	1	0.231	n/a	14	69	ButtonPress	Win	True
656.942	0.39	Win2	0.6570999999999999	n/a	Yes	3.222	n/a	n/a	GoodResponse	1	n/a	n/a	14	69	Blank	Win	True
657.326	1.45	Win2	0.6570999999999999	n/a	Yes	3.222	n/a	5.0	GoodResponse	1	0.005	656.331	14	69	Feedback	Win	True
658.781	3.222	Win2	0.6570999999999999	n/a	Yes	3.222	n/a	n/a	GoodResponse	1	0.0	n/a	14	69	ISIslide	Win	True
662.024	0.25	Lose2	0.662	0.0	Yes	3.026	0.024	n/a	GoodResponse	0	n/a	n/a	14	70	Cue	AvoidedLoss	True
662.274	4.05	Lose2	0.662	0.0	Yes	3.026	0.0	n/a	GoodResponse	0	n/a	n/a	14	70	Fixation	AvoidedLoss	True
666.32	0.31	Lose2	0.662	0.004	Yes	3.026	-0.004	2.0	GoodResponse	0	0.124	665.444	14	70	Target	AvoidedLoss	True
666.444	0.3	Lose2	0.662	0.004	Yes	3.026	-0.004	2.0	GoodResponse	0	0.124	n/a	14	70	ButtonPress	AvoidedLoss	True
666.637	0.39	Lose2	0.662	n/a	Yes	3.026	n/a	n/a	GoodResponse	0	n/a	n/a	14	70	Blank	AvoidedLoss	True
667.022	1.45	Lose2	0.662	n/a	Yes	3.026	n/a	5.0	GoodResponse	0	0.015	666.037	14	70	Feedback	AvoidedLoss	True
668.476	3.026	Lose2	0.662	n/a	Yes	3.026	n/a	n/a	GoodResponse	0	0.0	n/a	14	70	ISIslide	AvoidedLoss	True
671.519	0.25	Win2	0.6667000000000001	0.0	Yes	2.731	0.019	n/a	GoodResponse	1	n/a	n/a	15	71	Cue	Win	True
671.769	4.05	Win2	0.6667000000000001	0.0	Yes	2.731	0.0	n/a	GoodResponse	1	n/a	n/a	15	71	Fixation	Win	True
675.815	0.31	Win2	0.6667000000000001	0.004	Yes	2.731	-0.004	2.0	GoodResponse	1	0.218	675.033	15	71	Target	Win	True
676.033	0.3	Win2	0.6667000000000001	0.004	Yes	2.731	-0.004	2.0	GoodResponse	1	0.218	n/a	15	71	ButtonPress	Win	True
676.132	0.39	Win2	0.6667000000000001	n/a	Yes	2.731	n/a	n/a	GoodResponse	1	n/a	n/a	15	71	Blank	Win	True
676.517	1.45	Win2	0.6667000000000001	n/a	Yes	2.731	n/a	5.0	GoodResponse	1	0.033	675.55	15	71	Feedback	Win	True
677.971	2.731	Win2	0.6667000000000001	n/a	Yes	2.731	n/a	n/a	GoodResponse	1	0.0	n/a	15	71	ISIslide	Win	True
680.729	0.25	Win2	0.6712	0.001	Yes	2.771	0.029	n/a	GoodResponse	1	n/a	n/a	16	72	Cue	Win	True
680.98	4.1	Win2	0.6712	0.0	Yes	2.771	0.001	n/a	GoodResponse	1	n/a	n/a	16	72	Fixation	Win	True
685.076	0.3	Win2	0.6712	0.003	Yes	2.771	-0.003	2.0	GoodResponse	1	0.194	684.27	16	72	Target	Win	True
685.27	0.3	Win2	0.6712	0.003	Yes	2.771	-0.003	2.0	GoodResponse	1	0.194	n/a	16	72	ButtonPress	Win	True
685.377	0.4	Win2	0.6712	n/a	Yes	2.771	n/a	n/a	GoodResponse	1	n/a	n/a	16	72	Blank	Win	True
685.778	1.45	Win2	0.6712	n/a	Yes	2.771	n/a	5.0	GoodResponse	1	0.039	684.817	16	72	Feedback	Win	True
687.232	2.771	Win2	0.6712	n/a	Yes	2.771	n/a	n/a	GoodResponse	1	0.0	n/a	16	72	ISIslide	Win	True
690.024	0.25	Win2	0.6757	0.0	Yes	2.676	0.024	n/a	GoodResponse	1	n/a	n/a	17	73	Cue	Win	True
690.275	4.0	Win2	0.6757	0.0	Yes	2.676	0.001	n/a	GoodResponse	1	n/a	n/a	17	73	Fixation	Win	True
694.27	0.29	Win2	0.6757	0.004	Yes	2.676	-0.004	2.0	GoodResponse	1	0.233	693.503	17	73	Target	Win	True
694.503	0.3	Win2	0.6757	0.004	Yes	2.676	-0.004	2.0	GoodResponse	1	0.233	n/a	17	73	ButtonPress	Win	True
694.571	0.41	Win2	0.6757	n/a	Yes	2.676	n/a	n/a	GoodResponse	1	n/a	n/a	17	73	Blank	Win	True
694.972	1.45	Win2	0.6757	n/a	Yes	2.676	n/a	5.0	GoodResponse	1	0.016	693.988	17	73	Feedback	Win	True
696.426	2.676	Win2	0.6757	n/a	Yes	2.676	n/a	n/a	GoodResponse	1	0.0	n/a	17	73	ISIslide	Win	True
699.118	0.25	Lose2	0.68	0.0	Yes	2.632	0.018	n/a	GoodResponse	0	n/a	n/a	17	74	Cue	AvoidedLoss	True
699.368	4.05	Lose2	0.68	0.001	Yes	2.632	0.0	n/a	GoodResponse	0	n/a	n/a	17	74	Fixation	AvoidedLoss	True
703.414	0.28	Lose2	0.68	0.004	Yes	2.632	-0.004	2.0	GoodResponse	0	0.246	702.66	17	74	Target	AvoidedLoss	True
703.66	0.3	Lose2	0.68	0.004	Yes	2.632	-0.004	2.0	GoodResponse	0	0.246	n/a	17	74	ButtonPress	AvoidedLoss	True
703.698	0.42	Lose2	0.68	n/a	Yes	2.632	n/a	n/a	GoodResponse	0	n/a	n/a	17	74	Blank	AvoidedLoss	True
704.116	1.45	Lose2	0.68	n/a	Yes	2.632	n/a	5.0	GoodResponse	0	0.043	703.159	17	74	Feedback	AvoidedLoss	True
705.57	2.632	Lose2	0.68	n/a	Yes	2.632	n/a	n/a	GoodResponse	0	0.0	n/a	17	74	ISIslide	AvoidedLoss	True
708.228	0.25	Lose2	0.6842	0.0	Yes	2.922	0.028	n/a	GoodResponse	0	n/a	n/a	17	75	Cue	AvoidedLoss	True
708.479	3.95	Lose2	0.6842	0.0	Yes	2.922	0.001	n/a	GoodResponse	0	n/a	n/a	17	75	Fixation	AvoidedLoss	True
712.424	0.27	Lose2	0.6842	0.004	Yes	2.922	-0.004	2.0	GoodResponse	0	0.232	711.656	17	75	Target	AvoidedLoss	True
712.656	0.3	Lose2	0.6842	0.004	Yes	2.922	-0.004	2.0	GoodResponse	0	0.232	n/a	17	75	ButtonPress	AvoidedLoss	True
712.708	0.43	Lose2	0.6842	n/a	Yes	2.922	n/a	n/a	GoodResponse	0	n/a	n/a	17	75	Blank	AvoidedLoss	True
713.126	1.45	Lose2	0.6842	n/a	Yes	2.922	n/a	5.0	GoodResponse	0	0.008	712.134	17	75	Feedback	AvoidedLoss	True
714.581	2.922	Lose2	0.6842	n/a	Yes	2.922	n/a	n/a	GoodResponse	0	0.0	n/a	17	75	ISIslide	AvoidedLoss	True
717.523	0.25	Control	0.6883	0.0	Yes	3.227	0.023	n/a	GoodResponse	0	n/a	n/a	17	76	Cue	Neutral	True
717.773	4.05	Control	0.6883	0.001	Yes	3.227	0.0	n/a	GoodResponse	0	n/a	n/a	17	76	Fixation	Neutral	True
721.819	0.26	Control	0.6883	0.004	Yes	3.227	-0.004	2.0	GoodResponse	0	0.23	721.049	17	76	Target	Neutral	True
722.049	0.3	Control	0.6883	0.004	Yes	3.227	-0.004	2.0	GoodResponse	0	0.23	n/a	17	76	ButtonPress	Neutral	True
722.086	0.44	Control	0.6883	n/a	Yes	3.227	n/a	n/a	GoodResponse	0	n/a	n/a	17	76	Blank	Neutral	True
722.521	1.45	Control	0.6883	n/a	Yes	3.227	n/a	5.0	GoodResponse	0	0.027	721.548	17	76	Feedback	Neutral	True
723.975	3.227	Control	0.6883	n/a	Yes	3.227	n/a	n/a	GoodResponse	0	0.0	n/a	17	76	ISIslide	Neutral	True
727.218	0.25	Lose2	0.6923	0.0	Yes	2.582	0.018	n/a	GoodResponse	0	n/a	n/a	17	77	Cue	AvoidedLoss	True
727.469	3.95	Lose2	0.6923	0.0	Yes	2.582	0.001	n/a	GoodResponse	0	n/a	n/a	17	77	Fixation	AvoidedLoss	True
731.414	0.25	Lose2	0.6923	0.004	Yes	2.582	-0.004	2.0	GoodResponse	0	0.215	730.629	17	77	Target	AvoidedLoss	True
731.629	0.3	Lose2	0.6923	0.004	Yes	2.582	-0.004	2.0	GoodResponse	0	0.215	n/a	17	77	ButtonPress	AvoidedLoss	True
731.665	0.45	Lose2	0.6923	n/a	Yes	2.582	n/a	n/a	GoodResponse	0	n/a	n/a	17	77	Blank	AvoidedLoss	True
732.116	1.45	Lose2	0.6923	n/a	Yes	2.582	n/a	5.0	GoodResponse	0	0.042	731.158	17	77	Feedback	AvoidedLoss	True
733.571	2.582	Lose2	0.6923	n/a	Yes	2.582	n/a	n/a	GoodResponse	0	0.0	n/a	17	77	ISIslide	AvoidedLoss	True
