onset	duration	cue_type	current_mean_accuracy	duration_error	is_hit	isi_adjusted	onset_delay	response	response_type	reward	rt	rt_time	total_reward	trial_number	trial_phase	trial_type	one_press
11.106	0.25	Control	1.0	0.0	Yes	2.944	0.006	n/a	GoodResponse	0	n/a	n/a	0	0	Cue	Neutral	True
11.356	3.85	Control	1.0	0.0	Yes	2.944	0.0	n/a	GoodResponse	0	n/a	n/a	0	0	Fixation	Neutral	True
15.205	0.4	Control	1.0	0.001	Yes	2.944	-0.001	4.0	GoodResponse	0	0.2	14.405	0	0	Target	Neutral	True
15.405	0.3	Control	1.0	0.001	Yes	2.944	-0.001	4.0	GoodResponse	0	0.2	n/a	0	0	ButtonPress	Neutral	True
15.604	0.3	Control	1.0	n/a	Yes	2.944	n/a	n/a	GoodResponse	0	n/a	n/a	0	0	Blank	Neutral	True
15.904	1.45	Control	1.0	n/a	Yes	2.944	n/a	5.0	GoodResponse	0	0.021	14.925	0	0	Feedback	Neutral	True
17.354	2.944	Control	1.0	n/a	Yes	2.944	n/a	n/a	GoodResponse	0	0.0	n/a	0	0	ISIslide	Neutral	True
20.319	0.25	Lose2	1.0	0.0	Yes	2.781	0.019	n/a	GoodResponse	0	n/a	n/a	0	1	Cue	AvoidedLoss	True
20.569	4.0	Lose2	1.0	0.0	Yes	2.781	0.0	n/a	GoodResponse	0	n/a	n/a	0	1	Fixation	AvoidedLoss	True
24.568	0.39	Lose2	1.0	0.001	Yes	2.781	-0.001	4.0	GoodResponse	0	0.222	23.79	0	1	Target	AvoidedLoss	True
24.79	0.3	Lose2	1.0	0.001	Yes	2.781	-0.001	4.0	GoodResponse	0	0.222	n/a	0	1	ButtonPress	AvoidedLoss	True
24.968	0.31	Lose2	1.0	n/a	Yes	2.781	n/a	n/a	GoodResponse	0	n/a	n/a	0	1	Blank	AvoidedLoss	True
25.268	1.45	Lose2	1.0	n/a	Yes	2.781	n/a	5.0	GoodResponse	0	0.023	24.291	0	1	Feedback	AvoidedLoss	True
26.717	2.781	Lose2	1.0	n/a	Yes	2.781	n/a	n/a	GoodResponse	0	0.0	n/a	0	1	ISIslide	AvoidedLoss	True
29.516	0.25	Control	1.0	0.0	Yes	2.584	0.016	n/a	GoodResponse	0	n/a	n/a	0	2	Cue	Neutral	True
29.766	4.1	Control	1.0	0.0	Yes	2.584	0.0	n/a	GoodResponse	0	n/a	n/a	0	2	Fixation	Neutral	True
33.864	0.38	Control	1.0	0.002	Yes	2.584	-0.002	4.0	GoodResponse	0	0.172	33.036	0	2	Target	Neutral	True
34.036	0.3	Control	1.0	0.002	Yes	2.584	-0.002	4.0	GoodResponse	0	0.172	n/a	0	2	ButtonPress	Neutral	True
34.248	0.32	Control	1.0	n/a	Yes	2.584	n/a	n/a	GoodResponse	0	n/a	n/a	0	2	Blank	Neutral	True
34.564	1.45	Control	1.0	n/a	Yes	2.584	n/a	5.0	GoodResponse	0	0.044	33.608	0	2	Feedback	Neutral	True
36.014	2.584	Control	1.0	n/a	Yes	2.584	n/a	n/a	GoodResponse	0	0.0	n/a	0	2	ISIslide	Neutral	True
38.629	0.25	Win2	1.0	0.001	Yes	2.821	0.029	n/a	GoodResponse	1	n/a	n/a	1	3	Cue	Win	True
38.879	3.95	Win2	1.0	0.0	Yes	2.821	0.0	n/a	GoodResponse	1	n/a	n/a	1	3	Fixation	Win	True
42.828	0.37	Win2	1.0	0.001	Yes	2.821	-0.001	4.0	GoodResponse	1	0.235	42.063	1	3	Target	Win	True
43.063	0.3	Win2	1.0	0.001	Yes	2.821	-0.001	4.0	GoodResponse	1	0.235	n/a	1	3	ButtonPress	Win	True
43.194	0.33	Win2	1.0	n/a	Yes	2.821	n/a	n/a	GoodResponse	1	n/a	n/a	1	3	Blank	Win	True
43.528	1.45	Win2	1.0	n/a	Yes	2.821	n/a	5.0	GoodResponse	1	0.007	42.535	1	3	Feedback	Win	True
44.977	2.821	Win2	1.0	n/a	Yes	2.821	n/a	n/a	GoodResponse	1	0.0	n/a	1	3	ISIslide	Win	True
47.826	0.25	Win2	1.0	0.0	Yes	3.274	0.026	n/a	GoodResponse	1	n/a	n/a	2	4	Cue	Win	True
48.076	4.0	Win2	1.0	0.0	Yes	3.274	0.0	n/a	GoodResponse	1	n/a	n/a	2	4	Fixation	Win	True
52.075	0.36	Win2	1.0	0.001	Yes	3.274	-0.001	4.0	GoodResponse	1	0.241	51.316	2	4	Target	Win	True
52.316	0.3	Win2	1.0	0.001	Yes	3.274	-0.001	4.0	GoodResponse	1	0.241	n/a	2	4	ButtonPress	Win	True
52.441	0.34	Win2	1.0	n/a	Yes	3.274	n/a	n/a	GoodResponse	1	n/a	n/a	2	4	Blank	Win	True
52.774	1.45	Win2	1.0	n/a	Yes	3.274	n/a	5.0	GoodResponse	1	0.029	51.803	2	4	Feedback	Win	True
54.224	3.274	Win2	1.0	n/a	Yes	3.274	n/a	n/a	GoodResponse	1	0.0	n/a	2	4	ISIslide	Win	True
57.523	0.25	Win2	1.0	0.0	Yes	2.777	0.023	n/a	GoodResponse	1	n/a	n/a	3	5	Cue	Win	True
57.773	4.0	Win2	1.0	0.0	Yes	2.777	0.0	n/a	GoodResponse	1	n/a	n/a	3	5	Fixation	Win	True
61.771	0.35	Win2	1.0	0.002	Yes	2.777	-0.002	4.0	GoodResponse	1	0.217	60.988	3	5	Target	Win	True
61.988	0.3	Win2	1.0	0.002	Yes	2.777	-0.002	4.0	GoodResponse	1	0.217	n/a	3	5	ButtonPress	Win	True
62.121	0.35	Win2	1.0	n/a	Yes	2.777	n/a	n/a	GoodResponse	1	n/a	n/a	3	5	Blank	Win	True
62.471	1.45	Win2	1.0	n/a	Yes	2.777	n/a	5.0	GoodResponse	1	0.039	61.51	3	5	Feedback	Win	True
63.92	2.777	Win2	1.0	n/a	Yes	2.777	n/a	n/a	GoodResponse	1	0.0	n/a	3	5	ISIslide	Win	True
66.719	0.25	Lose2	0.8571	0.0	No	2.731	0.019	n/a	NoResponse	-1	n/a	n/a	2	6	Cue	Loss	True
66.969	3.95	Lose2	0.8571	0.0	No	2.731	0.0	4.0	NoResponse	-1	3.52	69.489	2	6	Fixation	Loss	True
70.489	0.3	Lose2	0.8571	0.0	No	2.731	0.0	4.0	NoResponse	-1	3.52	n/a	2	6	ButtonPress	Loss	True
70.918	0.34	Lose2	0.8571	0.001	No	2.731	-0.001	n/a	NoResponse	-1	n/a	n/a	2	6	Target	Loss	True
71.268	0.36	Lose2	0.8571	n/a	No	2.731	n/a	n/a	NoResponse	-1	n/a	n/a	2	6	Blank	Loss	True
71.618	1.45	Lose2	0.8571	n/a	No	2.731	n/a	5.0	NoResponse	-1	0.014	70.632	2	6	Feedback	Loss	True
73.067	2.731	Lose2	0.8571	n/a	No	2.731	n/a	n/a	NoResponse	-1	0.0	n/a	2	6	ISIslide	Loss	True
75.816	0.25	Lose2	0.875	0.0	Yes	4.034	0.016	n/a	GoodResponse	0	n/a	n/a	2	7	Cue	AvoidedLoss	True
76.066	4.05	Lose2	0.875	0.0	Yes	4.034	0.0	n/a	GoodResponse	0	n/a	n/a	2	7	Fixation	AvoidedLoss	True
80.115	0.33	Lose2	0.875	0.001	Yes	4.034	-0.001	4.0	GoodResponse	0	0.228	79.343	2	7	Target	AvoidedLoss	True
80.343	0.3	Lose2	0.875	0.001	Yes	4.034	-0.001	4.0	GoodResponse	0	0.228	n/a	2	7	ButtonPress	AvoidedLoss	True
80.448	0.37	Lose2	0.875	n/a	Yes	4.034	n/a	n/a	GoodResponse	0	n/a	n/a	2	7	Blank	AvoidedLoss	True
80.814	1.45	Lose2	0.875	n/a	Yes	4.034	n/a	5.0	GoodResponse	0	0.037	79.851	2	7	Feedback	AvoidedLoss	True
82.264	4.034	Lose2	0.875	n/a	Yes	4.034	n/a	n/a	GoodResponse	0	0.0	n/a	2	7	ISIslide	AvoidedLoss	True
86.329	0.25	Lose2	0.8889	0.0	Yes	3.021	0.029	n/a	GoodResponse	0	n/a	n/a	2	8	Cue	AvoidedLoss	True
86.579	3.95	Lose2	0.8889	0.0	Yes	3.021	0.0	n/a	GoodResponse	0	n/a	n/a	2	8	Fixation	AvoidedLoss	True
90.527	0.32	Lose2	0.8889	0.002	Yes	3.021	-0.002	4.0	GoodResponse	0	0.226	89.753	2	8	Target	AvoidedLoss	True
90.753	0.3	Lose2	0.8889	0.002	Yes	3.021	-0.002	4.0	GoodResponse	0	0.226	n/a	2	8	ButtonPress	AvoidedLoss	True
90.861	0.38	Lose2	0.8889	n/a	Yes	3.021	n/a	n/a	GoodResponse	0	n/a	n/a	2	8	Blank	AvoidedLoss	True
91.227	1.45	Lose2	0.8889	n/a	Yes	3.021	n/a	5.0	GoodResponse	0	0.014	90.241	2	8	Feedback	AvoidedLoss	True
92.677	3.021	Lose2	0.8889	n/a	Yes	3.021	n/a	n/a	GoodResponse	0	0.0	n/a	2	8	ISIslide	AvoidedLoss	True
95.726	0.25	Lose2	0.9	0.0	Yes	3.124	0.026	n/a	GoodResponse	0	n/a	n/a	2	9	Cue	AvoidedLoss	True
95.976	3.95	Lose2	0.9	0.0	Yes	3.124	0.0	n/a	GoodResponse	0	n/a	n/a	2	9	Fixation	AvoidedLoss	True
99.924	0.31	Lose2	0.9	0.002	Yes	3.124	-0.002	4.0	GoodResponse	0	0.216	99.14	2	9	Target	AvoidedLoss	True
100.14	0.3	Lose2	0.9	0.002	Yes	3.124	-0.002	4.0	GoodResponse	0	0.216	n/a	2	9	ButtonPress	AvoidedLoss	True
100.241	0.39	Lose2	0.9	n/a	Yes	3.124	n/a	n/a	GoodResponse	0	n/a	n/a	2	9	Blank	AvoidedLoss	True
100.624	1.45	Lose2	0.9	n/a	Yes	3.124	n/a	5.0	GoodResponse	0	0.032	99.656	2	9	Feedback	AvoidedLoss	True
102.073	3.124	Lose2	0.9	n/a	Yes	3.124	n/a	n/a	GoodResponse	0	0.0	n/a	2	9	ISIslide	AvoidedLoss	True
105.222	0.25	Control	0.9091	0.0	Yes	3.278	0.022	n/a	GoodResponse	0	n/a	n/a	2	10	Cue	Neutral	True
105.472	4.0	Control	0.9091	0.0	Yes	3.278	0.0	n/a	GoodResponse	0	n/a	n/a	2	10	Fixation	Neutral	True
109.471	0.3	Control	0.9091	0.001	Yes	3.278	-0.001	4.0	GoodResponse	0	0.206	108.677	2	10	Target	Neutral	True
109.677	0.3	Control	0.9091	0.001	Yes	3.278	-0.001	4.0	GoodResponse	0	0.206	n/a	2	10	ButtonPress	Neutral	True
109.771	0.4	Control	0.9091	n/a	Yes	3.278	n/a	n/a	GoodResponse	0	n/a	n/a	2	10	Blank	Neutral	True
110.17	1.45	Control	0.9091	n/a	Yes	3.278	n/a	5.0	GoodResponse	0	0.046	109.216	2	10	Feedback	Neutral	True
111.62	3.278	Control	0.9091	n/a	Yes	3.278	n/a	n/a	GoodResponse	0	0.0	n/a	2	10	ISIslide	Neutral	True
114.919	0.25	Lose2	0.9167000000000001	0.0	Yes	2.731	0.019	n/a	GoodResponse	0	n/a	n/a	2	11	Cue	AvoidedLoss	True
115.169	4.05	Lose2	0.9167000000000001	0.0	Yes	2.731	0.0	n/a	GoodResponse	0	n/a	n/a	2	11	Fixation	AvoidedLoss	True
119.217	0.29	Lose2	0.9167000000000001	0.002	Yes	2.731	-0.002	4.0	GoodResponse	0	0.256	118.473	2	11	Target	AvoidedLoss	True
119.473	0.3	Lose2	0.9167000000000001	0.002	Yes	2.731	-0.002	4.0	GoodResponse	0	0.256	n/a	2	11	ButtonPress	AvoidedLoss	True
119.517	0.41	Lose2	0.9167000000000001	n/a	Yes	2.731	n/a	n/a	GoodResponse	0	n/a	n/a	2	11	Blank	AvoidedLoss	True
119.917	1.45	Lose2	0.9167000000000001	n/a	Yes	2.731	n/a	5.0	GoodResponse	0	0.008	118.925	2	11	Feedback	AvoidedLoss	True
121.366	2.731	Lose2	0.9167000000000001	n/a	Yes	2.731	n/a	n/a	GoodResponse	0	0.0	n/a	2	11	ISIslide	AvoidedLoss	True
124.115	0.25	Control	0.8462000000000001	0.0	No	2.985	0.015	n/a	NoResponse	0	n/a	n/a	2	12	Cue	Neutral	True
124.365	3.9	Control	0.8462000000000001	0.0	No	2.985	0.0	n/a	NoResponse	0	n/a	n/a	2	12	Fixation	Neutral	True
128.264	0.28	Control	0.8462000000000001	0.001	No	2.985	-0.001	4.0	NoResponse	0	0.317	127.581	2	12	Target	Neutral	True
128.547	0.42	Control	0.8462000000000001	n/a	No	2.985	n/a	n/a	NoResponse	0	n/a	n/a	2	12	Blank	Neutral	True
128.581	0.3	Control	0.8462000000000001	0.001	No	2.985	-0.001	4.0	NoResponse	0	0.317	n/a	2	12	ButtonPress	Neutral	True
128.964	1.45	Control	0.8462000000000001	n/a	No	2.985	n/a	5.0	NoResponse	0	0.033	127.997	2	12	Feedback	Neutral	True
130.413	2.985	Control	0.8462000000000001	n/a	No	2.985	n/a	n/a	NoResponse	0	0.0	n/a	2	12	ISIslide	Neutral	True
133.429	0.25	Control	0.8571	0.0	Yes	2.771	0.029	n/a	GoodResponse	0	n/a	n/a	2	13	Cue	Neutral	True
133.679	4.0	Control	0.8571	0.0	Yes	2.771	0.0	n/a	GoodResponse	0	n/a	n/a	2	13	Fixation	Neutral	True
137.677	0.27	Control	0.8571	0.002	Yes	2.771	-0.002	4.0	GoodResponse	0	0.177	136.854	2	13	Target	Neutral	True
137.854	0.3	Control	0.8571	0.002	Yes	2.771	-0.002	4.0	GoodResponse	0	0.177	n/a	2	13	ButtonPress	Neutral	True
137.96	0.43	Control	0.8571	n/a	Yes	2.771	n/a	n/a	GoodResponse	0	n/a	n/a	2	13	Blank	Neutral	True
138.377	1.45	Control	0.8571	n/a	Yes	2.771	n/a	5.0	GoodResponse	0	0.035	137.412	2	13	Feedback	Neutral	True
139.826	2.771	Control	0.8571	n/a	Yes	2.771	n/a	n/a	GoodResponse	0	0.0	n/a	2	13	ISIslide	Neutral	True
142.625	0.25	Win2	0.8	0.001	No	2.675	0.025	n/a	NoResponse	0	n/a	n/a	2	14	Cue	MissedWin	True
142.875	4.1	Win2	0.8	0.0	No	2.675	0.0	4.0	NoResponse	0	4.066	145.941	2	14	Fixation	MissedWin	True
146.941	0.3	Win2	0.8	0.0	No	2.675	0.0	4.0	NoResponse	0	4.066	n/a	2	14	ButtonPress	MissedWin	True
146.974	0.26	Win2	0.8	0.001	No	2.675	-0.001	n/a	NoResponse	0	n/a	n/a	2	14	Target	MissedWin	True
147.24	0.44	Win2	0.8	n/a	No	2.675	n/a	n/a	NoResponse	0	n/a	n/a	2	14	Blank	MissedWin	True
147.674	1.45	Win2	0.8	n/a	No	2.675	n/a	5.0	NoResponse	0	0.006	146.68	2	14	Feedback	MissedWin	True
149.123	2.675	Win2	0.8	n/a	No	2.675	n/a	n/a	NoResponse	0	0.0	n/a	2	14	ISIslide	MissedWin	True
151.822	0.25	Control	0.75	0.0	No	2.978	0.022	n/a	NoResponse	0	n/a	n/a	2	15	Cue	Neutral	True
152.072	4.0	Control	0.75	0.0	No	2.978	0.0	n/a	NoResponse	0	n/a	n/a	2	15	Fixation	Neutral	True
156.071	0.25	Control	0.75	0.001	No	2.978	-0.001	4.0	NoResponse	0	0.277	155.348	2	15	Target	Neutral	True
156.321	0.45	Control	0.75	n/a	No	2.978	n/a	n/a	NoResponse	0	n/a	n/a	2	15	Blank	Neutral	True
156.348	0.3	Control	0.75	0.001	No	2.978	-0.001	4.0	NoResponse	0	0.277	n/a	2	15	ButtonPress	Neutral	True
156.77	1.45	Control	0.75	n/a	No	2.978	n/a	5.0	NoResponse	0	0.031	155.801	2	15	Feedback	Neutral	True
158.22	2.978	Control	0.75	n/a	No	2.978	n/a	n/a	NoResponse	0	0.0	n/a	2	15	ISIslide	Neutral	True
161.219	0.25	Win2	0.7646999999999999	0.0	Yes	2.881	0.019	n/a	GoodResponse	1	n/a	n/a	3	16	Cue	Win	True
161.469	4.0	Win2	0.7646999999999999	0.0	Yes	2.881	0.0	n/a	GoodResponse	1	n/a	n/a	3	16	Fixation	Win	True
165.467	0.24	Win2	0.7646999999999999	0.002	Yes	2.881	-0.002	4.0	GoodResponse	1	0.171	164.638	3	16	Target	Win	True
165.638	0.3	Win2	0.7646999999999999	0.002	Yes	2.881	-0.002	4.0	GoodResponse	1	0.171	n/a	3	16	ButtonPress	Win	True
165.717	0.46	Win2	0.7646999999999999	n/a	Yes	2.881	n/a	n/a	GoodResponse	1	n/a	n/a	3	16	Blank	Win	True
166.167	1.45	Win2	0.7646999999999999	n/a	Yes	2.881	n/a	5.0	GoodResponse	1	0.049	165.216	3	16	Feedback	Win	True
167.616	2.881	Win2	0.7646999999999999	n/a	Yes	2.881	n/a	n/a	GoodResponse	1	0.0	n/a	3	16	ISIslide	Win	True
170.515	0.25	Lose2	0.7222	0.001	No	2.735	0.015	n/a	NoResponse	-1	n/a	n/a	2	17	Cue	Loss	True
170.765	3.95	Lose2	0.7222	0.0	No	2.735	0.0	n/a	NoResponse	-1	n/a	n/a	2	17	Fixation	Loss	True
174.714	0.23	Lose2	0.7222	0.001	No	2.735	-0.001	4.0	NoResponse	-1	0.248	173.962	2	17	Target	Loss	True
174.947	0.47	Lose2	0.7222	n/a	No	2.735	n/a	n/a	NoResponse	-1	n/a	n/a	2	17	Blank	Loss	True
174.962	0.3	Lose2	0.7222	0.001	No	2.735	-0.001	4.0	NoResponse	-1	0.248	n/a	2	17	ButtonPress	Loss	True
175.414	1.45	Lose2	0.7222	n/a	No	2.735	n/a	5.0	NoResponse	-1	0.021	174.435	2	17	Feedback	Loss	True
176.863	2.735	Lose2	0.7222	n/a	No	2.735	n/a	n/a	NoResponse	-1	0.0	n/a	2	17	ISIslide	Loss	True
179.629	0.25	Lose2	0.7368000000000001	0.0	Yes	2.721	0.029	n/a	GoodResponse	0	n/a	n/a	2	18	Cue	AvoidedLoss	True
179.879	4.05	Lose2	0.7368000000000001	0.0	Yes	2.721	0.0	n/a	GoodResponse	0	n/a	n/a	2	18	Fixation	AvoidedLoss	True
183.927	0.22	Lose2	0.7368000000000001	0.002	Yes	2.721	-0.002	4.0	GoodResponse	0	0.192	183.119	2	18	Target	AvoidedLoss	True
184.119	0.3	Lose2	0.7368000000000001	0.002	Yes	2.721	-0.002	4.0	GoodResponse	0	0.192	n/a	2	18	ButtonPress	AvoidedLoss	True
184.161	0.48	Lose2	0.7368000000000001	n/a	Yes	2.721	n/a	n/a	GoodResponse	0	n/a	n/a	2	18	Blank	AvoidedLoss	True
184.627	1.45	Lose2	0.7368000000000001	n/a	Yes	2.721	n/a	5.0	GoodResponse	0	0.027	183.654	2	18	Feedback	AvoidedLoss	True
186.076	2.721	Lose2	0.7368000000000001	n/a	Yes	2.721	n/a	n/a	GoodResponse	0	0.0	n/a	2	18	ISIslide	AvoidedLoss	True
188.826	0.25	Control	0.75	0.0	Yes	2.924	0.026	n/a	GoodResponse	0	n/a	n/a	2	19	Cue	Neutral	True
189.075	3.95	Control	0.75	0.001	Yes	2.924	-0.001	n/a	GoodResponse	0	n/a	n/a	2	19	Fixation	Neutral	True
193.024	0.21	Control	0.75	0.002	Yes	2.924	-0.002	4.0	GoodResponse	0	0.195	192.219	2	19	Target	Neutral	True
193.219	0.3	Control	0.75	0.002	Yes	2.924	-0.002	4.0	GoodResponse	0	0.195	n/a	2	19	ButtonPress	Neutral	True
193.241	0.49	Control	0.75	n/a	Yes	2.924	n/a	n/a	GoodResponse	0	n/a	n/a	2	19	Blank	Neutral	True
193.724	1.45	Control	0.75	n/a	Yes	2.924	n/a	5.0	GoodResponse	0	0.007	192.731	2	19	Feedback	Neutral	True
195.173	2.924	Control	0.75	n/a	Yes	2.924	n/a	n/a	GoodResponse	0	0.0	n/a	2	19	ISIslide	Neutral	True
198.122	0.25	Control	0.7143	0.0	No	2.628	0.022	n/a	NoResponse	0	n/a	n/a	2	20	Cue	Neutral	True
198.372	4.05	Control	0.7143	0.0	No	2.628	0.0	n/a	NoResponse	0	n/a	n/a	2	20	Fixation	Neutral	True
202.421	0.2	Control	0.7143	0.001	No	2.628	-0.001	4.0	NoResponse	0	0.236	201.657	2	20	Target	Neutral	True
202.621	0.5	Control	0.7143	n/a	No	2.628	n/a	n/a	NoResponse	0	n/a	n/a	2	20	Blank	Neutral	True
202.657	0.3	Control	0.7143	0.001	No	2.628	-0.001	4.0	NoResponse	0	0.236	n/a	2	20	ButtonPress	Neutral	True
203.12	1.45	Control	0.7143	n/a	No	2.628	n/a	5.0	NoResponse	0	0.022	202.142	2	20	Feedback	Neutral	True
204.57	2.628	Control	0.7143	n/a	No	2.628	n/a	n/a	NoResponse	0	0.0	n/a	2	20	ISIslide	Neutral	True
207.219	0.25	Control	0.6818000000000001	0.0	No	2.781	0.019	n/a	NoResponse	0	n/a	n/a	2	21	Cue	Neutral	True
207.469	4.1	Control	0.6818000000000001	0.0	No	2.781	0.0	n/a	NoResponse	0	n/a	n/a	2	21	Fixation	Neutral	True
211.567	0.19	Control	0.6818000000000001	0.002	No	2.781	-0.002	4.0	NoResponse	0	0.208	210.775	2	21	Target	Neutral	True
211.767	0.51	Control	0.6818000000000001	n/a	No	2.781	n/a	n/a	NoResponse	0	n/a	n/a	2	21	Blank	Neutral	True
211.775	0.3	Control	0.6818000000000001	0.002	No	2.781	-0.002	4.0	NoResponse	0	0.208	n/a	2	21	ButtonPress	Neutral	True
212.267	1.45	Control	0.6818000000000001	n/a	No	2.781	n/a	5.0	NoResponse	0	0.045	211.312	2	21	Feedback	Neutral	True
213.717	2.781	Control	0.6818000000000001	n/a	No	2.781	n/a	n/a	NoResponse	0	0.0	n/a	2	21	ISIslide	Neutral	True
216.516	0.25	Control	0.6522	0.0	No	2.784	0.016	n/a	NoResponse	0	n/a	n/a	2	22	Cue	Neutral	True
216.765	4.0	Control	0.6522	0.001	No	2.784	-0.001	4.0	NoResponse	0	3.991	219.756	2	22	Fixation	Neutral	True
220.756	0.3	Control	0.6522	0.001	No	2.784	-0.001	4.0	NoResponse	0	3.991	n/a	2	22	ButtonPress	Neutral	True
220.764	0.18	Control	0.6522	0.002	No	2.784	-0.002	n/a	NoResponse	0	n/a	n/a	2	22	Target	Neutral	True
220.947	0.52	Control	0.6522	n/a	No	2.784	n/a	n/a	NoResponse	0	n/a	n/a	2	22	Blank	Neutral	True
221.464	1.45	Control	0.6522	n/a	No	2.784	n/a	5.0	NoResponse	0	0.019	220.483	2	22	Feedback	Neutral	True
222.913	2.784	Control	0.6522	n/a	No	2.784	n/a	n/a	NoResponse	0	0.0	n/a	2	22	ISIslide	Neutral	True
225.712	0.25	Control	0.625	0.0	No	2.788	0.012	n/a	NoResponse	0	n/a	n/a	2	23	Cue	Neutral	True
225.962	3.9	Control	0.625	0.0	No	2.788	0.0	n/a	NoResponse	0	n/a	n/a	2	23	Fixation	Neutral	True
229.861	0.19	Control	0.625	0.001	No	2.788	-0.001	4.0	NoResponse	0	0.257	229.118	2	23	Target	Neutral	True
230.061	0.51	Control	0.625	n/a	No	2.788	n/a	n/a	NoResponse	0	n/a	n/a	2	23	Blank	Neutral	True
230.118	0.3	Control	0.625	0.001	No	2.788	-0.001	4.0	NoResponse	0	0.257	n/a	2	23	ButtonPress	Neutral	True
230.561	1.45	Control	0.625	n/a	No	2.788	n/a	5.0	NoResponse	0	0.044	229.605	2	23	Feedback	Neutral	True
232.01	2.788	Control	0.625	n/a	No	2.788	n/a	n/a	NoResponse	0	0.0	n/a	2	23	ISIslide	Neutral	True
234.826	0.25	Win2	0.6	0.0	No	3.124	0.026	n/a	NoResponse	0	n/a	n/a	2	24	Cue	MissedWin	True
235.076	3.95	Win2	0.6	0.0	No	3.124	0.0	n/a	NoResponse	0	n/a	n/a	2	24	Fixation	MissedWin	True
239.024	0.2	Win2	0.6	0.002	No	3.124	-0.002	4.0	NoResponse	0	0.208	238.232	2	24	Target	MissedWin	True
239.224	0.5	Win2	0.6	n/a	No	3.124	n/a	n/a	NoResponse	0	n/a	n/a	2	24	Blank	MissedWin	True
239.232	0.3	Win2	0.6	0.002	No	3.124	-0.002	4.0	NoResponse	0	0.208	n/a	2	24	ButtonPress	MissedWin	True
239.724	1.45	Win2	0.6	n/a	No	3.124	n/a	5.0	NoResponse	0	0.007	238.731	2	24	Feedback	MissedWin	True
241.173	3.124	Win2	0.6	n/a	No	3.124	n/a	n/a	NoResponse	0	0.0	n/a	2	24	ISIslide	MissedWin	True
244.322	0.25	Win2	0.6154	0.0	Yes	3.078	0.022	n/a	GoodResponse	1	n/a	n/a	3	25	Cue	Win	True
244.572	4.0	Win2	0.6154	0.0	Yes	3.078	0.0	n/a	GoodResponse	1	n/a	n/a	3	25	Fixation	Win	True
248.571	0.21	Win2	0.6154	0.001	Yes	3.078	-0.001	4.0	GoodResponse	1	0.208	247.779	3	25	Target	Win	True
248.779	0.3	Win2	0.6154	0.001	Yes	3.078	-0.001	4.0	GoodResponse	1	0.208	n/a	3	25	ButtonPress	Win	True
248.787	0.49	Win2	0.6154	n/a	Yes	3.078	n/a	n/a	GoodResponse	1	n/a	n/a	3	25	Blank	Win	True
249.27	1.45	Win2	0.6154	n/a	Yes	3.078	n/a	5.0	GoodResponse	1	0.017	248.287	3	25	Feedback	Win	True
250.72	3.078	Win2	0.6154	n/a	Yes	3.078	n/a	n/a	GoodResponse	1	0.0	n/a	3	25	ISIslide	Win	True
253.819	0.25	Win2	0.6296	0.0	Yes	2.931	0.019	n/a	GoodResponse	1	n/a	n/a	4	26	Cue	Win	True
254.069	3.95	Win2	0.6296	0.0	Yes	2.931	0.0	n/a	GoodResponse	1	n/a	n/a	4	26	Fixation	Win	True
258.017	0.22	Win2	0.6296	0.002	Yes	2.931	-0.002	4.0	GoodResponse	1	0.216	257.233	4	26	Target	Win	True
258.233	0.3	Win2	0.6296	0.002	Yes	2.931	-0.002	4.0	GoodResponse	1	0.216	n/a	4	26	ButtonPress	Win	True
258.251	0.48	Win2	0.6296	n/a	Yes	2.931	n/a	n/a	GoodResponse	1	n/a	n/a	4	26	Blank	Win	True
258.717	1.45	Win2	0.6296	n/a	Yes	2.931	n/a	5.0	GoodResponse	1	0.034	257.751	4	26	Feedback	Win	True
260.167	2.931	Win2	0.6296	n/a	Yes	2.931	n/a	n/a	GoodResponse	1	0.0	n/a	4	26	ISIslide	Win	True
263.116	0.25	Lose2	0.6429	0.0	Yes	2.834	0.016	n/a	GoodResponse	0	n/a	n/a	4	27	Cue	AvoidedLoss	True
263.365	4.05	Lose2	0.6429	0.001	Yes	2.834	-0.001	n/a	GoodResponse	0	n/a	n/a	4	27	Fixation	AvoidedLoss	True
267.414	0.23	Lose2	0.6429	0.002	Yes	2.834	-0.002	4.0	GoodResponse	0	0.202	266.616	4	27	Target	AvoidedLoss	True
267.616	0.3	Lose2	0.6429	0.002	Yes	2.834	-0.002	4.0	GoodResponse	0	0.202	n/a	4	27	ButtonPress	AvoidedLoss	True
267.647	0.47	Lose2	0.6429	n/a	Yes	2.834	n/a	n/a	GoodResponse	0	n/a	n/a	4	27	Blank	AvoidedLoss	True
268.114	1.45	Lose2	0.6429	n/a	Yes	2.834	n/a	5.0	GoodResponse	0	0.002	267.116	4	27	Feedback	AvoidedLoss	True
269.563	2.834	Lose2	0.6429	n/a	Yes	2.834	n/a	n/a	GoodResponse	0	0.0	n/a	4	27	ISIslide	AvoidedLoss	True
272.429	0.25	Control	0.6207	0.0	No	2.821	0.029	n/a	NoResponse	0	n/a	n/a	4	28	Cue	Neutral	True
272.679	4.05	Control	0.6207	0.0	No	2.821	0.0	n/a	NoResponse	0	n/a	n/a	4	28	Fixation	Neutral	True
276.727	0.24	Control	0.6207	0.002	No	2.821	-0.002	4.0	NoResponse	0	0.257	275.984	4	28	Target	Neutral	True
276.977	0.46	Control	0.6207	n/a	No	2.821	n/a	n/a	NoResponse	0	n/a	n/a	4	28	Blank	Neutral	True
276.984	0.3	Control	0.6207	0.002	No	2.821	-0.002	4.0	NoResponse	0	0.257	n/a	4	28	ButtonPress	Neutral	True
277.427	1.45	Control	0.6207	n/a	No	2.821	n/a	5.0	NoResponse	0	0.007	276.434	4	28	Feedback	Neutral	True
278.876	2.821	Control	0.6207	n/a	No	2.821	n/a	n/a	NoResponse	0	0.0	n/a	4	28	ISIslide	Neutral	True
281.725	0.25	Lose2	0.6333	0.001	Yes	2.825	0.025	n/a	GoodResponse	0	n/a	n/a	4	29	Cue	AvoidedLoss	True
281.975	3.95	Lose2	0.6333	0.0	Yes	2.825	0.0	n/a	GoodResponse	0	n/a	n/a	4	29	Fixation	AvoidedLoss	True
285.924	0.25	Lose2	0.6333	0.001	Yes	2.825	-0.001	4.0	GoodResponse	0	0.203	285.127	4	29	Target	AvoidedLoss	True
286.127	0.3	Lose2	0.6333	0.001	Yes	2.825	-0.001	4.0	GoodResponse	0	0.203	n/a	4	29	ButtonPress	AvoidedLoss	True
286.174	0.45	Lose2	0.6333	n/a	Yes	2.825	n/a	n/a	GoodResponse	0	n/a	n/a	4	29	Blank	AvoidedLoss	True
286.624	1.45	Lose2	0.6333	n/a	Yes	2.825	n/a	5.0	GoodResponse	0	0.028	285.652	4	29	Feedback	AvoidedLoss	True
288.073	2.825	Lose2	0.6333	n/a	Yes	2.825	n/a	n/a	GoodResponse	0	0.0	n/a	4	29	ISIslide	AvoidedLoss	True
290.922	0.25	Win2	0.6452	0.0	Yes	2.778	0.022	n/a	GoodResponse	1	n/a	n/a	5	30	Cue	Win	True
291.172	3.9	Win2	0.6452	0.0	Yes	2.778	0.0	n/a	GoodResponse	1	n/a	n/a	5	30	Fixation	Win	True
295.071	0.26	Win2	0.6452	0.001	Yes	2.778	-0.001	4.0	GoodResponse	1	0.196	294.267	5	30	Target	Win	True
295.267	0.3	Win2	0.6452	0.001	Yes	2.778	-0.001	4.0	GoodResponse	1	0.196	n/a	5	30	ButtonPress	Win	True
295.337	0.44	Win2	0.6452	n/a	Yes	2.778	n/a	n/a	GoodResponse	1	n/a	n/a	5	30	Blank	Win	True
295.77	1.45	Win2	0.6452	n/a	Yes	2.778	n/a	5.0	GoodResponse	1	0.007	294.777	5	30	Feedback	Win	True
297.22	2.778	Win2	0.6452	n/a	Yes	2.778	n/a	n/a	GoodResponse	1	0.0	n/a	5	30	ISIslide	Win	True
300.019	0.25	Lose2	0.6562	0.0	Yes	2.831	0.019	n/a	GoodResponse	0	n/a	n/a	5	31	Cue	AvoidedLoss	True
300.269	4.05	Lose2	0.6562	0.0	Yes	2.831	0.0	n/a	GoodResponse	0	n/a	n/a	5	31	Fixation	AvoidedLoss	True
304.317	0.27	Lose2	0.6562	0.002	Yes	2.831	-0.002	4.0	GoodResponse	0	0.182	303.499	5	31	Target	AvoidedLoss	True
304.499	0.3	Lose2	0.6562	0.002	Yes	2.831	-0.002	4.0	GoodResponse	0	0.182	n/a	5	31	ButtonPress	AvoidedLoss	True
304.601	0.43	Lose2	0.6562	n/a	Yes	2.831	n/a	n/a	GoodResponse	0	n/a	n/a	5	31	Blank	AvoidedLoss	True
305.017	1.45	Lose2	0.6562	n/a	Yes	2.831	n/a	5.0	GoodResponse	0	0.026	304.043	5	31	Feedback	AvoidedLoss	True
306.467	2.831	Lose2	0.6562	n/a	Yes	2.831	n/a	n/a	GoodResponse	0	0.0	n/a	5	31	ISIslide	AvoidedLoss	True
309.316	0.25	Lose2	0.6667000000000001	0.0	Yes	2.634	0.016	n/a	GoodResponse	0	n/a	n/a	5	32	Cue	AvoidedLoss	True
309.565	4.15	Lose2	0.6667000000000001	0.001	Yes	2.634	-0.001	n/a	GoodResponse	0	n/a	n/a	5	32	Fixation	AvoidedLoss	True
313.714	0.27	Lose2	0.6667000000000001	0.002	Yes	2.634	-0.002	4.0	GoodResponse	0	0.262	312.976	5	32	Target	AvoidedLoss	True
313.976	0.3	Lose2	0.6667000000000001	0.002	Yes	2.634	-0.002	4.0	GoodResponse	0	0.262	n/a	5	32	ButtonPress	AvoidedLoss	True
313.997	0.43	Lose2	0.6667000000000001	n/a	Yes	2.634	n/a	n/a	GoodResponse	0	n/a	n/a	5	32	Blank	AvoidedLoss	True
314.414	1.45	Lose2	0.6667000000000001	n/a	Yes	2.634	n/a	5.0	GoodResponse	0	0.043	313.457	5	32	Feedback	AvoidedLoss	True
315.863	2.634	Lose2	0.6667000000000001	n/a	Yes	2.634	n/a	n/a	GoodResponse	0	0.0	n/a	5	32	ISIslide	AvoidedLoss	True
318.529	0.25	Win2	0.6765000000000001	0.0	Yes	2.671	0.029	n/a	GoodResponse	1	n/a	n/a	6	33	Cue	Win	True
318.779	4.0	Win2	0.6765000000000001	0.0	Yes	2.671	0.0	n/a	GoodResponse	1	n/a	n/a	6	33	Fixation	Win	True
322.777	0.26	Win2	0.6765000000000001	0.002	Yes	2.671	-0.002	4.0	GoodResponse	1	0.228	322.005	6	33	Target	Win	True
323.005	0.3	Win2	0.6765000000000001	0.002	Yes	2.671	-0.002	4.0	GoodResponse	1	0.228	n/a	6	33	ButtonPress	Win	True
323.044	0.44	Win2	0.6765000000000001	n/a	Yes	2.671	n/a	n/a	GoodResponse	1	n/a	n/a	6	33	Blank	Win	True
323.477	1.45	Win2	0.6765000000000001	n/a	Yes	2.671	n/a	5.0	GoodResponse	1	0.007	322.484	6	33	Feedback	Win	True
324.927	2.671	Win2	0.6765000000000001	n/a	Yes	2.671	n/a	n/a	GoodResponse	1	0.0	n/a	6	33	ISIslide	Win	True
327.626	0.25	Lose2	0.6857	0.0	Yes	2.624	0.026	n/a	GoodResponse	0	n/a	n/a	6	34	Cue	AvoidedLoss	True
327.876	4.05	Lose2	0.6857	0.0	Yes	2.624	0.0	n/a	GoodResponse	0	n/a	n/a	6	34	Fixation	AvoidedLoss	True
331.924	0.25	Lose2	0.6857	0.002	Yes	2.624	-0.002	4.0	GoodResponse	0	0.221	331.145	6	34	Target	AvoidedLoss	True
332.145	0.3	Lose2	0.6857	0.002	Yes	2.624	-0.002	4.0	GoodResponse	0	0.221	n/a	6	34	ButtonPress	AvoidedLoss	True
332.174	0.45	Lose2	0.6857	n/a	Yes	2.624	n/a	n/a	GoodResponse	0	n/a	n/a	6	34	Blank	AvoidedLoss	True
332.624	1.45	Lose2	0.6857	n/a	Yes	2.624	n/a	5.0	GoodResponse	0	0.028	331.652	6	34	Feedback	AvoidedLoss	True
334.073	2.624	Lose2	0.6857	n/a	Yes	2.624	n/a	n/a	GoodResponse	0	0.0	n/a	6	34	ISIslide	AvoidedLoss	True
336.722	0.25	Lose2	0.6944	0.001	Yes	2.678	0.022	n/a	GoodResponse	0	n/a	n/a	6	35	Cue	AvoidedLoss	True
336.972	4.0	Lose2	0.6944	0.0	Yes	2.678	0.0	n/a	GoodResponse	0	n/a	n/a	6	35	Fixation	AvoidedLoss	True
340.971	0.24	Lose2	0.6944	0.001	Yes	2.678	-0.001	4.0	GoodResponse	0	0.1	340.071	6	35	Target	AvoidedLoss	True
341.071	0.3	Lose2	0.6944	0.001	Yes	2.678	-0.001	4.0	GoodResponse	0	0.1	n/a	6	35	ButtonPress	AvoidedLoss	True
341.221	0.46	Lose2	0.6944	n/a	Yes	2.678	n/a	n/a	GoodResponse	0	n/a	n/a	6	35	Blank	AvoidedLoss	True
341.671	1.45	Lose2	0.6944	n/a	Yes	2.678	n/a	5.0	GoodResponse	0	0.006	340.677	6	35	Feedback	AvoidedLoss	True
343.12	2.678	Lose2	0.6944	n/a	Yes	2.678	n/a	n/a	GoodResponse	0	0.0	n/a	6	35	ISIslide	AvoidedLoss	True
345.819	0.25	Control	0.6757	0.0	No	2.681	0.019	n/a	NoResponse	0	n/a	n/a	6	36	Cue	Neutral	False
346.069	4.0	Control	0.6757	0.0	No	2.681	0.0	n/a	NoResponse	0	n/a	n/a	6	36	Fixation	Neutral	False
350.068	0.23	Control	0.6757	0.001	No	2.681	-0.001	n/a	NoResponse	0	n/a	n/a	6	36	Target	Neutral	False
350.301	0.47	Control	0.6757	n/a	No	2.681	n/a	n/a	NoResponse	0	n/a	n/a	6	36	Blank	Neutral	False
350.767	1.45	Control	0.6757	n/a	No	2.681	n/a	5.0	NoResponse	0	0.03	349.797	6	36	Feedback	Neutral	False
352.217	2.681	Control	0.6757	n/a	No	2.681	n/a	n/a	NoResponse	0	0.0	n/a	6	36	ISIslide	Neutral	False
354.916	0.25	Win2	0.6842	0.0	Yes	2.884	0.016	n/a	GoodResponse	1	n/a	n/a	7	37	Cue	Win	True
355.166	4.0	Win2	0.6842	0.0	Yes	2.884	0.0	n/a	GoodResponse	1	n/a	n/a	7	37	Fixation	Win	True
359.164	0.22	Win2	0.6842	0.002	Yes	2.884	-0.002	4.0	GoodResponse	1	0.201	358.365	7	37	Target	Win	True
359.365	0.3	Win2	0.6842	0.002	Yes	2.884	-0.002	4.0	GoodResponse	1	0.201	n/a	7	37	ButtonPress	Win	True
359.398	0.48	Win2	0.6842	n/a	Yes	2.884	n/a	n/a	GoodResponse	1	n/a	n/a	7	37	Blank	Win	True
359.864	1.45	Win2	0.6842	n/a	Yes	2.884	n/a	5.0	GoodResponse	1	0.007	358.871	7	37	Feedback	Win	True
361.314	2.884	Win2	0.6842	n/a	Yes	2.884	n/a	n/a	GoodResponse	1	0.0	n/a	7	37	ISIslide	Win	True
364.213	0.25	Lose2	0.6923	0.0	Yes	2.837	0.013	n/a	GoodResponse	0	n/a	n/a	7	38	Cue	AvoidedLoss	True
364.462	3.95	Lose2	0.6923	0.001	Yes	2.837	-0.001	n/a	GoodResponse	0	n/a	n/a	7	38	Fixation	AvoidedLoss	True
368.411	0.21	Lose2	0.6923	0.002	Yes	2.837	-0.002	4.0	GoodResponse	0	0.208	367.619	7	38	Target	AvoidedLoss	True
368.619	0.3	Lose2	0.6923	0.002	Yes	2.837	-0.002	4.0	GoodResponse	0	0.208	n/a	7	38	ButtonPress	AvoidedLoss	True
368.628	0.49	Lose2	0.6923	n/a	Yes	2.837	n/a	n/a	GoodResponse	0	n/a	n/a	7	38	Blank	AvoidedLoss	True
369.111	1.45	Lose2	0.6923	n/a	Yes	2.837	n/a	5.0	GoodResponse	0	0.028	368.139	7	38	Feedback	AvoidedLoss	True
370.56	2.837	Lose2	0.6923	n/a	Yes	2.837	n/a	n/a	GoodResponse	0	0.0	n/a	7	38	ISIslide	AvoidedLoss	True
373.426	0.25	Win2	0.675	0.0	No	2.974	0.026	n/a	NoResponse	0	n/a	n/a	7	39	Cue	MissedWin	True
373.676	4.1	Win2	0.675	0.0	No	2.974	0.0	n/a	NoResponse	0	n/a	n/a	7	39	Fixation	MissedWin	True
377.774	0.2	Win2	0.675	0.002	No	2.974	-0.002	4.0	NoResponse	0	0.218	376.992	7	39	Target	MissedWin	True
377.974	0.5	Win2	0.675	n/a	No	2.974	n/a	n/a	NoResponse	0	n/a	n/a	7	39	Blank	MissedWin	True
377.992	0.3	Win2	0.675	0.002	No	2.974	-0.002	4.0	NoResponse	0	0.218	n/a	7	39	ButtonPress	MissedWin	True
378.474	1.45	Win2	0.675	n/a	No	2.974	n/a	5.0	NoResponse	0	0.03	377.504	7	39	Feedback	MissedWin	True
379.924	2.974	Win2	0.675	n/a	No	2.974	n/a	n/a	NoResponse	0	0.0	n/a	7	39	ISIslide	MissedWin	True
382.922	0.25	Win2	0.6585	0.001	No	2.728	0.022	n/a	NoResponse	0	n/a	n/a	7	40	Cue	MissedWin	True
383.172	3.95	Win2	0.6585	0.0	No	2.728	0.0	n/a	NoResponse	0	n/a	n/a	7	40	Fixation	MissedWin	True
387.121	0.19	Win2	0.6585	0.001	No	2.728	-0.001	4.0	NoResponse	0	0.252	386.373	7	40	Target	MissedWin	True
387.321	0.51	Win2	0.6585	n/a	No	2.728	n/a	n/a	NoResponse	0	n/a	n/a	7	40	Blank	MissedWin	True
387.373	0.3	Win2	0.6585	0.001	No	2.728	-0.001	4.0	NoResponse	0	0.252	n/a	7	40	ButtonPress	MissedWin	True
387.821	1.45	Win2	0.6585	n/a	No	2.728	n/a	5.0	NoResponse	0	0.0	386.821	7	40	Feedback	MissedWin	True
389.27	2.728	Win2	0.6585	n/a	No	2.728	n/a	n/a	NoResponse	0	0.0	n/a	7	40	ISIslide	MissedWin	True
392.019	0.25	Win2	0.6429	0.0	No	2.781	0.019	n/a	NoResponse	0	n/a	n/a	7	41	Cue	MissedWin	True
392.269	3.9	Win2	0.6429	0.0	No	2.781	0.0	n/a	NoResponse	0	n/a	n/a	7	41	Fixation	MissedWin	True
396.168	0.19	Win2	0.6429	0.001	No	2.781	-0.001	4.0	NoResponse	0	0.205	395.373	7	41	Target	MissedWin	True
396.368	0.51	Win2	0.6429	n/a	No	2.781	n/a	n/a	NoResponse	0	n/a	n/a	7	41	Blank	MissedWin	True
396.373	0.3	Win2	0.6429	0.001	No	2.781	-0.001	4.0	NoResponse	0	0.205	n/a	7	41	ButtonPress	MissedWin	True
396.867	1.45	Win2	0.6429	n/a	No	2.781	n/a	5.0	NoResponse	0	0.028	395.895	7	41	Feedback	MissedWin	True
398.317	2.781	Win2	0.6429	n/a	No	2.781	n/a	n/a	NoResponse	0	0.0	n/a	7	41	ISIslide	MissedWin	True
401.116	0.25	Control	0.6279	0.0	No	2.934	0.016	n/a	NoResponse	0	n/a	n/a	7	42	Cue	Neutral	False
401.366	3.85	Control	0.6279	0.0	No	2.934	0.0	n/a	NoResponse	0	n/a	n/a	7	42	Fixation	Neutral	False
405.214	0.2	Control	0.6279	0.002	No	2.934	-0.002	n/a	NoResponse	0	n/a	n/a	7	42	Target	Neutral	False
405.414	0.5	Control	0.6279	n/a	No	2.934	n/a	n/a	NoResponse	0	n/a	n/a	7	42	Blank	Neutral	False
405.914	1.45	Control	0.6279	n/a	No	2.934	n/a	5.0	NoResponse	0	0.006	404.92	7	42	Feedback	Neutral	False
407.364	2.934	Control	0.6279	n/a	No	2.934	n/a	n/a	NoResponse	0	0.0	n/a	7	42	ISIslide	Neutral	False
410.313	0.25	Win2	0.6364	0.0	Yes	3.187	0.013	n/a	GoodResponse	1	n/a	n/a	8	43	Cue	Win	True
410.563	4.0	Win2	0.6364	0.0	Yes	3.187	0.0	n/a	GoodResponse	1	n/a	n/a	8	43	Fixation	Win	True
414.561	0.21	Win2	0.6364	0.002	Yes	3.187	-0.002	4.0	GoodResponse	1	0.181	413.742	8	43	Target	Win	True
414.742	0.3	Win2	0.6364	0.002	Yes	3.187	-0.002	4.0	GoodResponse	1	0.181	n/a	8	43	ButtonPress	Win	True
414.778	0.49	Win2	0.6364	n/a	Yes	3.187	n/a	n/a	GoodResponse	1	n/a	n/a	8	43	Blank	Win	True
415.261	1.45	Win2	0.6364	n/a	Yes	3.187	n/a	5.0	GoodResponse	1	0.023	414.284	8	43	Feedback	Win	True
416.71	3.187	Win2	0.6364	n/a	Yes	3.187	n/a	n/a	GoodResponse	1	0.0	n/a	8	43	ISIslide	Win	True
419.926	0.25	Win2	0.6444	0.0	Yes	2.974	0.026	n/a	GoodResponse	1	n/a	n/a	9	44	Cue	Win	True
420.176	4.0	Win2	0.6444	0.0	Yes	2.974	0.0	n/a	GoodResponse	1	n/a	n/a	9	44	Fixation	Win	True
424.174	0.22	Win2	0.6444	0.002	Yes	2.974	-0.002	4.0	GoodResponse	1	0.219	423.393	9	44	Target	Win	True
424.393	0.3	Win2	0.6444	0.002	Yes	2.974	-0.002	4.0	GoodResponse	1	0.219	n/a	9	44	ButtonPress	Win	True
424.408	0.48	Win2	0.6444	n/a	Yes	2.974	n/a	n/a	GoodResponse	1	n/a	n/a	9	44	Blank	Win	True
424.874	1.45	Win2	0.6444	n/a	Yes	2.974	n/a	5.0	GoodResponse	1	0.02	423.894	9	44	Feedback	Win	True
426.324	2.974	Win2	0.6444	n/a	Yes	2.974	n/a	n/a	GoodResponse	1	0.0	n/a	9	44	ISIslide	Win	True
429.322	0.25	Control	0.6304	0.001	No	2.878	0.022	n/a	NoResponse	0	n/a	n/a	9	45	Cue	Neutral	False
429.572	4.1	Control	0.6304	0.0	No	2.878	0.0	n/a	NoResponse	0	n/a	n/a	9	45	Fixation	Neutral	False
433.671	0.23	Control	0.6304	0.001	No	2.878	-0.001	n/a	NoResponse	0	n/a	n/a	9	45	Target	Neutral	False
433.904	0.47	Control	0.6304	n/a	No	2.878	n/a	n/a	NoResponse	0	n/a	n/a	9	45	Blank	Neutral	False
434.371	1.45	Control	0.6304	n/a	No	2.878	n/a	5.0	NoResponse	0	0.035	433.406	9	45	Feedback	Neutral	False
435.82	2.878	Control	0.6304	n/a	No	2.878	n/a	n/a	NoResponse	0	0.0	n/a	9	45	ISIslide	Neutral	False
438.719	0.25	Lose2	0.617	0.0	No	3.381	0.019	n/a	NoResponse	-1	n/a	n/a	8	46	Cue	Loss	True
438.969	4.0	Lose2	0.617	0.0	No	3.381	0.0	n/a	NoResponse	-1	n/a	n/a	8	46	Fixation	Loss	True
442.968	0.24	Lose2	0.617	0.001	No	3.381	-0.001	4.0	NoResponse	-1	0.273	442.241	8	46	Target	Loss	True
443.217	0.46	Lose2	0.617	n/a	No	3.381	n/a	n/a	NoResponse	-1	n/a	n/a	8	46	Blank	Loss	True
443.241	0.3	Lose2	0.617	0.001	No	3.381	-0.001	4.0	NoResponse	-1	0.273	n/a	8	46	ButtonPress	Loss	True
443.667	1.45	Lose2	0.617	n/a	No	3.381	n/a	5.0	NoResponse	-1	0.007	442.674	8	46	Feedback	Loss	True
445.117	3.381	Lose2	0.617	n/a	No	3.381	n/a	n/a	NoResponse	-1	0.0	n/a	8	46	ISIslide	Loss	True
448.516	0.25	Lose2	0.625	0.0	Yes	2.684	0.016	n/a	GoodResponse	0	n/a	n/a	8	47	Cue	AvoidedLoss	True
448.765	4.0	Lose2	0.625	0.001	Yes	2.684	-0.001	n/a	GoodResponse	0	n/a	n/a	8	47	Fixation	AvoidedLoss	True
452.764	0.25	Lose2	0.625	0.002	Yes	2.684	-0.002	4.0	GoodResponse	0	0.174	451.938	8	47	Target	AvoidedLoss	True
452.938	0.3	Lose2	0.625	0.002	Yes	2.684	-0.002	4.0	GoodResponse	0	0.174	n/a	8	47	ButtonPress	AvoidedLoss	True
453.014	0.45	Lose2	0.625	n/a	Yes	2.684	n/a	n/a	GoodResponse	0	n/a	n/a	8	47	Blank	AvoidedLoss	True
453.464	1.45	Lose2	0.625	n/a	Yes	2.684	n/a	5.0	GoodResponse	0	0.015	452.479	8	47	Feedback	AvoidedLoss	True
454.913	2.684	Lose2	0.625	n/a	Yes	2.684	n/a	n/a	GoodResponse	0	0.0	n/a	8	47	ISIslide	AvoidedLoss	True
457.612	0.25	Lose2	0.6327	0.0	Yes	3.038	0.012	n/a	GoodResponse	0	n/a	n/a	8	48	Cue	AvoidedLoss	True
457.862	3.95	Lose2	0.6327	0.0	Yes	3.038	0.0	n/a	GoodResponse	0	n/a	n/a	8	48	Fixation	AvoidedLoss	True
461.811	0.26	Lose2	0.6327	0.001	Yes	3.038	-0.001	4.0	GoodResponse	0	0.189	461.0	8	48	Target	AvoidedLoss	True
462	0.3	Lose2	0.6327	0.001	Yes	3.038	-0.001	4.0	GoodResponse	0	0.189	n/a	8	48	ButtonPress	AvoidedLoss	True
462.077	0.44	Lose2	0.6327	n/a	Yes	3.038	n/a	n/a	GoodResponse	0	n/a	n/a	8	48	Blank	AvoidedLoss	True
462.511	1.45	Lose2	0.6327	n/a	Yes	3.038	n/a	5.0	GoodResponse	0	0.041	461.552	8	48	Feedback	AvoidedLoss	True
463.96	3.038	Lose2	0.6327	n/a	Yes	3.038	n/a	n/a	GoodResponse	0	0.0	n/a	8	48	ISIslide	AvoidedLoss	True
467.026	0.25	Control	0.62	0.0	No	2.874	0.026	n/a	NoResponse	0	n/a	n/a	8	49	Cue	Neutral	False
467.276	4.0	Control	0.62	0.0	No	2.874	0.0	n/a	NoResponse	0	n/a	n/a	8	49	Fixation	Neutral	False
471.274	0.27	Control	0.62	0.002	No	2.874	-0.002	n/a	NoResponse	0	n/a	n/a	8	49	Target	Neutral	False
471.557	0.43	Control	0.62	n/a	No	2.874	n/a	n/a	NoResponse	0	n/a	n/a	8	49	Blank	Neutral	False
471.974	1.45	Control	0.62	n/a	No	2.874	n/a	5.0	NoResponse	0	0.042	471.016	8	49	Feedback	Neutral	False
473.423	2.874	Control	0.62	n/a	No	2.874	n/a	n/a	NoResponse	0	0.0	n/a	8	49	ISIslide	Neutral	False
476.322	0.25	Control	0.6078	0.0	No	2.778	0.022	n/a	NoResponse	0	n/a	n/a	8	50	Cue	Neutral	False
476.572	4.0	Control	0.6078	0.0	No	2.778	0.0	n/a	NoResponse	0	n/a	n/a	8	50	Fixation	Neutral	False
480.571	0.28	Control	0.6078	0.001	No	2.778	-0.001	n/a	NoResponse	0	n/a	n/a	8	50	Target	Neutral	False
480.854	0.42	Control	0.6078	n/a	No	2.778	n/a	n/a	NoResponse	0	n/a	n/a	8	50	Blank	Neutral	False
481.27	1.45	Control	0.6078	n/a	No	2.778	n/a	5.0	NoResponse	0	0.013	480.283	8	50	Feedback	Neutral	False
482.72	2.778	Control	0.6078	n/a	No	2.778	n/a	n/a	NoResponse	0	0.0	n/a	8	50	ISIslide	Neutral	False
485.519	0.25	Control	0.5962	0.0	No	2.731	0.019	n/a	NoResponse	0	n/a	n/a	8	51	Cue	Neutral	False
485.769	3.95	Control	0.5962	0.0	No	2.731	0.0	n/a	NoResponse	0	n/a	n/a	8	51	Fixation	Neutral	False
489.717	0.29	Control	0.5962	0.002	No	2.731	-0.002	n/a	NoResponse	0	n/a	n/a	8	51	Target	Neutral	False
490.017	0.41	Control	0.5962	n/a	No	2.731	n/a	n/a	NoResponse	0	n/a	n/a	8	51	Blank	Neutral	False
490.417	1.45	Control	0.5962	n/a	No	2.731	n/a	5.0	NoResponse	0	0.037	489.454	8	51	Feedback	Neutral	False
491.867	2.731	Control	0.5962	n/a	No	2.731	n/a	n/a	NoResponse	0	0.0	n/a	8	51	ISIslide	Neutral	False
494.616	0.25	Control	0.5849	0.0	No	2.634	0.016	n/a	NoResponse	0	n/a	n/a	8	52	Cue	Neutral	False
494.866	4.05	Control	0.5849	0.0	No	2.634	0.0	n/a	NoResponse	0	n/a	n/a	8	52	Fixation	Neutral	False
498.914	0.3	Control	0.5849	0.002	No	2.634	-0.002	n/a	NoResponse	0	n/a	n/a	8	52	Target	Neutral	False
499.214	0.4	Control	0.5849	n/a	No	2.634	n/a	n/a	NoResponse	0	n/a	n/a	8	52	Blank	Neutral	False
499.614	1.45	Control	0.5849	n/a	No	2.634	n/a	5.0	NoResponse	0	0.011	498.625	8	52	Feedback	Neutral	False
501.063	2.634	Control	0.5849	n/a	No	2.634	n/a	n/a	NoResponse	0	0.0	n/a	8	52	ISIslide	Neutral	False
503.729	0.25	Win2	0.5740999999999999	0.0	No	2.921	0.029	n/a	NoResponse	0	n/a	n/a	8	53	Cue	MissedWin	True
503.979	4.05	Win2	0.5740999999999999	0.0	No	2.921	0.0	4.0	NoResponse	0	4.021	507.0	8	53	Fixation	MissedWin	True
508	0.3	Win2	0.5740999999999999	0.0	No	2.921	0.0	4.0	NoResponse	0	4.021	n/a	8	53	ButtonPress	MissedWin	True
508.028	0.31	Win2	0.5740999999999999	0.001	No	2.921	-0.001	n/a	NoResponse	0	n/a	n/a	8	53	Target	MissedWin	True
508.344	0.39	Win2	0.5740999999999999	n/a	No	2.921	n/a	n/a	NoResponse	0	n/a	n/a	8	53	Blank	MissedWin	True
508.727	1.45	Win2	0.5740999999999999	n/a	No	2.921	n/a	5.0	NoResponse	0	0.02	507.747	8	53	Feedback	MissedWin	True
510.177	2.921	Win2	0.5740999999999999	n/a	No	2.921	n/a	n/a	NoResponse	0	0.0	n/a	8	53	ISIslide	MissedWin	True
513.126	0.25	Win2	0.5818	0.0	Yes	2.724	0.026	n/a	GoodResponse	1	n/a	n/a	9	54	Cue	Win	True
513.376	3.95	Win2	0.5818	0.0	Yes	2.724	0.0	n/a	GoodResponse	1	n/a	n/a	9	54	Fixation	Win	True
517.324	0.32	Win2	0.5818	0.002	Yes	2.724	-0.002	4.0	GoodResponse	1	0.318	516.642	9	54	Target	Win	True
517.642	0.3	Win2	0.5818	0.002	Yes	2.724	-0.002	4.0	GoodResponse	1	0.318	n/a	9	54	ButtonPress	Win	True
517.657	0.38	Win2	0.5818	n/a	Yes	2.724	n/a	n/a	GoodResponse	1	n/a	n/a	9	54	Blank	Win	True
518.024	1.45	Win2	0.5818	n/a	Yes	2.724	n/a	5.0	GoodResponse	1	0.039	517.063	9	54	Feedback	Win	True
519.473	2.724	Win2	0.5818	n/a	Yes	2.724	n/a	n/a	GoodResponse	1	0.0	n/a	9	54	ISIslide	Win	True
522.222	0.25	Control	0.5893	0.001	Yes	3.028	0.022	n/a	GoodResponse	0	n/a	n/a	9	55	Cue	Neutral	True
522.472	3.95	Control	0.5893	0.0	Yes	3.028	0.0	n/a	GoodResponse	0	n/a	n/a	9	55	Fixation	Neutral	True
526.421	0.33	Control	0.5893	0.001	Yes	3.028	-0.001	4.0	GoodResponse	0	0.219	525.64	9	55	Target	Neutral	True
526.64	0.3	Control	0.5893	0.001	Yes	3.028	-0.001	4.0	GoodResponse	0	0.219	n/a	9	55	ButtonPress	Neutral	True
526.754	0.37	Control	0.5893	n/a	Yes	3.028	n/a	n/a	GoodResponse	0	n/a	n/a	9	55	Blank	Neutral	True
527.121	1.45	Control	0.5893	n/a	Yes	3.028	n/a	5.0	GoodResponse	0	0.015	526.136	9	55	Feedback	Neutral	True
528.57	3.028	Control	0.5893	n/a	Yes	3.028	n/a	n/a	GoodResponse	0	0.0	n/a	9	55	ISIslide	Neutral	True
531.619	0.25	Control	0.5965	0.0	Yes	2.831	0.019	n/a	GoodResponse	0	n/a	n/a	9	56	Cue	Neutral	True
531.869	3.95	Control	0.5965	0.0	Yes	2.831	0.0	n/a	GoodResponse	0	n/a	n/a	9	56	Fixation	Neutral	True
535.818	0.34	Control	0.5965	0.001	Yes	2.831	-0.001	4.0	GoodResponse	0	0.203	535.021	9	56	Target	Neutral	True
536.021	0.3	Control	0.5965	0.001	Yes	2.831	-0.001	4.0	GoodResponse	0	0.203	n/a	9	56	ButtonPress	Neutral	True
536.167	0.36	Control	0.5965	n/a	Yes	2.831	n/a	n/a	GoodResponse	0	n/a	n/a	9	56	Blank	Neutral	True
536.517	1.45	Control	0.5965	n/a	Yes	2.831	n/a	5.0	GoodResponse	0	0.034	535.551	9	56	Feedback	Neutral	True
537.967	2.831	Control	0.5965	n/a	Yes	2.831	n/a	n/a	GoodResponse	0	0.0	n/a	9	56	ISIslide	Neutral	True
540.816	0.25	Control	0.6034	0.0	Yes	3.484	0.016	n/a	GoodResponse	0	n/a	n/a	9	57	Cue	Neutral	True
541.066	4.0	Control	0.6034	0.0	Yes	3.484	0.0	n/a	GoodResponse	0	n/a	n/a	9	57	Fixation	Neutral	True
545.064	0.35	Control	0.6034	0.002	Yes	3.484	-0.002	4.0	GoodResponse	0	0.197	544.261	9	57	Target	Neutral	True
545.261	0.3	Control	0.6034	0.002	Yes	3.484	-0.002	4.0	GoodResponse	0	0.197	n/a	9	57	ButtonPress	Neutral	True
545.414	0.35	Control	0.6034	n/a	Yes	3.484	n/a	n/a	GoodResponse	0	n/a	n/a	9	57	Blank	Neutral	True
545.764	1.45	Control	0.6034	n/a	Yes	3.484	n/a	5.0	GoodResponse	0	0.006	544.77	9	57	Feedback	Neutral	True
547.213	3.484	Control	0.6034	n/a	Yes	3.484	n/a	n/a	GoodResponse	0	0.0	n/a	9	57	ISIslide	Neutral	True
550.712	0.25	Win2	0.6102000000000001	0.0	Yes	2.738	0.012	n/a	GoodResponse	1	n/a	n/a	10	58	Cue	Win	True
550.962	4.05	Win2	0.6102000000000001	0.0	Yes	2.738	0.0	n/a	GoodResponse	1	n/a	n/a	10	58	Fixation	Win	True
555.011	0.36	Win2	0.6102000000000001	0.001	Yes	2.738	-0.001	4.0	GoodResponse	1	0.221	554.232	10	58	Target	Win	True
555.232	0.3	Win2	0.6102000000000001	0.001	Yes	2.738	-0.001	4.0	GoodResponse	1	0.221	n/a	10	58	ButtonPress	Win	True
555.377	0.34	Win2	0.6102000000000001	n/a	Yes	2.738	n/a	n/a	GoodResponse	1	n/a	n/a	10	58	Blank	Win	True
555.71	1.45	Win2	0.6102000000000001	n/a	Yes	2.738	n/a	5.0	GoodResponse	1	0.011	554.721	10	58	Feedback	Win	True
557.16	2.738	Win2	0.6102000000000001	n/a	Yes	2.738	n/a	n/a	GoodResponse	1	0.0	n/a	10	58	ISIslide	Win	True
559.926	0.25	Lose2	0.6	0.0	No	2.674	0.026	n/a	NoResponse	-1	n/a	n/a	9	59	Cue	Loss	True
560.175	4.0	Lose2	0.6	0.001	No	2.674	-0.001	4.0	NoResponse	-1	3.933	563.108	9	59	Fixation	Loss	True
564.108	0.3	Lose2	0.6	0.001	No	2.674	-0.001	4.0	NoResponse	-1	3.933	n/a	9	59	ButtonPress	Loss	True
564.174	0.37	Lose2	0.6	0.002	No	2.674	-0.002	n/a	NoResponse	-1	n/a	n/a	9	59	Target	Loss	True
564.557	0.33	Lose2	0.6	n/a	No	2.674	n/a	n/a	NoResponse	-1	n/a	n/a	9	59	Blank	Loss	True
564.874	1.45	Lose2	0.6	n/a	No	2.674	n/a	5.0	NoResponse	-1	0.018	563.892	9	59	Feedback	Loss	True
566.323	2.674	Lose2	0.6	n/a	No	2.674	n/a	n/a	NoResponse	-1	0.0	n/a	9	59	ISIslide	Loss	True
569.022	0.25	Control	0.5902000000000001	0.0	No	2.678	0.022	n/a	NoResponse	0	n/a	n/a	9	60	Cue	Neutral	False
569.272	4.0	Control	0.5902000000000001	0.0	No	2.678	0.0	n/a	NoResponse	0	n/a	n/a	9	60	Fixation	Neutral	False
573.271	0.38	Control	0.5902000000000001	0.001	No	2.678	-0.001	n/a	NoResponse	0	n/a	n/a	9	60	Target	Neutral	False
573.654	0.32	Control	0.5902000000000001	n/a	No	2.678	n/a	n/a	NoResponse	0	n/a	n/a	9	60	Blank	Neutral	False
573.971	1.45	Control	0.5902000000000001	n/a	No	2.678	n/a	5.0	NoResponse	0	0.043	573.014	9	60	Feedback	Neutral	False
575.42	2.678	Control	0.5902000000000001	n/a	No	2.678	n/a	n/a	NoResponse	0	0.0	n/a	9	60	ISIslide	Neutral	False
578.119	0.25	Lose2	0.5968	0.0	Yes	2.981	0.019	n/a	GoodResponse	0	n/a	n/a	9	61	Cue	AvoidedLoss	True
578.369	4.0	Lose2	0.5968	0.0	Yes	2.981	0.0	n/a	GoodResponse	0	n/a	n/a	9	61	Fixation	AvoidedLoss	True
582.368	0.39	Lose2	0.5968	0.001	Yes	2.981	-0.001	4.0	GoodResponse	0	0.192	581.56	9	61	Target	AvoidedLoss	True
582.56	0.3	Lose2	0.5968	0.001	Yes	2.981	-0.001	4.0	GoodResponse	0	0.192	n/a	9	61	ButtonPress	AvoidedLoss	True
582.767	0.31	Lose2	0.5968	n/a	Yes	2.981	n/a	n/a	GoodResponse	0	n/a	n/a	9	61	Blank	AvoidedLoss	True
583.067	1.45	Lose2	0.5968	n/a	Yes	2.981	n/a	5.0	GoodResponse	0	0.019	582.086	9	61	Feedback	AvoidedLoss	True
584.517	2.981	Lose2	0.5968	n/a	Yes	2.981	n/a	n/a	GoodResponse	0	0.0	n/a	9	61	ISIslide	AvoidedLoss	True
587.516	0.25	Lose2	0.6032	0.0	Yes	2.884	0.016	n/a	GoodResponse	0	n/a	n/a	9	62	Cue	AvoidedLoss	True
587.766	3.9	Lose2	0.6032	0.0	Yes	2.884	0.0	n/a	GoodResponse	0	n/a	n/a	9	62	Fixation	AvoidedLoss	True
591.664	0.4	Lose2	0.6032	0.002	Yes	2.884	-0.002	4.0	GoodResponse	0	0.261	590.925	9	62	Target	AvoidedLoss	True
591.925	0.3	Lose2	0.6032	0.002	Yes	2.884	-0.002	4.0	GoodResponse	0	0.261	n/a	9	62	ButtonPress	AvoidedLoss	True
592.064	0.3	Lose2	0.6032	n/a	Yes	2.884	n/a	n/a	GoodResponse	0	n/a	n/a	9	62	Blank	AvoidedLoss	True
592.364	1.45	Lose2	0.6032	n/a	Yes	2.884	n/a	5.0	GoodResponse	0	0.039	591.403	9	62	Feedback	AvoidedLoss	True
593.813	2.884	Lose2	0.6032	n/a	Yes	2.884	n/a	n/a	GoodResponse	0	0.0	n/a	9	62	ISIslide	AvoidedLoss	True
596.712	0.25	Lose2	0.6093999999999999	0.0	Yes	2.638	0.012	n/a	GoodResponse	0	n/a	n/a	9	63	Cue	AvoidedLoss	True
596.962	4.05	Lose2	0.6093999999999999	0.0	Yes	2.638	0.0	n/a	GoodResponse	0	n/a	n/a	9	63	Fixation	AvoidedLoss	True
601.011	0.41	Lose2	0.6093999999999999	0.001	Yes	2.638	-0.001	4.0	GoodResponse	0	0.195	600.206	9	63	Target	AvoidedLoss	True
601.206	0.3	Lose2	0.6093999999999999	0.001	Yes	2.638	-0.001	4.0	GoodResponse	0	0.195	n/a	9	63	ButtonPress	AvoidedLoss	True
601.427	0.29	Lose2	0.6093999999999999	n/a	Yes	2.638	n/a	n/a	GoodResponse	0	n/a	n/a	9	63	Blank	AvoidedLoss	True
601.711	1.45	Lose2	0.6093999999999999	n/a	Yes	2.638	n/a	5.0	GoodResponse	0	0.009	600.72	9	63	Feedback	AvoidedLoss	True
603.16	2.638	Lose2	0.6093999999999999	n/a	Yes	2.638	n/a	n/a	GoodResponse	0	0.0	n/a	9	63	ISIslide	AvoidedLoss	True
605.826	0.25	Win2	0.6154	0.0	Yes	3.124	0.026	n/a	GoodResponse	1	n/a	n/a	10	64	Cue	Win	True
606.076	4.15	Win2	0.6154	0.0	Yes	3.124	0.0	n/a	GoodResponse	1	n/a	n/a	10	64	Fixation	Win	True
610.224	0.42	Win2	0.6154	0.002	Yes	3.124	-0.002	4.0	GoodResponse	1	0.178	609.402	10	64	Target	Win	True
610.402	0.3	Win2	0.6154	0.002	Yes	3.124	-0.002	4.0	GoodResponse	1	0.178	n/a	10	64	ButtonPress	Win	True
610.657	0.28	Win2	0.6154	n/a	Yes	3.124	n/a	n/a	GoodResponse	1	n/a	n/a	10	64	Blank	Win	True
610.924	1.45	Win2	0.6154	n/a	Yes	3.124	n/a	5.0	GoodResponse	1	0.015	609.939	10	64	Feedback	Win	True
612.373	3.124	Win2	0.6154	n/a	Yes	3.124	n/a	n/a	GoodResponse	1	0.0	n/a	10	64	ISIslide	Win	True
615.522	0.25	Control	0.6212	0.0	Yes	2.778	0.022	n/a	GoodResponse	0	n/a	n/a	10	65	Cue	Neutral	True
615.772	4.0	Control	0.6212	0.0	Yes	2.778	0.0	n/a	GoodResponse	0	n/a	n/a	10	65	Fixation	Neutral	True
619.771	0.43	Control	0.6212	0.001	Yes	2.778	-0.001	4.0	GoodResponse	0	0.225	618.996	10	65	Target	Neutral	True
619.996	0.3	Control	0.6212	0.001	Yes	2.778	-0.001	4.0	GoodResponse	0	0.225	n/a	10	65	ButtonPress	Neutral	True
620.204	0.27	Control	0.6212	n/a	Yes	2.778	n/a	n/a	GoodResponse	0	n/a	n/a	10	65	Blank	Neutral	True
620.47	1.45	Control	0.6212	n/a	Yes	2.778	n/a	5.0	GoodResponse	0	0.03	619.5	10	65	Feedback	Neutral	True
621.92	2.778	Control	0.6212	n/a	Yes	2.778	n/a	n/a	GoodResponse	0	0.0	n/a	10	65	ISIslide	Neutral	True
624.719	0.25	Win2	0.6269	0.0	Yes	2.781	0.019	n/a	GoodResponse	1	n/a	n/a	11	66	Cue	Win	True
624.969	3.9	Win2	0.6269	0.0	Yes	2.781	0.0	n/a	GoodResponse	1	n/a	n/a	11	66	Fixation	Win	True
628.867	0.44	Win2	0.6269	0.002	Yes	2.781	-0.002	4.0	GoodResponse	1	0.224	628.091	11	66	Target	Win	True
629.091	0.3	Win2	0.6269	0.002	Yes	2.781	-0.002	4.0	GoodResponse	1	0.224	n/a	11	66	ButtonPress	Win	True
629.317	0.26	Win2	0.6269	n/a	Yes	2.781	n/a	n/a	GoodResponse	1	n/a	n/a	11	66	Blank	Win	True
629.567	1.45	Win2	0.6269	n/a	Yes	2.781	n/a	5.0	GoodResponse	1	0.006	628.573	11	66	Feedback	Win	True
631.017	2.781	Win2	0.6269	n/a	Yes	2.781	n/a	n/a	GoodResponse	1	0.0	n/a	11	66	ISIslide	Win	True
633.816	0.25	Control	0.6324000000000001	0.0	Yes	2.734	0.016	n/a	GoodResponse	0	n/a	n/a	11	67	Cue	Neutral	True
634.066	3.95	Control	0.6324000000000001	0.0	Yes	2.734	0.0	n/a	GoodResponse	0	n/a	n/a	11	67	Fixation	Neutral	True
638.014	0.45	Control	0.6324000000000001	0.002	Yes	2.734	-0.002	4.0	GoodResponse	0	0.287	637.301	11	67	Target	Neutral	True
638.301	0.3	Control	0.6324000000000001	0.002	Yes	2.734	-0.002	4.0	GoodResponse	0	0.287	n/a	11	67	ButtonPress	Neutral	True
638.464	0.25	Control	0.6324000000000001	n/a	Yes	2.734	n/a	n/a	GoodResponse	0	n/a	n/a	11	67	Blank	Neutral	True
638.714	1.45	Control	0.6324000000000001	n/a	Yes	2.734	n/a	5.0	GoodResponse	0	0.03	637.744	11	67	Feedback	Neutral	True
640.163	2.734	Control	0.6324000000000001	n/a	Yes	2.734	n/a	n/a	GoodResponse	0	0.0	n/a	11	67	ISIslide	Neutral	True
642.912	0.25	Win2	0.6377	0.001	Yes	3.088	0.012	n/a	GoodResponse	1	n/a	n/a	12	68	Cue	Win	True
643.162	4.0	Win2	0.6377	0.0	Yes	3.088	0.0	n/a	GoodResponse	1	n/a	n/a	12	68	Fixation	Win	True
647.161	0.46	Win2	0.6377	0.001	Yes	3.088	-0.001	4.0	GoodResponse	1	0.164	646.325	12	68	Target	Win	True
647.325	0.3	Win2	0.6377	0.001	Yes	3.088	-0.001	4.0	GoodResponse	1	0.164	n/a	12	68	ButtonPress	Win	True
647.627	0.24	Win2	0.6377	n/a	Yes	3.088	n/a	n/a	GoodResponse	1	n/a	n/a	12	68	Blank	Win	True
647.861	1.45	Win2	0.6377	n/a	Yes	3.088	n/a	5.0	GoodResponse	1	0.004	646.865	12	68	Feedback	Win	True
649.31	3.088	Win2	0.6377	n/a	Yes	3.088	n/a	n/a	GoodResponse	1	0.0	n/a	12	68	ISIslide	Win	True
652.426	0.25	Win2	0.6429	0.0	Yes	3.224	0.026	n/a	GoodResponse	1	n/a	n/a	13	69	Cue	Win	True
652.676	3.95	Win2	0.6429	0.0	Yes	3.224	0.0	n/a	GoodResponse	1	n/a	n/a	13	69	Fixation	Win	True
656.624	0.47	Win2	0.6429	0.002	Yes	3.224	-0.002	4.0	GoodResponse	1	0.2	655.824	13	69	Target	Win	True
656.824	0.3	Win2	0.6429	0.002	Yes	3.224	-0.002	4.0	GoodResponse	1	0.2	n/a	13	69	ButtonPress	Win	True
657.107	0.23	Win2	0.6429	n/a	Yes	3.224	n/a	n/a	GoodResponse	1	n/a	n/a	13	69	Blank	Win	True
657.324	1.45	Win2	0.6429	n/a	Yes	3.224	n/a	5.0	GoodResponse	1	0.005	656.329	13	69	Feedback	Win	True
658.773	3.224	Win2	0.6429	n/a	Yes	3.224	n/a	n/a	GoodResponse	1	0.0	n/a	13	69	ISIslide	Win	True
662.022	0.25	Lose2	0.6479	0.0	Yes	3.028	0.022	n/a	GoodResponse	0	n/a	n/a	13	70	Cue	AvoidedLoss	True
662.272	4.05	Lose2	0.6479	0.0	Yes	3.028	0.0	n/a	GoodResponse	0	n/a	n/a	13	70	Fixation	AvoidedLoss	True
666.321	0.48	Lose2	0.6479	0.001	Yes	3.028	-0.001	4.0	GoodResponse	0	0.204	665.525	13	70	Target	AvoidedLoss	True
666.525	0.3	Lose2	0.6479	0.001	Yes	3.028	-0.001	4.0	GoodResponse	0	0.204	n/a	13	70	ButtonPress	AvoidedLoss	True
666.804	0.22	Lose2	0.6479	n/a	Yes	3.028	n/a	n/a	GoodResponse	0	n/a	n/a	13	70	Blank	AvoidedLoss	True
667.02	1.45	Lose2	0.6479	n/a	Yes	3.028	n/a	5.0	GoodResponse	0	0.016	666.036	13	70	Feedback	AvoidedLoss	True
668.47	3.028	Lose2	0.6479	n/a	Yes	3.028	n/a	n/a	GoodResponse	0	0.0	n/a	13	70	ISIslide	AvoidedLoss	True
671.519	0.25	Win2	0.6389	0.0	No	2.731	0.019	n/a	NoResponse	0	n/a	n/a	13	71	Cue	MissedWin	True
671.769	4.05	Win2	0.6389	0.0	No	2.731	0.0	4.0	NoResponse	0	4.035	674.804	13	71	Fixation	MissedWin	True
675.804	0.3	Win2	0.6389	0.0	No	2.731	0.0	4.0	NoResponse	0	4.035	n/a	13	71	ButtonPress	MissedWin	True
675.817	0.49	Win2	0.6389	0.002	No	2.731	-0.002	n/a	NoResponse	0	n/a	n/a	13	71	Target	MissedWin	True
676.317	0.21	Win2	0.6389	n/a	No	2.731	n/a	n/a	NoResponse	0	n/a	n/a	13	71	Blank	MissedWin	True
676.517	1.45	Win2	0.6389	n/a	No	2.731	n/a	5.0	NoResponse	0	0.031	675.548	13	71	Feedback	MissedWin	True
677.967	2.731	Win2	0.6389	n/a	No	2.731	n/a	n/a	NoResponse	0	0.0	n/a	13	71	ISIslide	MissedWin	True
680.716	0.25	Win2	0.6437999999999999	0.0	Yes	2.784	0.016	n/a	GoodResponse	1	n/a	n/a	14	72	Cue	Win	True
680.965	4.1	Win2	0.6437999999999999	0.001	Yes	2.784	-0.001	n/a	GoodResponse	1	n/a	n/a	14	72	Fixation	Win	True
685.064	0.5	Win2	0.6437999999999999	0.002	Yes	2.784	-0.002	4.0	GoodResponse	1	0.247	684.311	14	72	Target	Win	True
685.311	0.3	Win2	0.6437999999999999	0.002	Yes	2.784	-0.002	4.0	GoodResponse	1	0.247	n/a	14	72	ButtonPress	Win	True
685.564	0.2	Win2	0.6437999999999999	n/a	Yes	2.784	n/a	n/a	GoodResponse	1	n/a	n/a	14	72	Blank	Win	True
685.764	1.45	Win2	0.6437999999999999	n/a	Yes	2.784	n/a	5.0	GoodResponse	1	0.005	684.769	14	72	Feedback	Win	True
687.213	2.784	Win2	0.6437999999999999	n/a	Yes	2.784	n/a	n/a	GoodResponse	1	0.0	n/a	14	72	ISIslide	Win	True
690.012	0.25	Win2	0.6486	0.0	Yes	2.688	0.012	n/a	GoodResponse	1	n/a	n/a	15	73	Cue	Win	True
690.262	4.0	Win2	0.6486	0.0	Yes	2.688	0.0	n/a	GoodResponse	1	n/a	n/a	15	73	Fixation	Win	True
694.261	0.5	Win2	0.6486	0.001	Yes	2.688	-0.001	4.0	GoodResponse	1	0.213	693.474	15	73	Target	Win	True
694.474	0.3	Win2	0.6486	0.001	Yes	2.688	-0.001	4.0	GoodResponse	1	0.213	n/a	15	73	ButtonPress	Win	True
694.76	0.2	Win2	0.6486	n/a	Yes	2.688	n/a	n/a	GoodResponse	1	n/a	n/a	15	73	Blank	Win	True
694.96	1.45	Win2	0.6486	n/a	Yes	2.688	n/a	5.0	GoodResponse	1	0.027	693.987	15	73	Feedback	Win	True
696.41	2.688	Win2	0.6486	n/a	Yes	2.688	n/a	n/a	GoodResponse	1	0.0	n/a	15	73	ISIslide	Win	True
699.126	0.25	Lose2	0.6533	0.0	Yes	2.624	0.026	n/a	GoodResponse	0	n/a	n/a	15	74	Cue	AvoidedLoss	True
699.375	4.05	Lose2	0.6533	0.001	Yes	2.624	-0.001	n/a	GoodResponse	0	n/a	n/a	15	74	Fixation	AvoidedLoss	True
703.424	0.5	Lose2	0.6533	0.002	Yes	2.624	-0.002	4.0	GoodResponse	0	0.174	702.598	15	74	Target	AvoidedLoss	True
703.598	0.3	Lose2	0.6533	0.002	Yes	2.624	-0.002	4.0	GoodResponse	0	0.174	n/a	15	74	ButtonPress	AvoidedLoss	True
703.924	0.2	Lose2	0.6533	n/a	Yes	2.624	n/a	n/a	GoodResponse	0	n/a	n/a	15	74	Blank	AvoidedLoss	True
704.124	1.45	Lose2	0.6533	n/a	Yes	2.624	n/a	5.0	GoodResponse	0	0.034	703.158	15	74	Feedback	AvoidedLoss	True
705.573	2.624	Lose2	0.6533	n/a	Yes	2.624	n/a	n/a	GoodResponse	0	0.0	n/a	15	74	ISIslide	AvoidedLoss	True
708.222	0.25	Lose2	0.6579	0.0	Yes	2.928	0.022	n/a	GoodResponse	0	n/a	n/a	15	75	Cue	AvoidedLoss	True
708.472	3.95	Lose2	0.6579	0.0	Yes	2.928	0.0	n/a	GoodResponse	0	n/a	n/a	15	75	Fixation	AvoidedLoss	True
712.421	0.5	Lose2	0.6579	0.001	Yes	2.928	-0.001	4.0	GoodResponse	0	0.173	711.594	15	75	Target	AvoidedLoss	True
712.594	0.3	Lose2	0.6579	0.001	Yes	2.928	-0.001	4.0	GoodResponse	0	0.173	n/a	15	75	ButtonPress	AvoidedLoss	True
712.921	0.2	Lose2	0.6579	n/a	Yes	2.928	n/a	n/a	GoodResponse	0	n/a	n/a	15	75	Blank	AvoidedLoss	True
713.121	1.45	Lose2	0.6579	n/a	Yes	2.928	n/a	5.0	GoodResponse	0	0.011	712.132	15	75	Feedback	AvoidedLoss	True
714.57	2.928	Lose2	0.6579	n/a	Yes	2.928	n/a	n/a	GoodResponse	0	0.0	n/a	15	75	ISIslide	AvoidedLoss	True
717.519	0.25	Control	0.6623	0.0	Yes	3.231	0.019	n/a	GoodResponse	0	n/a	n/a	15	76	Cue	Neutral	True
717.769	4.05	Control	0.6623	0.0	Yes	3.231	0.0	n/a	GoodResponse	0	n/a	n/a	15	76	Fixation	Neutral	True
721.817	0.5	Control	0.6623	0.002	Yes	3.231	-0.002	4.0	GoodResponse	0	0.228	721.045	15	76	Target	Neutral	True
722.045	0.3	Control	0.6623	0.002	Yes	3.231	-0.002	4.0	GoodResponse	0	0.228	n/a	15	76	ButtonPress	Neutral	True
722.317	0.2	Control	0.6623	n/a	Yes	3.231	n/a	n/a	GoodResponse	0	n/a	n/a	15	76	Blank	Neutral	True
722.517	1.45	Control	0.6623	n/a	Yes	3.231	n/a	5.0	GoodResponse	0	0.03	721.547	15	76	Feedback	Neutral	True
723.967	3.231	Control	0.6623	n/a	Yes	3.231	n/a	n/a	GoodResponse	0	0.0	n/a	15	76	ISIslide	Neutral	True
727.215	0.25	Lose2	0.6667000000000001	0.001	Yes	2.585	0.015	n/a	GoodResponse	0	n/a	n/a	15	77	Cue	AvoidedLoss	True
727.465	3.95	Lose2	0.6667000000000001	0.0	Yes	2.585	0.0	n/a	GoodResponse	0	n/a	n/a	15	77	Fixation	AvoidedLoss	True
731.414	0.5	Lose2	0.6667000000000001	0.001	Yes	2.585	-0.001	4.0	GoodResponse	0	0.155	730.569	15	77	Target	AvoidedLoss	True
731.569	0.3	Lose2	0.6667000000000001	0.001	Yes	2.585	-0.001	4.0	GoodResponse	0	0.155	n/a	15	77	ButtonPress	AvoidedLoss	True
731.914	0.2	Lose2	0.6667000000000001	n/a	Yes	2.585	n/a	n/a	GoodResponse	0	n/a	n/a	15	77	Blank	AvoidedLoss	True
732.114	1.45	Lose2	0.6667000000000001	n/a	Yes	2.585	n/a	5.0	GoodResponse	0	0.043	731.157	15	77	Feedback	AvoidedLoss	True
733.563	2.585	Lose2	0.6667000000000001	n/a	Yes	2.585	n/a	n/a	GoodResponse	0	0.0	n/a	15	77	ISIslide	AvoidedLoss	True
