onset	duration	cue_type	current_mean_accuracy	duration_error	is_hit	isi_adjusted	onset_delay	response	response_type	reward	rt	rt_time	total_reward	trial_number	trial_phase	trial_type	one_press
11.103	0.25	Control	1.0	0.0	Yes	2.947	0.003	n/a	GoodResponse	0	n/a	n/a	0	0	Cue	Neutral	True
11.354	3.85	Control	1.0	0.0	Yes	2.947	0.001	n/a	GoodResponse	0	n/a	n/a	0	0	Fixation	Neutral	True
15.215	0.4	Control	1.0	0.0	Yes	2.947	0.012	3.0	GoodResponse	0	0.233	14.448	0	0	Target	Neutral	True
15.448	0.3	Control	1.0	0.0	Yes	2.947	0.012	3.0	GoodResponse	0	0.233	n/a	0	0	ButtonPress	Neutral	True
15.6	0.3	Control	1.0	n/a	Yes	2.947	n/a	n/a	GoodResponse	0	n/a	n/a	0	0	Blank	Neutral	True
15.9	1.45	Control	1.0	n/a	Yes	2.947	n/a	5.0	GoodResponse	0	0.026	14.926	0	0	Feedback	Neutral	True
17.355	2.947	Control	1.0	n/a	Yes	2.947	n/a	n/a	GoodResponse	0	0.0	n/a	0	0	ISIslide	Neutral	True
20.33	0.25	Lose2	1.0	0.0	Yes	2.77	0.03	n/a	GoodResponse	0	n/a	n/a	0	1	Cue	AvoidedLoss	True
20.581	4.0	Lose2	1.0	0.0	Yes	2.77	0.001	n/a	GoodResponse	0	n/a	n/a	0	1	Fixation	AvoidedLoss	True
24.576	0.39	Lose2	1.0	0.004	Yes	2.77	-0.004	3.0	GoodResponse	0	0.201	23.777	0	1	Target	AvoidedLoss	True
24.777	0.3	Lose2	1.0	0.004	Yes	2.77	-0.004	3.0	GoodResponse	0	0.201	n/a	0	1	ButtonPress	AvoidedLoss	True
24.978	0.31	Lose2	1.0	n/a	Yes	2.77	n/a	n/a	GoodResponse	0	n/a	n/a	0	1	Blank	AvoidedLoss	True
25.279	1.45	Lose2	1.0	n/a	Yes	2.77	n/a	5.0	GoodResponse	0	0.013	24.292	0	1	Feedback	AvoidedLoss	True
26.733	2.77	Lose2	1.0	n/a	Yes	2.77	n/a	n/a	GoodResponse	0	0.0	n/a	0	1	ISIslide	AvoidedLoss	True
29.525	0.25	Control	1.0	0.0	Yes	2.575	0.025	n/a	GoodResponse	0	n/a	n/a	0	2	Cue	Neutral	True
29.775	4.1	Control	1.0	0.0	Yes	2.575	0.0	n/a	GoodResponse	0	n/a	n/a	0	2	Fixation	Neutral	True
33.871	0.38	Control	1.0	0.004	Yes	2.575	-0.004	3.0	GoodResponse	0	0.361	33.232	0	2	Target	Neutral	True
34.232	0.3	Control	1.0	0.004	Yes	2.575	-0.004	3.0	GoodResponse	0	0.361	n/a	0	2	ButtonPress	Neutral	True
34.255	0.32	Control	1.0	n/a	Yes	2.575	n/a	n/a	GoodResponse	0	n/a	n/a	0	2	Blank	Neutral	True
34.573	1.45	Control	1.0	n/a	Yes	2.575	n/a	5.0	GoodResponse	0	0.036	33.609	0	2	Feedback	Neutral	True
36.027	2.575	Control	1.0	n/a	Yes	2.575	n/a	n/a	GoodResponse	0	0.0	n/a	0	2	ISIslide	Neutral	True
38.618	0.25	Win2	1.0	0.0	Yes	2.832	0.018	n/a	GoodResponse	1	n/a	n/a	1	3	Cue	Win	True
38.869	3.95	Win2	1.0	0.0	Yes	2.832	0.001	n/a	GoodResponse	1	n/a	n/a	1	3	Fixation	Win	True
42.814	0.37	Win2	1.0	0.004	Yes	2.832	-0.004	3.0	GoodResponse	1	0.188	42.002	1	3	Target	Win	True
43.002	0.3	Win2	1.0	0.004	Yes	2.832	-0.004	3.0	GoodResponse	1	0.188	n/a	1	3	ButtonPress	Win	True
43.199	0.33	Win2	1.0	n/a	Yes	2.832	n/a	n/a	GoodResponse	1	n/a	n/a	1	3	Blank	Win	True
43.516	1.45	Win2	1.0	n/a	Yes	2.832	n/a	5.0	GoodResponse	1	0.019	42.535	1	3	Feedback	Win	True
44.971	2.832	Win2	1.0	n/a	Yes	2.832	n/a	n/a	GoodResponse	1	0.0	n/a	1	3	ISIslide	Win	True
47.829	0.25	Win2	1.0	0.0	Yes	3.271	0.029	n/a	GoodResponse	1	n/a	n/a	2	4	Cue	Win	True
48.08	4.0	Win2	1.0	0.0	Yes	3.271	0.001	n/a	GoodResponse	1	n/a	n/a	2	4	Fixation	Win	True
52.075	0.36	Win2	1.0	0.004	Yes	3.271	-0.004	3.0	GoodResponse	1	0.202	51.277	2	4	Target	Win	True
52.277	0.3	Win2	1.0	0.004	Yes	3.271	-0.004	3.0	GoodResponse	1	0.202	n/a	2	4	ButtonPress	Win	True
52.443	0.34	Win2	1.0	n/a	Yes	3.271	n/a	n/a	GoodResponse	1	n/a	n/a	2	4	Blank	Win	True
52.777	1.45	Win2	1.0	n/a	Yes	3.271	n/a	5.0	GoodResponse	1	0.027	51.804	2	4	Feedback	Win	True
54.232	3.271	Win2	1.0	n/a	Yes	3.271	n/a	n/a	GoodResponse	1	0.0	n/a	2	4	ISIslide	Win	True
57.525	0.25	Win2	1.0	0.0	Yes	2.775	0.025	n/a	GoodResponse	1	n/a	n/a	3	5	Cue	Win	True
57.776	4.0	Win2	1.0	0.0	Yes	2.775	0.001	n/a	GoodResponse	1	n/a	n/a	3	5	Fixation	Win	True
61.771	0.35	Win2	1.0	0.004	Yes	2.775	-0.004	3.0	GoodResponse	1	0.192	60.963	3	5	Target	Win	True
61.963	0.3	Win2	1.0	0.004	Yes	2.775	-0.004	3.0	GoodResponse	1	0.192	n/a	3	5	ButtonPress	Win	True
62.122	0.35	Win2	1.0	n/a	Yes	2.775	n/a	n/a	GoodResponse	1	n/a	n/a	3	5	Blank	Win	True
62.473	1.45	Win2	1.0	n/a	Yes	2.775	n/a	5.0	GoodResponse	1	0.038	61.511	3	5	Feedback	Win	True
63.927	2.775	Win2	1.0	n/a	Yes	2.775	n/a	n/a	GoodResponse	1	0.0	n/a	3	5	ISIslide	Win	True
66.719	0.25	Lose2	1.0	0.0	Yes	2.731	0.019	n/a	GoodResponse	0	n/a	n/a	3	6	Cue	AvoidedLoss	True
66.97	3.95	Lose2	1.0	0.0	Yes	2.731	0.001	n/a	GoodResponse	0	n/a	n/a	3	6	Fixation	AvoidedLoss	True
70.915	0.34	Lose2	1.0	0.004	Yes	2.731	-0.004	3.0	GoodResponse	0	0.171	70.086	3	6	Target	AvoidedLoss	True
71.086	0.3	Lose2	1.0	0.004	Yes	2.731	-0.004	3.0	GoodResponse	0	0.171	n/a	3	6	ButtonPress	AvoidedLoss	True
71.266	0.36	Lose2	1.0	n/a	Yes	2.731	n/a	n/a	GoodResponse	0	n/a	n/a	3	6	Blank	AvoidedLoss	True
71.617	1.45	Lose2	1.0	n/a	Yes	2.731	n/a	5.0	GoodResponse	0	0.016	70.633	3	6	Feedback	AvoidedLoss	True
73.071	2.731	Lose2	1.0	n/a	Yes	2.731	n/a	n/a	GoodResponse	0	0.0	n/a	3	6	ISIslide	AvoidedLoss	True
75.83	0.25	Lose2	1.0	0.0	Yes	4.02	0.03	n/a	GoodResponse	0	n/a	n/a	3	7	Cue	AvoidedLoss	True
76.08	4.05	Lose2	1.0	0.0	Yes	4.02	0.0	n/a	GoodResponse	0	n/a	n/a	3	7	Fixation	AvoidedLoss	True
80.126	0.33	Lose2	1.0	0.004	Yes	4.02	-0.004	3.0	GoodResponse	0	0.129	79.255	3	7	Target	AvoidedLoss	True
80.255	0.3	Lose2	1.0	0.004	Yes	4.02	-0.004	3.0	GoodResponse	0	0.129	n/a	3	7	ButtonPress	AvoidedLoss	True
80.46	0.37	Lose2	1.0	n/a	Yes	4.02	n/a	n/a	GoodResponse	0	n/a	n/a	3	7	Blank	AvoidedLoss	True
80.828	1.45	Lose2	1.0	n/a	Yes	4.02	n/a	5.0	GoodResponse	0	0.024	79.852	3	7	Feedback	AvoidedLoss	True
82.282	4.02	Lose2	1.0	n/a	Yes	4.02	n/a	n/a	GoodResponse	0	0.0	n/a	3	7	ISIslide	AvoidedLoss	True
86.328	0.25	Lose2	1.0	0.0	Yes	3.022	0.028	n/a	GoodResponse	0	n/a	n/a	3	8	Cue	AvoidedLoss	True
86.578	3.95	Lose2	1.0	0.001	Yes	3.022	0.0	n/a	GoodResponse	0	n/a	n/a	3	8	Fixation	AvoidedLoss	True
90.524	0.32	Lose2	1.0	0.004	Yes	3.022	-0.004	3.0	GoodResponse	0	0.197	89.721	3	8	Target	AvoidedLoss	True
90.721	0.3	Lose2	1.0	0.004	Yes	3.022	-0.004	3.0	GoodResponse	0	0.197	n/a	3	8	ButtonPress	AvoidedLoss	True
90.858	0.38	Lose2	1.0	n/a	Yes	3.022	n/a	n/a	GoodResponse	0	n/a	n/a	3	8	Blank	AvoidedLoss	True
91.226	1.45	Lose2	1.0	n/a	Yes	3.022	n/a	5.0	GoodResponse	0	0.016	90.242	3	8	Feedback	AvoidedLoss	True
92.68	3.022	Lose2	1.0	n/a	Yes	3.022	n/a	n/a	GoodResponse	0	0.0	n/a	3	8	ISIslide	AvoidedLoss	True
95.722	0.25	Lose2	1.0	0.001	Yes	3.128	0.022	n/a	GoodResponse	0	n/a	n/a	3	9	Cue	AvoidedLoss	True
95.973	3.95	Lose2	1.0	0.0	Yes	3.128	0.001	n/a	GoodResponse	0	n/a	n/a	3	9	Fixation	AvoidedLoss	True
99.918	0.31	Lose2	1.0	0.004	Yes	3.128	-0.004	3.0	GoodResponse	0	0.234	99.152	3	9	Target	AvoidedLoss	True
100.152	0.3	Lose2	1.0	0.004	Yes	3.128	-0.004	3.0	GoodResponse	0	0.234	n/a	3	9	ButtonPress	AvoidedLoss	True
100.236	0.39	Lose2	1.0	n/a	Yes	3.128	n/a	n/a	GoodResponse	0	n/a	n/a	3	9	Blank	AvoidedLoss	True
100.62	1.45	Lose2	1.0	n/a	Yes	3.128	n/a	5.0	GoodResponse	0	0.037	99.657	3	9	Feedback	AvoidedLoss	True
102.075	3.128	Lose2	1.0	n/a	Yes	3.128	n/a	n/a	GoodResponse	0	0.0	n/a	3	9	ISIslide	AvoidedLoss	True
105.218	0.25	Control	1.0	0.0	Yes	3.282	0.018	n/a	GoodResponse	0	n/a	n/a	3	10	Cue	Neutral	True
105.468	4.0	Control	1.0	0.0	Yes	3.282	0.0	n/a	GoodResponse	0	n/a	n/a	3	10	Fixation	Neutral	True
109.464	0.3	Control	1.0	0.004	Yes	3.282	-0.004	3.0	GoodResponse	0	0.202	108.666	3	10	Target	Neutral	True
109.666	0.3	Control	1.0	0.004	Yes	3.282	-0.004	3.0	GoodResponse	0	0.202	n/a	3	10	ButtonPress	Neutral	True
109.764	0.4	Control	1.0	n/a	Yes	3.282	n/a	n/a	GoodResponse	0	n/a	n/a	3	10	Blank	Neutral	True
110.166	1.45	Control	1.0	n/a	Yes	3.282	n/a	5.0	GoodResponse	0	0.007	109.173	3	10	Feedback	Neutral	True
111.62	3.282	Control	1.0	n/a	Yes	3.282	n/a	n/a	GoodResponse	0	0.0	n/a	3	10	ISIslide	Neutral	True
114.93	0.25	Lose2	1.0	0.0	Yes	2.72	0.03	n/a	GoodResponse	0	n/a	n/a	3	11	Cue	AvoidedLoss	True
115.181	4.05	Lose2	1.0	0.0	Yes	2.72	0.001	n/a	GoodResponse	0	n/a	n/a	3	11	Fixation	AvoidedLoss	True
119.226	0.29	Lose2	1.0	0.004	Yes	2.72	-0.004	3.0	GoodResponse	0	0.202	118.428	3	11	Target	AvoidedLoss	True
119.428	0.3	Lose2	1.0	0.004	Yes	2.72	-0.004	3.0	GoodResponse	0	0.202	n/a	3	11	ButtonPress	AvoidedLoss	True
119.527	0.41	Lose2	1.0	n/a	Yes	2.72	n/a	n/a	GoodResponse	0	n/a	n/a	3	11	Blank	AvoidedLoss	True
119.928	1.45	Lose2	1.0	n/a	Yes	2.72	n/a	5.0	GoodResponse	0	0.046	118.974	3	11	Feedback	AvoidedLoss	True
121.383	2.72	Lose2	1.0	n/a	Yes	2.72	n/a	n/a	GoodResponse	0	0.0	n/a	3	11	ISIslide	AvoidedLoss	True
124.124	0.25	Control	1.0	0.0	Yes	2.976	0.024	n/a	GoodResponse	0	n/a	n/a	3	12	Cue	Neutral	True
124.375	3.9	Control	1.0	0.0	Yes	2.976	0.001	n/a	GoodResponse	0	n/a	n/a	3	12	Fixation	Neutral	True
128.27	0.28	Control	1.0	0.004	Yes	2.976	-0.004	3.0	GoodResponse	0	0.206	127.476	3	12	Target	Neutral	True
128.476	0.3	Control	1.0	0.004	Yes	2.976	-0.004	3.0	GoodResponse	0	0.206	n/a	3	12	ButtonPress	Neutral	True
128.554	0.42	Control	1.0	n/a	Yes	2.976	n/a	n/a	GoodResponse	0	n/a	n/a	3	12	Blank	Neutral	True
128.972	1.45	Control	1.0	n/a	Yes	2.976	n/a	5.0	GoodResponse	0	0.026	127.998	3	12	Feedback	Neutral	True
130.426	2.976	Control	1.0	n/a	Yes	2.976	n/a	n/a	GoodResponse	0	0.0	n/a	3	12	ISIslide	Neutral	True
133.419	0.25	Control	1.0	0.0	Yes	2.781	0.019	n/a	GoodResponse	0	n/a	n/a	3	13	Cue	Neutral	False
133.669	4.0	Control	1.0	0.0	Yes	2.781	0.0	3.0	GoodResponse	0	3.945	136.614	3	13	Fixation	Neutral	False
137.614	0.3	Control	1.0	0.0	Yes	2.781	0.0	3.0	GoodResponse	0	3.945	n/a	3	13	ButtonPress	Neutral	False
137.665	0.27	Control	1.0	0.004	Yes	2.781	-0.004	3.0	GoodResponse	0	0.195	136.86	3	13	Target	Neutral	False
137.86	0.3	Control	1.0	0.004	Yes	2.781	-0.004	3.0	GoodResponse	0	0.195	n/a	3	13	ButtonPress	Neutral	False
137.949	0.43	Control	1.0	n/a	Yes	2.781	n/a	n/a	GoodResponse	0	n/a	n/a	3	13	Blank	Neutral	False
138.367	1.45	Control	1.0	n/a	Yes	2.781	n/a	5.0	GoodResponse	0	0.045	137.412	3	13	Feedback	Neutral	False
139.821	2.781	Control	1.0	n/a	Yes	2.781	n/a	n/a	GoodResponse	0	0.0	n/a	3	13	ISIslide	Neutral	False
142.629	0.25	Win2	1.0	0.0	Yes	2.671	0.029	n/a	GoodResponse	1	n/a	n/a	4	14	Cue	Win	True
142.88	4.1	Win2	1.0	0.0	Yes	2.671	0.001	n/a	GoodResponse	1	n/a	n/a	4	14	Fixation	Win	True
146.976	0.26	Win2	1.0	0.003	Yes	2.671	-0.003	3.0	GoodResponse	1	0.174	146.15	4	14	Target	Win	True
147.15	0.3	Win2	1.0	0.003	Yes	2.671	-0.003	3.0	GoodResponse	1	0.174	n/a	4	14	ButtonPress	Win	True
147.243	0.44	Win2	1.0	n/a	Yes	2.671	n/a	n/a	GoodResponse	1	n/a	n/a	4	14	Blank	Win	True
147.678	1.45	Win2	1.0	n/a	Yes	2.671	n/a	5.0	GoodResponse	1	0.006	146.684	4	14	Feedback	Win	True
149.132	2.671	Win2	1.0	n/a	Yes	2.671	n/a	n/a	GoodResponse	1	0.0	n/a	4	14	ISIslide	Win	True
151.824	0.25	Control	1.0	0.0	Yes	2.976	0.024	n/a	GoodResponse	0	n/a	n/a	4	15	Cue	Neutral	True
152.074	4.0	Control	1.0	0.0	Yes	2.976	0.0	n/a	GoodResponse	0	n/a	n/a	4	15	Fixation	Neutral	True
156.07	0.25	Control	1.0	0.004	Yes	2.976	-0.004	3.0	GoodResponse	0	0.244	155.314	4	15	Target	Neutral	True
156.314	0.3	Control	1.0	0.004	Yes	2.976	-0.004	3.0	GoodResponse	0	0.244	n/a	4	15	ButtonPress	Neutral	True
156.32	0.45	Control	1.0	n/a	Yes	2.976	n/a	n/a	GoodResponse	0	n/a	n/a	4	15	Blank	Neutral	True
156.772	1.45	Control	1.0	n/a	Yes	2.976	n/a	5.0	GoodResponse	0	0.031	155.803	4	15	Feedback	Neutral	True
158.226	2.976	Control	1.0	n/a	Yes	2.976	n/a	n/a	GoodResponse	0	0.0	n/a	4	15	ISIslide	Neutral	True
161.218	0.25	Win2	1.0	0.0	Yes	2.882	0.018	n/a	GoodResponse	1	n/a	n/a	5	16	Cue	Win	True
161.469	4.0	Win2	1.0	0.0	Yes	2.882	0.001	n/a	GoodResponse	1	n/a	n/a	5	16	Fixation	Win	True
165.464	0.24	Win2	1.0	0.004	Yes	2.882	-0.004	3.0	GoodResponse	1	0.197	164.661	5	16	Target	Win	True
165.661	0.3	Win2	1.0	0.004	Yes	2.882	-0.004	3.0	GoodResponse	1	0.197	n/a	5	16	ButtonPress	Win	True
165.715	0.46	Win2	1.0	n/a	Yes	2.882	n/a	n/a	GoodResponse	1	n/a	n/a	5	16	Blank	Win	True
166.166	1.45	Win2	1.0	n/a	Yes	2.882	n/a	5.0	GoodResponse	1	0.006	165.172	5	16	Feedback	Win	True
167.621	2.882	Win2	1.0	n/a	Yes	2.882	n/a	n/a	GoodResponse	1	0.0	n/a	5	16	ISIslide	Win	True
170.529	0.25	Lose2	1.0	0.001	Yes	2.721	0.029	n/a	GoodResponse	0	n/a	n/a	5	17	Cue	AvoidedLoss	True
170.78	3.95	Lose2	1.0	0.0	Yes	2.721	0.001	n/a	GoodResponse	0	n/a	n/a	5	17	Fixation	AvoidedLoss	True
174.725	0.23	Lose2	1.0	0.004	Yes	2.721	-0.004	3.0	GoodResponse	0	0.189	173.914	5	17	Target	AvoidedLoss	True
174.914	0.3	Lose2	1.0	0.004	Yes	2.721	-0.004	3.0	GoodResponse	0	0.189	n/a	5	17	ButtonPress	AvoidedLoss	True
174.959	0.47	Lose2	1.0	n/a	Yes	2.721	n/a	n/a	GoodResponse	0	n/a	n/a	5	17	Blank	AvoidedLoss	True
175.427	1.45	Lose2	1.0	n/a	Yes	2.721	n/a	5.0	GoodResponse	0	0.009	174.436	5	17	Feedback	AvoidedLoss	True
176.882	2.721	Lose2	1.0	n/a	Yes	2.721	n/a	n/a	GoodResponse	0	0.0	n/a	5	17	ISIslide	AvoidedLoss	True
179.623	0.25	Lose2	1.0	0.0	Yes	2.727	0.023	n/a	GoodResponse	0	n/a	n/a	5	18	Cue	AvoidedLoss	True
179.874	4.05	Lose2	1.0	0.0	Yes	2.727	0.001	n/a	GoodResponse	0	n/a	n/a	5	18	Fixation	AvoidedLoss	True
183.92	0.22	Lose2	1.0	0.003	Yes	2.727	-0.003	3.0	GoodResponse	0	0.169	183.089	5	18	Target	AvoidedLoss	True
184.089	0.3	Lose2	1.0	0.003	Yes	2.727	-0.003	3.0	GoodResponse	0	0.169	n/a	5	18	ButtonPress	AvoidedLoss	True
184.154	0.48	Lose2	1.0	n/a	Yes	2.727	n/a	n/a	GoodResponse	0	n/a	n/a	5	18	Blank	AvoidedLoss	True
184.622	1.45	Lose2	1.0	n/a	Yes	2.727	n/a	5.0	GoodResponse	0	0.034	183.656	5	18	Feedback	AvoidedLoss	True
186.076	2.727	Lose2	1.0	n/a	Yes	2.727	n/a	n/a	GoodResponse	0	0.0	n/a	5	18	ISIslide	AvoidedLoss	True
188.817	0.25	Control	0.95	0.001	No	2.933	0.017	n/a	LatePress	0	n/a	n/a	5	19	Cue	Neutral	True
189.068	3.95	Control	0.95	0.0	No	2.933	0.001	n/a	LatePress	0	n/a	n/a	5	19	Fixation	Neutral	True
193.013	0.21	Control	0.95	0.004	No	2.933	-0.004	3.0	LatePress	0	0.216	192.229	5	19	Target	Neutral	True
193.229	0.3	Control	0.95	0.004	No	2.933	-0.004	3.0	LatePress	0	0.216	n/a	5	19	ButtonPress	Neutral	True
193.231	0.49	Control	0.95	n/a	No	2.933	n/a	n/a	LatePress	0	n/a	n/a	5	19	Blank	Neutral	True
193.715	1.45	Control	0.95	n/a	No	2.933	n/a	5.0	LatePress	0	0.014	192.729	5	19	Feedback	Neutral	True
195.17	2.933	Control	0.95	n/a	No	2.933	n/a	n/a	LatePress	0	0.0	n/a	5	19	ISIslide	Neutral	True
198.129	0.25	Control	0.9048	0.0	No	2.621	0.029	n/a	NoResponse	0	n/a	n/a	5	20	Cue	Neutral	True
198.379	4.05	Control	0.9048	0.0	No	2.621	0.0	n/a	NoResponse	0	n/a	n/a	5	20	Fixation	Neutral	True
202.425	0.2	Control	0.9048	0.004	No	2.621	-0.004	3.0	NoResponse	0	0.22	201.645	5	20	Target	Neutral	True
202.625	0.5	Control	0.9048	n/a	No	2.621	n/a	n/a	NoResponse	0	n/a	n/a	5	20	Blank	Neutral	True
202.645	0.3	Control	0.9048	0.004	No	2.621	-0.004	3.0	NoResponse	0	0.22	n/a	5	20	ButtonPress	Neutral	True
203.127	1.45	Control	0.9048	n/a	No	2.621	n/a	5.0	NoResponse	0	0.017	202.144	5	20	Feedback	Neutral	True
204.581	2.621	Control	0.9048	n/a	No	2.621	n/a	n/a	NoResponse	0	0.0	n/a	5	20	ISIslide	Neutral	True
207.223	0.25	Control	0.9091	0.0	Yes	2.777	0.023	n/a	GoodResponse	0	n/a	n/a	5	21	Cue	Neutral	True
207.473	4.1	Control	0.9091	0.0	Yes	2.777	0.0	n/a	GoodResponse	0	n/a	n/a	5	21	Fixation	Neutral	True
211.569	0.19	Control	0.9091	0.004	Yes	2.777	-0.004	3.0	GoodResponse	0	0.184	210.753	5	21	Target	Neutral	True
211.753	0.3	Control	0.9091	0.004	Yes	2.777	-0.004	3.0	GoodResponse	0	0.184	n/a	5	21	ButtonPress	Neutral	True
211.769	0.51	Control	0.9091	n/a	Yes	2.777	n/a	n/a	GoodResponse	0	n/a	n/a	5	21	Blank	Neutral	True
212.271	1.45	Control	0.9091	n/a	Yes	2.777	n/a	5.0	GoodResponse	0	0.043	211.314	5	21	Feedback	Neutral	True
213.725	2.777	Control	0.9091	n/a	Yes	2.777	n/a	n/a	GoodResponse	0	0.0	n/a	5	21	ISIslide	Neutral	True
216.517	0.25	Control	0.8695999999999999	0.0	No	2.783	0.017	n/a	NoResponse	0	n/a	n/a	5	22	Cue	Neutral	True
216.768	4.0	Control	0.8695999999999999	0.0	No	2.783	0.001	n/a	NoResponse	0	n/a	n/a	5	22	Fixation	Neutral	True
220.763	0.18	Control	0.8695999999999999	0.004	No	2.783	-0.004	3.0	NoResponse	0	0.27	220.033	5	22	Target	Neutral	True
220.947	0.52	Control	0.8695999999999999	n/a	No	2.783	n/a	n/a	NoResponse	0	n/a	n/a	5	22	Blank	Neutral	True
221.033	0.3	Control	0.8695999999999999	0.004	No	2.783	-0.004	3.0	NoResponse	0	0.27	n/a	5	22	ButtonPress	Neutral	True
221.465	1.45	Control	0.8695999999999999	n/a	No	2.783	n/a	5.0	NoResponse	0	0.019	220.484	5	22	Feedback	Neutral	True
222.919	2.783	Control	0.8695999999999999	n/a	No	2.783	n/a	n/a	NoResponse	0	0.0	n/a	5	22	ISIslide	Neutral	True
225.728	0.25	Control	0.8332999999999999	0.0	No	2.772	0.028	n/a	NoResponse	0	n/a	n/a	5	23	Cue	Neutral	True
225.979	3.9	Control	0.8332999999999999	0.0	No	2.772	0.001	n/a	NoResponse	0	n/a	n/a	5	23	Fixation	Neutral	True
229.874	0.17	Control	0.8332999999999999	0.004	No	2.772	-0.004	3.0	NoResponse	0	0.202	229.076	5	23	Target	Neutral	True
230.057	0.53	Control	0.8332999999999999	n/a	No	2.772	n/a	n/a	NoResponse	0	n/a	n/a	5	23	Blank	Neutral	True
230.076	0.3	Control	0.8332999999999999	0.004	No	2.772	-0.004	3.0	NoResponse	0	0.202	n/a	5	23	ButtonPress	Neutral	True
230.576	1.45	Control	0.8332999999999999	n/a	No	2.772	n/a	5.0	NoResponse	0	0.031	229.607	5	23	Feedback	Neutral	True
232.03	2.772	Control	0.8332999999999999	n/a	No	2.772	n/a	n/a	NoResponse	0	0.0	n/a	5	23	ISIslide	Neutral	True
234.822	0.25	Win2	0.84	0.0	Yes	3.128	0.022	n/a	GoodResponse	1	n/a	n/a	6	24	Cue	Win	True
235.072	3.95	Win2	0.84	0.001	Yes	3.128	0.0	n/a	GoodResponse	1	n/a	n/a	6	24	Fixation	Win	True
239.018	0.16	Win2	0.84	0.004	Yes	3.128	-0.004	3.0	GoodResponse	1	0.12	238.138	6	24	Target	Win	True
239.138	0.3	Win2	0.84	0.004	Yes	3.128	-0.004	3.0	GoodResponse	1	0.12	n/a	6	24	ButtonPress	Win	True
239.185	0.54	Win2	0.84	n/a	Yes	3.128	n/a	n/a	GoodResponse	1	n/a	n/a	6	24	Blank	Win	True
239.72	1.45	Win2	0.84	n/a	Yes	3.128	n/a	5.0	GoodResponse	1	0.009	238.729	6	24	Feedback	Win	True
241.174	3.128	Win2	0.84	n/a	Yes	3.128	n/a	n/a	GoodResponse	1	0.0	n/a	6	24	ISIslide	Win	True
244.317	0.25	Win2	0.8077	0.0	No	3.083	0.017	n/a	NoResponse	0	n/a	n/a	6	25	Cue	MissedWin	True
244.568	4.0	Win2	0.8077	0.0	No	3.083	0.001	n/a	NoResponse	0	n/a	n/a	6	25	Fixation	MissedWin	True
248.563	0.15	Win2	0.8077	0.004	No	3.083	-0.004	3.0	NoResponse	0	0.188	247.751	6	25	Target	MissedWin	True
248.713	0.55	Win2	0.8077	n/a	No	3.083	n/a	n/a	NoResponse	0	n/a	n/a	6	25	Blank	MissedWin	True
248.751	0.3	Win2	0.8077	0.004	No	3.083	-0.004	3.0	NoResponse	0	0.188	n/a	6	25	ButtonPress	MissedWin	True
249.265	1.45	Win2	0.8077	n/a	No	3.083	n/a	5.0	NoResponse	0	0.025	248.29	6	25	Feedback	MissedWin	True
250.719	3.083	Win2	0.8077	n/a	No	3.083	n/a	n/a	NoResponse	0	0.0	n/a	6	25	ISIslide	MissedWin	True
253.829	0.25	Win2	0.7778	0.0	No	2.921	0.029	n/a	NoResponse	0	n/a	n/a	6	26	Cue	MissedWin	True
254.079	3.95	Win2	0.7778	0.0	No	2.921	0.0	n/a	NoResponse	0	n/a	n/a	6	26	Fixation	MissedWin	True
258.041	0.15	Win2	0.7778	0.0	No	2.921	0.012	3.0	NoResponse	0	0.237	257.278	6	26	Target	MissedWin	True
258.175	0.55	Win2	0.7778	n/a	No	2.921	n/a	n/a	NoResponse	0	n/a	n/a	6	26	Blank	MissedWin	True
258.278	0.3	Win2	0.7778	0.0	No	2.921	0.012	3.0	NoResponse	0	0.237	n/a	6	26	ButtonPress	MissedWin	True
258.727	1.45	Win2	0.7778	n/a	No	2.921	n/a	5.0	NoResponse	0	0.025	257.752	6	26	Feedback	MissedWin	True
260.181	2.921	Win2	0.7778	n/a	No	2.921	n/a	n/a	NoResponse	0	0.0	n/a	6	26	ISIslide	MissedWin	True
263.123	0.25	Lose2	0.75	0.0	No	2.827	0.023	n/a	PrematurePress	-1	n/a	n/a	5	27	Cue	Loss	False
263.374	4.05	Lose2	0.75	0.0	No	2.827	0.001	3.0	PrematurePress	-1	3.89	266.264	5	27	Fixation	Loss	False
267.264	0.3	Lose2	0.75	0.0	No	2.827	0.001	3.0	PrematurePress	-1	3.89	n/a	5	27	ButtonPress	Loss	False
267.419	0.15	Lose2	0.75	0.004	No	2.827	-0.004	3.0	PrematurePress	-1	0.097	266.516	5	27	Target	Loss	False
267.516	0.3	Lose2	0.75	0.004	No	2.827	-0.004	3.0	PrematurePress	-1	0.097	n/a	5	27	ButtonPress	Loss	False
267.57	0.55	Lose2	0.75	n/a	No	2.827	n/a	n/a	PrematurePress	-1	n/a	n/a	5	27	Blank	Loss	False
268.121	1.45	Lose2	0.75	n/a	No	2.827	n/a	5.0	PrematurePress	-1	0.046	267.167	5	27	Feedback	Loss	False
269.576	2.827	Lose2	0.75	n/a	No	2.827	n/a	n/a	PrematurePress	-1	0.0	n/a	5	27	ISIslide	Loss	False
272.417	0.25	Control	0.7241	0.001	No	2.833	0.017	n/a	NoResponse	0	n/a	n/a	5	28	Cue	Neutral	True
272.668	4.05	Control	0.7241	0.0	No	2.833	0.001	n/a	NoResponse	0	n/a	n/a	5	28	Fixation	Neutral	True
276.714	0.15	Control	0.7241	0.003	No	2.833	-0.003	3.0	NoResponse	0	0.198	275.912	5	28	Target	Neutral	True
276.864	0.55	Control	0.7241	n/a	No	2.833	n/a	n/a	NoResponse	0	n/a	n/a	5	28	Blank	Neutral	True
276.912	0.3	Control	0.7241	0.003	No	2.833	-0.003	3.0	NoResponse	0	0.198	n/a	5	28	ButtonPress	Neutral	True
277.416	1.45	Control	0.7241	n/a	No	2.833	n/a	5.0	NoResponse	0	0.019	276.435	5	28	Feedback	Neutral	True
278.87	2.833	Control	0.7241	n/a	No	2.833	n/a	n/a	NoResponse	0	0.0	n/a	5	28	ISIslide	Neutral	True
281.729	0.25	Lose2	0.7	0.0	No	2.821	0.029	n/a	NoResponse	-1	n/a	n/a	4	29	Cue	Loss	True
281.979	3.95	Lose2	0.7	0.0	No	2.821	0.0	n/a	NoResponse	-1	n/a	n/a	4	29	Fixation	Loss	True
285.924	0.15	Lose2	0.7	0.005	No	2.821	-0.005	3.0	NoResponse	-1	0.163	285.087	4	29	Target	Loss	True
286.075	0.55	Lose2	0.7	n/a	No	2.821	n/a	n/a	NoResponse	-1	n/a	n/a	4	29	Blank	Loss	True
286.087	0.3	Lose2	0.7	0.005	No	2.821	-0.005	3.0	NoResponse	-1	0.163	n/a	4	29	ButtonPress	Loss	True
286.627	1.45	Lose2	0.7	n/a	No	2.821	n/a	5.0	NoResponse	-1	0.028	285.655	4	29	Feedback	Loss	True
288.081	2.821	Lose2	0.7	n/a	No	2.821	n/a	n/a	NoResponse	-1	0.0	n/a	4	29	ISIslide	Loss	True
290.923	0.25	Win2	0.6774	0.0	No	2.777	0.023	n/a	NoResponse	0	n/a	n/a	4	30	Cue	MissedWin	True
291.174	3.9	Win2	0.6774	0.0	No	2.777	0.001	n/a	NoResponse	0	n/a	n/a	4	30	Fixation	MissedWin	True
295.069	0.15	Win2	0.6774	0.004	No	2.777	-0.004	3.0	NoResponse	0	0.223	294.292	4	30	Target	MissedWin	True
295.219	0.55	Win2	0.6774	n/a	No	2.777	n/a	n/a	NoResponse	0	n/a	n/a	4	30	Blank	MissedWin	True
295.292	0.3	Win2	0.6774	0.004	No	2.777	-0.004	3.0	NoResponse	0	0.223	n/a	4	30	ButtonPress	MissedWin	True
295.771	1.45	Win2	0.6774	n/a	No	2.777	n/a	5.0	NoResponse	0	0.007	294.778	4	30	Feedback	MissedWin	True
297.225	2.777	Win2	0.6774	n/a	No	2.777	n/a	n/a	NoResponse	0	0.0	n/a	4	30	ISIslide	MissedWin	True
300.017	0.25	Lose2	0.6562	0.0	No	2.833	0.017	n/a	NoResponse	-1	n/a	n/a	3	31	Cue	Loss	True
300.267	4.05	Lose2	0.6562	0.0	No	2.833	0.0	n/a	NoResponse	-1	n/a	n/a	3	31	Fixation	Loss	True
304.313	0.15	Lose2	0.6562	0.004	No	2.833	-0.004	3.0	NoResponse	-1	0.201	303.514	3	31	Target	Loss	True
304.463	0.55	Lose2	0.6562	n/a	No	2.833	n/a	n/a	NoResponse	-1	n/a	n/a	3	31	Blank	Loss	True
304.514	0.3	Lose2	0.6562	0.004	No	2.833	-0.004	3.0	NoResponse	-1	0.201	n/a	3	31	ButtonPress	Loss	True
305.015	1.45	Lose2	0.6562	n/a	No	2.833	n/a	5.0	NoResponse	-1	0.029	304.044	3	31	Feedback	Loss	True
306.469	2.833	Lose2	0.6562	n/a	No	2.833	n/a	n/a	NoResponse	-1	0.0	n/a	3	31	ISIslide	Loss	True
309.328	0.25	Lose2	0.6364	0.0	No	2.622	0.028	n/a	NoResponse	-1	n/a	n/a	2	32	Cue	Loss	True
309.579	4.15	Lose2	0.6364	0.0	No	2.622	0.001	3.0	NoResponse	-1	3.8	312.379	2	32	Fixation	Loss	True
313.379	0.3	Lose2	0.6364	0.0	No	2.622	0.001	3.0	NoResponse	-1	3.8	n/a	2	32	ButtonPress	Loss	True
313.724	0.15	Lose2	0.6364	0.004	No	2.622	-0.004	n/a	NoResponse	-1	n/a	n/a	2	32	Target	Loss	True
313.875	0.55	Lose2	0.6364	n/a	No	2.622	n/a	n/a	NoResponse	-1	n/a	n/a	2	32	Blank	Loss	True
314.426	1.45	Lose2	0.6364	n/a	No	2.622	n/a	5.0	NoResponse	-1	0.033	313.459	2	32	Feedback	Loss	True
315.881	2.622	Lose2	0.6364	n/a	No	2.622	n/a	n/a	NoResponse	-1	0.0	n/a	2	32	ISIslide	Loss	True
318.522	0.25	Win2	0.6175999999999999	0.0	No	2.678	0.022	n/a	NoResponse	0	n/a	n/a	2	33	Cue	MissedWin	True
318.773	4.0	Win2	0.6175999999999999	0.0	No	2.678	0.001	n/a	NoResponse	0	n/a	n/a	2	33	Fixation	MissedWin	True
322.768	0.16	Win2	0.6175999999999999	0.004	No	2.678	-0.004	3.0	NoResponse	0	0.205	321.973	2	33	Target	MissedWin	True
322.935	0.54	Win2	0.6175999999999999	n/a	No	2.678	n/a	n/a	NoResponse	0	n/a	n/a	2	33	Blank	MissedWin	True
322.973	0.3	Win2	0.6175999999999999	0.004	No	2.678	-0.004	3.0	NoResponse	0	0.205	n/a	2	33	ButtonPress	MissedWin	True
323.47	1.45	Win2	0.6175999999999999	n/a	No	2.678	n/a	5.0	NoResponse	0	0.014	322.484	2	33	Feedback	MissedWin	True
324.924	2.678	Win2	0.6175999999999999	n/a	No	2.678	n/a	n/a	NoResponse	0	0.0	n/a	2	33	ISIslide	MissedWin	True
327.616	0.25	Lose2	0.6	0.0	No	2.634	0.016	n/a	NoResponse	-1	n/a	n/a	1	34	Cue	Loss	True
327.867	4.05	Lose2	0.6	0.0	No	2.634	0.001	3.0	NoResponse	-1	4.037	330.904	1	34	Fixation	Loss	True
331.904	0.3	Lose2	0.6	0.0	No	2.634	0.001	3.0	NoResponse	-1	4.037	n/a	1	34	ButtonPress	Loss	True
331.912	0.17	Lose2	0.6	0.004	No	2.634	-0.004	n/a	NoResponse	-1	n/a	n/a	1	34	Target	Loss	True
332.096	0.53	Lose2	0.6	n/a	No	2.634	n/a	n/a	NoResponse	-1	n/a	n/a	1	34	Blank	Loss	True
332.614	1.45	Lose2	0.6	n/a	No	2.634	n/a	5.0	NoResponse	-1	0.04	331.654	1	34	Feedback	Loss	True
334.068	2.634	Lose2	0.6	n/a	No	2.634	n/a	n/a	NoResponse	-1	0.0	n/a	1	34	ISIslide	Loss	True
336.726	0.25	Lose2	0.5832999999999999	0.0	No	2.674	0.026	n/a	NoResponse	-1	n/a	n/a	0	35	Cue	Loss	False
336.977	4.0	Lose2	0.5832999999999999	0.0	No	2.674	0.001	3.0	NoResponse	-1	3.863	339.84	0	35	Fixation	Loss	False
340.84	0.3	Lose2	0.5832999999999999	0.0	No	2.674	0.001	3.0	NoResponse	-1	3.863	n/a	0	35	ButtonPress	Loss	False
340.972	0.18	Lose2	0.5832999999999999	0.004	No	2.674	-0.004	3.0	NoResponse	-1	0.194	340.166	0	35	Target	Loss	False
341.156	0.52	Lose2	0.5832999999999999	n/a	No	2.674	n/a	n/a	NoResponse	-1	n/a	n/a	0	35	Blank	Loss	False
341.166	0.3	Lose2	0.5832999999999999	0.004	No	2.674	-0.004	3.0	NoResponse	-1	0.194	n/a	0	35	ButtonPress	Loss	False
341.675	1.45	Lose2	0.5832999999999999	n/a	No	2.674	n/a	5.0	NoResponse	-1	0.006	340.681	0	35	Feedback	Loss	False
343.129	2.674	Lose2	0.5832999999999999	n/a	No	2.674	n/a	n/a	NoResponse	-1	0.0	n/a	0	35	ISIslide	Loss	False
345.82	0.25	Control	0.5676	0.0	No	2.68	0.02	n/a	NoResponse	0	n/a	n/a	0	36	Cue	Neutral	False
346.071	4.0	Control	0.5676	0.0	No	2.68	0.001	n/a	NoResponse	0	n/a	n/a	0	36	Fixation	Neutral	False
350.066	0.19	Control	0.5676	0.004	No	2.68	-0.004	n/a	NoResponse	0	n/a	n/a	0	36	Target	Neutral	False
350.267	0.51	Control	0.5676	n/a	No	2.68	n/a	n/a	NoResponse	0	n/a	n/a	0	36	Blank	Neutral	False
350.768	1.45	Control	0.5676	n/a	No	2.68	n/a	5.0	NoResponse	0	0.032	349.8	0	36	Feedback	Neutral	False
352.223	2.68	Control	0.5676	n/a	No	2.68	n/a	n/a	NoResponse	0	0.0	n/a	0	36	ISIslide	Neutral	False
354.931	0.25	Win2	0.5526	0.0	No	2.869	0.031	n/a	NoResponse	0	n/a	n/a	0	37	Cue	MissedWin	True
355.182	4.0	Win2	0.5526	0.0	No	2.869	0.001	n/a	NoResponse	0	n/a	n/a	0	37	Fixation	MissedWin	True
359.177	0.2	Win2	0.5526	0.004	No	2.869	-0.004	3.0	NoResponse	0	0.213	358.39	0	37	Target	MissedWin	True
359.377	0.5	Win2	0.5526	n/a	No	2.869	n/a	n/a	NoResponse	0	n/a	n/a	0	37	Blank	MissedWin	True
359.39	0.3	Win2	0.5526	0.004	No	2.869	-0.004	3.0	NoResponse	0	0.213	n/a	0	37	ButtonPress	MissedWin	True
359.879	1.45	Win2	0.5526	n/a	No	2.869	n/a	5.0	NoResponse	0	0.043	358.922	0	37	Feedback	MissedWin	True
361.333	2.869	Win2	0.5526	n/a	No	2.869	n/a	n/a	NoResponse	0	0.0	n/a	0	37	ISIslide	MissedWin	True
364.225	0.25	Lose2	0.5640999999999999	0.0	Yes	2.825	0.025	n/a	GoodResponse	0	n/a	n/a	0	38	Cue	AvoidedLoss	True
364.476	3.95	Lose2	0.5640999999999999	0.0	Yes	2.825	0.001	n/a	GoodResponse	0	n/a	n/a	0	38	Fixation	AvoidedLoss	True
368.421	0.21	Lose2	0.5640999999999999	0.004	Yes	2.825	-0.004	3.0	GoodResponse	0	0.173	367.594	0	38	Target	AvoidedLoss	True
368.594	0.3	Lose2	0.5640999999999999	0.004	Yes	2.825	-0.004	3.0	GoodResponse	0	0.173	n/a	0	38	ButtonPress	AvoidedLoss	True
368.638	0.49	Lose2	0.5640999999999999	n/a	Yes	2.825	n/a	n/a	GoodResponse	0	n/a	n/a	0	38	Blank	AvoidedLoss	True
369.123	1.45	Lose2	0.5640999999999999	n/a	Yes	2.825	n/a	5.0	GoodResponse	0	0.019	368.142	0	38	Feedback	AvoidedLoss	True
370.578	2.825	Lose2	0.5640999999999999	n/a	Yes	2.825	n/a	n/a	GoodResponse	0	0.0	n/a	0	38	ISIslide	AvoidedLoss	True
373.419	0.25	Win2	0.575	0.001	Yes	2.981	0.019	n/a	GoodResponse	1	n/a	n/a	1	39	Cue	Win	True
373.67	4.1	Win2	0.575	0.0	Yes	2.981	0.001	n/a	GoodResponse	1	n/a	n/a	1	39	Fixation	Win	True
377.766	0.22	Win2	0.575	0.003	Yes	2.981	-0.003	3.0	GoodResponse	1	0.165	376.931	1	39	Target	Win	True
377.931	0.3	Win2	0.575	0.003	Yes	2.981	-0.003	3.0	GoodResponse	1	0.165	n/a	1	39	ButtonPress	Win	True
378	0.48	Win2	0.575	n/a	Yes	2.981	n/a	n/a	GoodResponse	1	n/a	n/a	1	39	Blank	Win	True
378.468	1.45	Win2	0.575	n/a	Yes	2.981	n/a	5.0	GoodResponse	1	0.04	377.508	1	39	Feedback	Win	True
379.922	2.981	Win2	0.575	n/a	Yes	2.981	n/a	n/a	GoodResponse	1	0.0	n/a	1	39	ISIslide	Win	True
382.914	0.25	Win2	0.5854	0.001	Yes	2.736	0.014	n/a	GoodResponse	1	n/a	n/a	2	40	Cue	Win	True
383.165	3.95	Win2	0.5854	0.0	Yes	2.736	0.001	n/a	GoodResponse	1	n/a	n/a	2	40	Fixation	Win	True
387.11	0.23	Win2	0.5854	0.004	Yes	2.736	-0.004	3.0	GoodResponse	1	0.229	386.339	2	40	Target	Win	True
387.339	0.3	Win2	0.5854	0.004	Yes	2.736	-0.004	3.0	GoodResponse	1	0.229	n/a	2	40	ButtonPress	Win	True
387.344	0.47	Win2	0.5854	n/a	Yes	2.736	n/a	n/a	GoodResponse	1	n/a	n/a	2	40	Blank	Win	True
387.812	1.45	Win2	0.5854	n/a	Yes	2.736	n/a	5.0	GoodResponse	1	0.012	386.824	2	40	Feedback	Win	True
389.267	2.736	Win2	0.5854	n/a	Yes	2.736	n/a	n/a	GoodResponse	1	0.0	n/a	2	40	ISIslide	Win	True
392.025	0.25	Win2	0.5952000000000001	0.0	Yes	2.775	0.025	n/a	GoodResponse	1	n/a	n/a	3	41	Cue	Win	True
392.276	3.9	Win2	0.5952000000000001	0.0	Yes	2.775	0.001	n/a	GoodResponse	1	n/a	n/a	3	41	Fixation	Win	True
396.171	0.24	Win2	0.5952000000000001	0.004	Yes	2.775	-0.004	3.0	GoodResponse	1	0.212	395.383	3	41	Target	Win	True
396.383	0.3	Win2	0.5952000000000001	0.004	Yes	2.775	-0.004	3.0	GoodResponse	1	0.212	n/a	3	41	ButtonPress	Win	True
396.422	0.46	Win2	0.5952000000000001	n/a	Yes	2.775	n/a	n/a	GoodResponse	1	n/a	n/a	3	41	Blank	Win	True
396.873	1.45	Win2	0.5952000000000001	n/a	Yes	2.775	n/a	5.0	GoodResponse	1	0.024	395.897	3	41	Feedback	Win	True
398.327	2.775	Win2	0.5952000000000001	n/a	Yes	2.775	n/a	n/a	GoodResponse	1	0.0	n/a	3	41	ISIslide	Win	True
401.119	0.25	Control	0.5814	0.0	No	2.931	0.019	n/a	NoResponse	0	n/a	n/a	3	42	Cue	Neutral	False
401.37	3.85	Control	0.5814	0.0	No	2.931	0.001	n/a	NoResponse	0	n/a	n/a	3	42	Fixation	Neutral	False
405.214	0.25	Control	0.5814	0.005	No	2.931	-0.005	n/a	NoResponse	0	n/a	n/a	3	42	Target	Neutral	False
405.465	0.45	Control	0.5814	n/a	No	2.931	n/a	n/a	NoResponse	0	n/a	n/a	3	42	Blank	Neutral	False
405.917	1.45	Control	0.5814	n/a	No	2.931	n/a	5.0	NoResponse	0	0.007	404.924	3	42	Feedback	Neutral	False
407.371	2.931	Control	0.5814	n/a	No	2.931	n/a	n/a	NoResponse	0	0.0	n/a	3	42	ISIslide	Neutral	False
410.33	0.25	Win2	0.5909	0.0	Yes	3.17	0.03	n/a	GoodResponse	1	n/a	n/a	4	43	Cue	Win	True
410.581	4.0	Win2	0.5909	0.0	Yes	3.17	0.001	n/a	GoodResponse	1	n/a	n/a	4	43	Fixation	Win	True
414.576	0.26	Win2	0.5909	0.004	Yes	3.17	-0.004	3.0	GoodResponse	1	0.181	413.757	4	43	Target	Win	True
414.757	0.3	Win2	0.5909	0.004	Yes	3.17	-0.004	3.0	GoodResponse	1	0.181	n/a	4	43	ButtonPress	Win	True
414.843	0.44	Win2	0.5909	n/a	Yes	3.17	n/a	n/a	GoodResponse	1	n/a	n/a	4	43	Blank	Win	True
415.278	1.45	Win2	0.5909	n/a	Yes	3.17	n/a	5.0	GoodResponse	1	0.009	414.287	4	43	Feedback	Win	True
416.732	3.17	Win2	0.5909	n/a	Yes	3.17	n/a	n/a	GoodResponse	1	0.0	n/a	4	43	ISIslide	Win	True
419.925	0.25	Win2	0.5778	0.0	No	2.975	0.025	n/a	NoResponse	0	n/a	n/a	4	44	Cue	MissedWin	True
420.176	4.0	Win2	0.5778	0.0	No	2.975	0.001	3.0	NoResponse	0	3.909	423.085	4	44	Fixation	MissedWin	True
424.085	0.3	Win2	0.5778	0.0	No	2.975	0.001	3.0	NoResponse	0	3.909	n/a	4	44	ButtonPress	MissedWin	True
424.171	0.27	Win2	0.5778	0.004	No	2.975	-0.004	n/a	NoResponse	0	n/a	n/a	4	44	Target	MissedWin	True
424.455	0.43	Win2	0.5778	n/a	No	2.975	n/a	n/a	NoResponse	0	n/a	n/a	4	44	Blank	MissedWin	True
424.873	1.45	Win2	0.5778	n/a	No	2.975	n/a	5.0	NoResponse	0	0.023	423.896	4	44	Feedback	MissedWin	True
426.328	2.975	Win2	0.5778	n/a	No	2.975	n/a	n/a	NoResponse	0	0.0	n/a	4	44	ISIslide	MissedWin	True
429.32	0.25	Control	0.5652	0.0	No	2.88	0.02	n/a	NoResponse	0	n/a	n/a	4	45	Cue	Neutral	False
429.571	4.1	Control	0.5652	0.0	No	2.88	0.001	n/a	NoResponse	0	n/a	n/a	4	45	Fixation	Neutral	False
433.666	0.28	Control	0.5652	0.004	No	2.88	-0.004	n/a	NoResponse	0	n/a	n/a	4	45	Target	Neutral	False
433.95	0.42	Control	0.5652	n/a	No	2.88	n/a	n/a	NoResponse	0	n/a	n/a	4	45	Blank	Neutral	False
434.368	1.45	Control	0.5652	n/a	No	2.88	n/a	5.0	NoResponse	0	0.041	433.409	4	45	Feedback	Neutral	False
435.823	2.88	Control	0.5652	n/a	No	2.88	n/a	n/a	NoResponse	0	0.0	n/a	4	45	ISIslide	Neutral	False
438.731	0.25	Lose2	0.5745	0.0	Yes	3.369	0.031	n/a	GoodResponse	0	n/a	n/a	4	46	Cue	AvoidedLoss	True
438.982	4.0	Lose2	0.5745	0.0	Yes	3.369	0.001	n/a	GoodResponse	0	n/a	n/a	4	46	Fixation	AvoidedLoss	True
442.977	0.29	Lose2	0.5745	0.004	Yes	3.369	-0.004	3.0	GoodResponse	0	0.203	442.18	4	46	Target	AvoidedLoss	True
443.18	0.3	Lose2	0.5745	0.004	Yes	3.369	-0.004	3.0	GoodResponse	0	0.203	n/a	4	46	ButtonPress	AvoidedLoss	True
443.278	0.41	Lose2	0.5745	n/a	Yes	3.369	n/a	n/a	GoodResponse	0	n/a	n/a	4	46	Blank	AvoidedLoss	True
443.68	1.45	Lose2	0.5745	n/a	Yes	3.369	n/a	5.0	GoodResponse	0	0.046	442.726	4	46	Feedback	AvoidedLoss	True
445.134	3.369	Lose2	0.5745	n/a	Yes	3.369	n/a	n/a	GoodResponse	0	0.0	n/a	4	46	ISIslide	AvoidedLoss	True
448.527	0.25	Lose2	0.5625	0.0	No	2.673	0.027	n/a	LatePress	-1	n/a	n/a	3	47	Cue	Loss	True
448.778	4.0	Lose2	0.5625	0.0	No	2.673	0.001	n/a	LatePress	-1	n/a	n/a	3	47	Fixation	Loss	True
452.773	0.3	Lose2	0.5625	0.004	No	2.673	-0.004	3.0	LatePress	-1	0.301	452.074	3	47	Target	Loss	True
453.074	0.4	Lose2	0.5625	n/a	No	2.673	n/a	n/a	LatePress	-1	n/a	n/a	3	47	Blank	Loss	True
453.074	0.3	Lose2	0.5625	0.004	No	2.673	-0.004	3.0	LatePress	-1	0.301	n/a	3	47	ButtonPress	Loss	True
453.475	1.45	Lose2	0.5625	n/a	No	2.673	n/a	5.0	LatePress	-1	0.008	452.483	3	47	Feedback	Loss	True
454.93	2.673	Lose2	0.5625	n/a	No	2.673	n/a	n/a	LatePress	-1	0.0	n/a	3	47	ISIslide	Loss	True
457.621	0.25	Lose2	0.5714	0.0	Yes	3.029	0.021	n/a	GoodResponse	0	n/a	n/a	3	48	Cue	AvoidedLoss	True
457.872	3.95	Lose2	0.5714	0.0	Yes	3.029	0.001	n/a	GoodResponse	0	n/a	n/a	3	48	Fixation	AvoidedLoss	True
461.817	0.31	Lose2	0.5714	0.004	Yes	3.029	-0.004	3.0	GoodResponse	0	0.178	460.995	3	48	Target	AvoidedLoss	True
461.995	0.3	Lose2	0.5714	0.004	Yes	3.029	-0.004	3.0	GoodResponse	0	0.178	n/a	3	48	ButtonPress	AvoidedLoss	True
462.135	0.39	Lose2	0.5714	n/a	Yes	3.029	n/a	n/a	GoodResponse	0	n/a	n/a	3	48	Blank	AvoidedLoss	True
462.519	1.45	Lose2	0.5714	n/a	Yes	3.029	n/a	5.0	GoodResponse	0	0.036	461.555	3	48	Feedback	AvoidedLoss	True
463.974	3.029	Lose2	0.5714	n/a	Yes	3.029	n/a	n/a	GoodResponse	0	0.0	n/a	3	48	ISIslide	AvoidedLoss	True
467.016	0.25	Control	0.58	0.0	Yes	2.884	0.016	n/a	GoodResponse	0	n/a	n/a	3	49	Cue	Neutral	True
467.267	4.0	Control	0.58	0.0	Yes	2.884	0.001	n/a	GoodResponse	0	n/a	n/a	3	49	Fixation	Neutral	True
471.262	0.32	Control	0.58	0.004	Yes	2.884	-0.004	3.0	GoodResponse	0	0.171	470.433	3	49	Target	Neutral	True
471.433	0.3	Control	0.58	0.004	Yes	2.884	-0.004	3.0	GoodResponse	0	0.171	n/a	3	49	ButtonPress	Neutral	True
471.596	0.38	Control	0.58	n/a	Yes	2.884	n/a	n/a	GoodResponse	0	n/a	n/a	3	49	Blank	Neutral	True
471.964	1.45	Control	0.58	n/a	Yes	2.884	n/a	5.0	GoodResponse	0	0.007	470.971	3	49	Feedback	Neutral	True
473.418	2.884	Control	0.58	n/a	Yes	2.884	n/a	n/a	GoodResponse	0	0.0	n/a	3	49	ISIslide	Neutral	True
476.327	0.25	Control	0.5882000000000001	0.0	Yes	2.773	0.027	n/a	GoodResponse	0	n/a	n/a	3	50	Cue	Neutral	True
476.578	4.0	Control	0.5882000000000001	0.0	Yes	2.773	0.001	n/a	GoodResponse	0	n/a	n/a	3	50	Fixation	Neutral	True
480.573	0.33	Control	0.5882000000000001	0.004	Yes	2.773	-0.004	3.0	GoodResponse	0	0.265	479.838	3	50	Target	Neutral	True
480.838	0.3	Control	0.5882000000000001	0.004	Yes	2.773	-0.004	3.0	GoodResponse	0	0.265	n/a	3	50	ButtonPress	Neutral	True
480.907	0.37	Control	0.5882000000000001	n/a	Yes	2.773	n/a	n/a	GoodResponse	0	n/a	n/a	3	50	Blank	Neutral	True
481.275	1.45	Control	0.5882000000000001	n/a	Yes	2.773	n/a	5.0	GoodResponse	0	0.011	480.286	3	50	Feedback	Neutral	True
482.73	2.773	Control	0.5882000000000001	n/a	Yes	2.773	n/a	n/a	GoodResponse	0	0.0	n/a	3	50	ISIslide	Neutral	True
485.521	0.25	Control	0.5769	0.0	No	2.729	0.021	n/a	NoResponse	0	n/a	n/a	3	51	Cue	Neutral	True
485.772	3.95	Control	0.5769	0.0	No	2.729	0.001	3.0	NoResponse	0	3.875	488.647	3	51	Fixation	Neutral	True
489.647	0.3	Control	0.5769	0.0	No	2.729	0.001	3.0	NoResponse	0	3.875	n/a	3	51	ButtonPress	Neutral	True
489.717	0.34	Control	0.5769	0.004	No	2.729	-0.004	n/a	NoResponse	0	n/a	n/a	3	51	Target	Neutral	True
490.068	0.36	Control	0.5769	n/a	No	2.729	n/a	n/a	NoResponse	0	n/a	n/a	3	51	Blank	Neutral	True
490.419	1.45	Control	0.5769	n/a	No	2.729	n/a	5.0	NoResponse	0	0.038	489.457	3	51	Feedback	Neutral	True
491.874	2.729	Control	0.5769	n/a	No	2.729	n/a	n/a	NoResponse	0	0.0	n/a	3	51	ISIslide	Neutral	True
494.615	0.25	Control	0.5849	0.0	Yes	2.635	0.015	n/a	GoodResponse	0	n/a	n/a	3	52	Cue	Neutral	True
494.866	4.05	Control	0.5849	0.0	Yes	2.635	0.001	n/a	GoodResponse	0	n/a	n/a	3	52	Fixation	Neutral	True
498.911	0.35	Control	0.5849	0.004	Yes	2.635	-0.004	3.0	GoodResponse	0	0.295	498.206	3	52	Target	Neutral	True
499.206	0.3	Control	0.5849	0.004	Yes	2.635	-0.004	3.0	GoodResponse	0	0.295	n/a	3	52	ButtonPress	Neutral	True
499.262	0.35	Control	0.5849	n/a	Yes	2.635	n/a	n/a	GoodResponse	0	n/a	n/a	3	52	Blank	Neutral	True
499.613	1.45	Control	0.5849	n/a	Yes	2.635	n/a	5.0	GoodResponse	0	0.015	498.628	3	52	Feedback	Neutral	True
501.068	2.635	Control	0.5849	n/a	Yes	2.635	n/a	n/a	GoodResponse	0	0.0	n/a	3	52	ISIslide	Neutral	True
503.726	0.25	Win2	0.5926	0.0	Yes	2.924	0.026	n/a	GoodResponse	1	n/a	n/a	4	53	Cue	Win	True
503.976	4.05	Win2	0.5926	0.001	Yes	2.924	0.0	n/a	GoodResponse	1	n/a	n/a	4	53	Fixation	Win	True
508.022	0.36	Win2	0.5926	0.004	Yes	2.924	-0.004	3.0	GoodResponse	1	0.199	507.221	4	53	Target	Win	True
508.221	0.3	Win2	0.5926	0.004	Yes	2.924	-0.004	3.0	GoodResponse	1	0.199	n/a	4	53	ButtonPress	Win	True
508.39	0.34	Win2	0.5926	n/a	Yes	2.924	n/a	n/a	GoodResponse	1	n/a	n/a	4	53	Blank	Win	True
508.724	1.45	Win2	0.5926	n/a	Yes	2.924	n/a	5.0	GoodResponse	1	0.026	507.75	4	53	Feedback	Win	True
510.178	2.924	Win2	0.5926	n/a	Yes	2.924	n/a	n/a	GoodResponse	1	0.0	n/a	4	53	ISIslide	Win	True
513.12	0.25	Win2	0.6	0.001	Yes	2.73	0.02	n/a	GoodResponse	1	n/a	n/a	5	54	Cue	Win	True
513.371	3.95	Win2	0.6	0.0	Yes	2.73	0.001	n/a	GoodResponse	1	n/a	n/a	5	54	Fixation	Win	True
517.316	0.37	Win2	0.6	0.004	Yes	2.73	-0.004	3.0	GoodResponse	1	0.204	516.52	5	54	Target	Win	True
517.52	0.3	Win2	0.6	0.004	Yes	2.73	-0.004	3.0	GoodResponse	1	0.204	n/a	5	54	ButtonPress	Win	True
517.701	0.33	Win2	0.6	n/a	Yes	2.73	n/a	n/a	GoodResponse	1	n/a	n/a	5	54	Blank	Win	True
518.018	1.45	Win2	0.6	n/a	Yes	2.73	n/a	5.0	GoodResponse	1	0.048	517.066	5	54	Feedback	Win	True
519.473	2.73	Win2	0.6	n/a	Yes	2.73	n/a	n/a	GoodResponse	1	0.0	n/a	5	54	ISIslide	Win	True
522.214	0.25	Control	0.5893	0.0	No	3.036	0.014	n/a	NoResponse	0	n/a	n/a	5	55	Cue	Neutral	False
522.465	3.95	Control	0.5893	0.0	No	3.036	0.001	n/a	NoResponse	0	n/a	n/a	5	55	Fixation	Neutral	False
526.41	0.38	Control	0.5893	0.004	No	3.036	-0.004	n/a	NoResponse	0	n/a	n/a	5	55	Target	Neutral	False
526.795	0.32	Control	0.5893	n/a	No	3.036	n/a	n/a	NoResponse	0	n/a	n/a	5	55	Blank	Neutral	False
527.112	1.45	Control	0.5893	n/a	No	3.036	n/a	5.0	NoResponse	0	0.027	526.139	5	55	Feedback	Neutral	False
528.567	3.036	Control	0.5893	n/a	No	3.036	n/a	n/a	NoResponse	0	0.0	n/a	5	55	ISIslide	Neutral	False
531.626	0.25	Control	0.5965	0.0	Yes	2.824	0.026	n/a	GoodResponse	0	n/a	n/a	5	56	Cue	Neutral	True
531.877	3.95	Control	0.5965	0.0	Yes	2.824	0.001	n/a	GoodResponse	0	n/a	n/a	5	56	Fixation	Neutral	True
535.822	0.39	Control	0.5965	0.004	Yes	2.824	-0.004	3.0	GoodResponse	0	0.244	535.066	5	56	Target	Neutral	True
536.066	0.3	Control	0.5965	0.004	Yes	2.824	-0.004	3.0	GoodResponse	0	0.244	n/a	5	56	ButtonPress	Neutral	True
536.223	0.31	Control	0.5965	n/a	Yes	2.824	n/a	n/a	GoodResponse	0	n/a	n/a	5	56	Blank	Neutral	True
536.524	1.45	Control	0.5965	n/a	Yes	2.824	n/a	5.0	GoodResponse	0	0.03	535.554	5	56	Feedback	Neutral	True
537.978	2.824	Control	0.5965	n/a	Yes	2.824	n/a	n/a	GoodResponse	0	0.0	n/a	5	56	ISIslide	Neutral	True
540.82	0.25	Control	0.5861999999999999	0.0	No	3.48	0.02	n/a	NoResponse	0	n/a	n/a	5	57	Cue	Neutral	False
541.071	4.0	Control	0.5861999999999999	0.0	No	3.48	0.001	n/a	NoResponse	0	n/a	n/a	5	57	Fixation	Neutral	False
545.066	0.4	Control	0.5861999999999999	0.004	No	3.48	-0.004	n/a	NoResponse	0	n/a	n/a	5	57	Target	Neutral	False
545.467	0.3	Control	0.5861999999999999	n/a	No	3.48	n/a	n/a	NoResponse	0	n/a	n/a	5	57	Blank	Neutral	False
545.768	1.45	Control	0.5861999999999999	n/a	No	3.48	n/a	5.0	NoResponse	0	0.007	544.775	5	57	Feedback	Neutral	False
547.222	3.48	Control	0.5861999999999999	n/a	No	3.48	n/a	n/a	NoResponse	0	0.0	n/a	5	57	ISIslide	Neutral	False
550.716	0.25	Win2	0.5932	0.0	Yes	2.734	0.016	n/a	GoodResponse	1	n/a	n/a	6	58	Cue	Win	True
550.967	4.05	Win2	0.5932	0.0	Yes	2.734	0.001	n/a	GoodResponse	1	n/a	n/a	6	58	Fixation	Win	True
555.012	0.41	Win2	0.5932	0.004	Yes	2.734	-0.004	3.0	GoodResponse	1	0.195	554.207	6	58	Target	Win	True
555.207	0.3	Win2	0.5932	0.004	Yes	2.734	-0.004	3.0	GoodResponse	1	0.195	n/a	6	58	ButtonPress	Win	True
555.43	0.29	Win2	0.5932	n/a	Yes	2.734	n/a	n/a	GoodResponse	1	n/a	n/a	6	58	Blank	Win	True
555.714	1.45	Win2	0.5932	n/a	Yes	2.734	n/a	5.0	GoodResponse	1	0.01	554.724	6	58	Feedback	Win	True
557.169	2.734	Win2	0.5932	n/a	Yes	2.734	n/a	n/a	GoodResponse	1	0.0	n/a	6	58	ISIslide	Win	True
559.927	0.25	Lose2	0.6	0.0	Yes	2.673	0.027	n/a	GoodResponse	0	n/a	n/a	6	59	Cue	AvoidedLoss	True
560.178	4.0	Lose2	0.6	0.0	Yes	2.673	0.001	n/a	GoodResponse	0	n/a	n/a	6	59	Fixation	AvoidedLoss	True
564.173	0.42	Lose2	0.6	0.004	Yes	2.673	-0.004	3.0	GoodResponse	0	0.206	563.379	6	59	Target	AvoidedLoss	True
564.379	0.3	Lose2	0.6	0.004	Yes	2.673	-0.004	3.0	GoodResponse	0	0.206	n/a	6	59	ButtonPress	AvoidedLoss	True
564.608	0.28	Lose2	0.6	n/a	Yes	2.673	n/a	n/a	GoodResponse	0	n/a	n/a	6	59	Blank	AvoidedLoss	True
564.875	1.45	Lose2	0.6	n/a	Yes	2.673	n/a	5.0	GoodResponse	0	0.02	563.895	6	59	Feedback	AvoidedLoss	True
566.33	2.673	Lose2	0.6	n/a	Yes	2.673	n/a	n/a	GoodResponse	0	0.0	n/a	6	59	ISIslide	AvoidedLoss	True
569.021	0.25	Control	0.6065999999999999	0.0	Yes	2.679	0.021	n/a	GoodResponse	0	n/a	n/a	6	60	Cue	Neutral	True
569.272	4.0	Control	0.6065999999999999	0.0	Yes	2.679	0.001	n/a	GoodResponse	0	n/a	n/a	6	60	Fixation	Neutral	True
573.267	0.43	Control	0.6065999999999999	0.004	Yes	2.679	-0.004	3.0	GoodResponse	0	0.189	572.456	6	60	Target	Neutral	True
573.456	0.3	Control	0.6065999999999999	0.004	Yes	2.679	-0.004	3.0	GoodResponse	0	0.189	n/a	6	60	ButtonPress	Neutral	True
573.702	0.27	Control	0.6065999999999999	n/a	Yes	2.679	n/a	n/a	GoodResponse	0	n/a	n/a	6	60	Blank	Neutral	True
573.969	1.45	Control	0.6065999999999999	n/a	Yes	2.679	n/a	5.0	GoodResponse	0	0.048	573.017	6	60	Feedback	Neutral	True
575.423	2.679	Control	0.6065999999999999	n/a	Yes	2.679	n/a	n/a	GoodResponse	0	0.0	n/a	6	60	ISIslide	Neutral	True
578.131	0.25	Lose2	0.6129	0.001	Yes	2.969	0.031	n/a	GoodResponse	0	n/a	n/a	6	61	Cue	AvoidedLoss	True
578.382	4.0	Lose2	0.6129	0.0	Yes	2.969	0.001	n/a	GoodResponse	0	n/a	n/a	6	61	Fixation	AvoidedLoss	True
582.378	0.44	Lose2	0.6129	0.003	Yes	2.969	-0.003	3.0	GoodResponse	0	0.191	581.569	6	61	Target	AvoidedLoss	True
582.569	0.3	Lose2	0.6129	0.003	Yes	2.969	-0.003	3.0	GoodResponse	0	0.191	n/a	6	61	ButtonPress	AvoidedLoss	True
582.829	0.26	Lose2	0.6129	n/a	Yes	2.969	n/a	n/a	GoodResponse	0	n/a	n/a	6	61	Blank	AvoidedLoss	True
583.08	1.45	Lose2	0.6129	n/a	Yes	2.969	n/a	5.0	GoodResponse	0	0.01	582.09	6	61	Feedback	AvoidedLoss	True
584.534	2.969	Lose2	0.6129	n/a	Yes	2.969	n/a	n/a	GoodResponse	0	0.0	n/a	6	61	ISIslide	AvoidedLoss	True
587.526	0.25	Lose2	0.619	0.0	Yes	2.874	0.026	n/a	GoodResponse	0	n/a	n/a	6	62	Cue	AvoidedLoss	True
587.777	3.9	Lose2	0.619	0.0	Yes	2.874	0.001	n/a	GoodResponse	0	n/a	n/a	6	62	Fixation	AvoidedLoss	True
591.672	0.45	Lose2	0.619	0.004	Yes	2.874	-0.004	3.0	GoodResponse	0	0.163	590.835	6	62	Target	AvoidedLoss	True
591.835	0.3	Lose2	0.619	0.004	Yes	2.874	-0.004	3.0	GoodResponse	0	0.163	n/a	6	62	ButtonPress	AvoidedLoss	True
592.123	0.25	Lose2	0.619	n/a	Yes	2.874	n/a	n/a	GoodResponse	0	n/a	n/a	6	62	Blank	AvoidedLoss	True
592.374	1.45	Lose2	0.619	n/a	Yes	2.874	n/a	5.0	GoodResponse	0	0.033	591.407	6	62	Feedback	AvoidedLoss	True
593.828	2.874	Lose2	0.619	n/a	Yes	2.874	n/a	n/a	GoodResponse	0	0.0	n/a	6	62	ISIslide	AvoidedLoss	True
596.72	0.25	Lose2	0.625	0.001	Yes	2.63	0.02	n/a	GoodResponse	0	n/a	n/a	6	63	Cue	AvoidedLoss	True
596.971	4.05	Lose2	0.625	0.0	Yes	2.63	0.001	n/a	GoodResponse	0	n/a	n/a	6	63	Fixation	AvoidedLoss	True
601.017	0.46	Lose2	0.625	0.003	Yes	2.63	-0.003	3.0	GoodResponse	0	0.234	600.251	6	63	Target	AvoidedLoss	True
601.251	0.3	Lose2	0.625	0.003	Yes	2.63	-0.003	3.0	GoodResponse	0	0.234	n/a	6	63	ButtonPress	AvoidedLoss	True
601.485	0.24	Lose2	0.625	n/a	Yes	2.63	n/a	n/a	GoodResponse	0	n/a	n/a	6	63	Blank	AvoidedLoss	True
601.719	1.45	Lose2	0.625	n/a	Yes	2.63	n/a	5.0	GoodResponse	0	0.005	600.724	6	63	Feedback	AvoidedLoss	True
603.173	2.63	Lose2	0.625	n/a	Yes	2.63	n/a	n/a	GoodResponse	0	0.0	n/a	6	63	ISIslide	AvoidedLoss	True
605.831	0.25	Win2	0.6308	0.0	Yes	3.119	0.031	n/a	GoodResponse	1	n/a	n/a	7	64	Cue	Win	True
606.082	4.15	Win2	0.6308	0.0	Yes	3.119	0.001	n/a	GoodResponse	1	n/a	n/a	7	64	Fixation	Win	True
610.227	0.47	Win2	0.6308	0.004	Yes	3.119	-0.004	3.0	GoodResponse	1	0.201	609.428	7	64	Target	Win	True
610.428	0.3	Win2	0.6308	0.004	Yes	3.119	-0.004	3.0	GoodResponse	1	0.201	n/a	7	64	ButtonPress	Win	True
610.712	0.23	Win2	0.6308	n/a	Yes	3.119	n/a	n/a	GoodResponse	1	n/a	n/a	7	64	Blank	Win	True
610.93	1.45	Win2	0.6308	n/a	Yes	3.119	n/a	5.0	GoodResponse	1	0.013	609.943	7	64	Feedback	Win	True
612.384	3.119	Win2	0.6308	n/a	Yes	3.119	n/a	n/a	GoodResponse	1	0.0	n/a	7	64	ISIslide	Win	True
615.527	0.25	Control	0.6212	0.0	No	2.773	0.027	n/a	NoResponse	0	n/a	n/a	7	65	Cue	Neutral	False
615.777	4.0	Control	0.6212	0.0	No	2.773	0.0	n/a	NoResponse	0	n/a	n/a	7	65	Fixation	Neutral	False
619.773	0.48	Control	0.6212	0.004	No	2.773	-0.004	n/a	NoResponse	0	n/a	n/a	7	65	Target	Neutral	False
620.257	0.22	Control	0.6212	n/a	No	2.773	n/a	n/a	NoResponse	0	n/a	n/a	7	65	Blank	Neutral	False
620.475	1.45	Control	0.6212	n/a	No	2.773	n/a	5.0	NoResponse	0	0.029	619.504	7	65	Feedback	Neutral	False
621.929	2.773	Control	0.6212	n/a	No	2.773	n/a	n/a	NoResponse	0	0.0	n/a	7	65	ISIslide	Neutral	False
624.721	0.25	Win2	0.6269	0.0	Yes	2.779	0.021	n/a	GoodResponse	1	n/a	n/a	8	66	Cue	Win	True
624.972	3.9	Win2	0.6269	0.0	Yes	2.779	0.001	n/a	GoodResponse	1	n/a	n/a	8	66	Fixation	Win	True
628.867	0.49	Win2	0.6269	0.004	Yes	2.779	-0.004	3.0	GoodResponse	1	0.188	628.055	8	66	Target	Win	True
629.055	0.3	Win2	0.6269	0.004	Yes	2.779	-0.004	3.0	GoodResponse	1	0.188	n/a	8	66	ButtonPress	Win	True
629.368	0.21	Win2	0.6269	n/a	Yes	2.779	n/a	n/a	GoodResponse	1	n/a	n/a	8	66	Blank	Win	True
629.569	1.45	Win2	0.6269	n/a	Yes	2.779	n/a	5.0	GoodResponse	1	0.009	628.578	8	66	Feedback	Win	True
631.023	2.779	Win2	0.6269	n/a	Yes	2.779	n/a	n/a	GoodResponse	1	0.0	n/a	8	66	ISIslide	Win	True
633.815	0.25	Control	0.6324000000000001	0.0	Yes	2.735	0.015	n/a	GoodResponse	0	n/a	n/a	8	67	Cue	Neutral	True
634.065	3.95	Control	0.6324000000000001	0.0	Yes	2.735	0.0	n/a	GoodResponse	0	n/a	n/a	8	67	Fixation	Neutral	True
638.011	0.5	Control	0.6324000000000001	0.004	Yes	2.735	-0.004	3.0	GoodResponse	0	0.197	637.208	8	67	Target	Neutral	True
638.208	0.3	Control	0.6324000000000001	0.004	Yes	2.735	-0.004	3.0	GoodResponse	0	0.197	n/a	8	67	ButtonPress	Neutral	True
638.512	0.2	Control	0.6324000000000001	n/a	Yes	2.735	n/a	n/a	GoodResponse	0	n/a	n/a	8	67	Blank	Neutral	True
638.713	1.45	Control	0.6324000000000001	n/a	Yes	2.735	n/a	5.0	GoodResponse	0	0.034	637.747	8	67	Feedback	Neutral	True
640.167	2.735	Control	0.6324000000000001	n/a	Yes	2.735	n/a	n/a	GoodResponse	0	0.0	n/a	8	67	ISIslide	Neutral	True
642.925	0.25	Win2	0.6377	0.0	Yes	3.075	0.025	n/a	GoodResponse	1	n/a	n/a	9	68	Cue	Win	True
643.176	4.0	Win2	0.6377	0.0	Yes	3.075	0.001	n/a	GoodResponse	1	n/a	n/a	9	68	Fixation	Win	True
647.171	0.5	Win2	0.6377	0.004	Yes	3.075	-0.004	3.0	GoodResponse	1	0.238	646.409	9	68	Target	Win	True
647.409	0.3	Win2	0.6377	0.004	Yes	3.075	-0.004	3.0	GoodResponse	1	0.238	n/a	9	68	ButtonPress	Win	True
647.673	0.2	Win2	0.6377	n/a	Yes	3.075	n/a	n/a	GoodResponse	1	n/a	n/a	9	68	Blank	Win	True
647.873	1.45	Win2	0.6377	n/a	Yes	3.075	n/a	5.0	GoodResponse	1	0.045	646.918	9	68	Feedback	Win	True
649.328	3.075	Win2	0.6377	n/a	Yes	3.075	n/a	n/a	GoodResponse	1	0.0	n/a	9	68	ISIslide	Win	True
652.42	0.25	Win2	0.6429	0.0	Yes	3.23	0.02	n/a	GoodResponse	1	n/a	n/a	10	69	Cue	Win	True
652.671	3.95	Win2	0.6429	0.0	Yes	3.23	0.001	n/a	GoodResponse	1	n/a	n/a	10	69	Fixation	Win	True
656.616	0.5	Win2	0.6429	0.004	Yes	3.23	-0.004	3.0	GoodResponse	1	0.288	655.904	10	69	Target	Win	True
656.904	0.3	Win2	0.6429	0.004	Yes	3.23	-0.004	3.0	GoodResponse	1	0.288	n/a	10	69	ButtonPress	Win	True
657.118	0.2	Win2	0.6429	n/a	Yes	3.23	n/a	n/a	GoodResponse	1	n/a	n/a	10	69	Blank	Win	True
657.318	1.45	Win2	0.6429	n/a	Yes	3.23	n/a	5.0	GoodResponse	1	0.015	656.333	10	69	Feedback	Win	True
658.773	3.23	Win2	0.6429	n/a	Yes	3.23	n/a	n/a	GoodResponse	1	0.0	n/a	10	69	ISIslide	Win	True
662.016	0.25	Lose2	0.6479	0.0	Yes	3.034	0.016	n/a	GoodResponse	0	n/a	n/a	10	70	Cue	AvoidedLoss	True
662.266	4.05	Lose2	0.6479	0.0	Yes	3.034	0.0	n/a	GoodResponse	0	n/a	n/a	10	70	Fixation	AvoidedLoss	True
666.312	0.5	Lose2	0.6479	0.004	Yes	3.034	-0.004	3.0	GoodResponse	0	0.173	665.485	10	70	Target	AvoidedLoss	True
666.485	0.3	Lose2	0.6479	0.004	Yes	3.034	-0.004	3.0	GoodResponse	0	0.173	n/a	10	70	ButtonPress	AvoidedLoss	True
666.813	0.2	Lose2	0.6479	n/a	Yes	3.034	n/a	n/a	GoodResponse	0	n/a	n/a	10	70	Blank	AvoidedLoss	True
667.014	1.45	Lose2	0.6479	n/a	Yes	3.034	n/a	5.0	GoodResponse	0	0.026	666.04	10	70	Feedback	AvoidedLoss	True
668.468	3.034	Lose2	0.6479	n/a	Yes	3.034	n/a	n/a	GoodResponse	0	0.0	n/a	10	70	ISIslide	AvoidedLoss	True
671.527	0.25	Win2	0.6528	0.0	Yes	2.723	0.027	n/a	GoodResponse	1	n/a	n/a	11	71	Cue	Win	True
671.778	4.05	Win2	0.6528	0.0	Yes	2.723	0.001	n/a	GoodResponse	1	n/a	n/a	11	71	Fixation	Win	True
675.824	0.5	Win2	0.6528	0.003	Yes	2.723	-0.003	3.0	GoodResponse	1	0.209	675.033	11	71	Target	Win	True
676.033	0.3	Win2	0.6528	0.003	Yes	2.723	-0.003	3.0	GoodResponse	1	0.209	n/a	11	71	ButtonPress	Win	True
676.325	0.2	Win2	0.6528	n/a	Yes	2.723	n/a	n/a	GoodResponse	1	n/a	n/a	11	71	Blank	Win	True
676.526	1.45	Win2	0.6528	n/a	Yes	2.723	n/a	5.0	GoodResponse	1	0.027	675.553	11	71	Feedback	Win	True
677.98	2.723	Win2	0.6528	n/a	Yes	2.723	n/a	n/a	GoodResponse	1	0.0	n/a	11	71	ISIslide	Win	True
680.722	0.25	Win2	0.6575	0.0	Yes	2.778	0.022	n/a	GoodResponse	1	n/a	n/a	12	72	Cue	Win	True
680.972	4.1	Win2	0.6575	0.0	Yes	2.778	0.0	n/a	GoodResponse	1	n/a	n/a	12	72	Fixation	Win	True
685.068	0.5	Win2	0.6575	0.004	Yes	2.778	-0.004	3.0	GoodResponse	1	0.223	684.291	12	72	Target	Win	True
685.291	0.3	Win2	0.6575	0.004	Yes	2.778	-0.004	3.0	GoodResponse	1	0.223	n/a	12	72	ButtonPress	Win	True
685.569	0.2	Win2	0.6575	n/a	Yes	2.778	n/a	n/a	GoodResponse	1	n/a	n/a	12	72	Blank	Win	True
685.77	1.45	Win2	0.6575	n/a	Yes	2.778	n/a	5.0	GoodResponse	1	0.001	684.771	12	72	Feedback	Win	True
687.224	2.778	Win2	0.6575	n/a	Yes	2.778	n/a	n/a	GoodResponse	1	0.0	n/a	12	72	ISIslide	Win	True
690.016	0.25	Win2	0.6622	0.0	Yes	2.684	0.016	n/a	GoodResponse	1	n/a	n/a	13	73	Cue	Win	True
690.267	4.0	Win2	0.6622	0.0	Yes	2.684	0.001	n/a	GoodResponse	1	n/a	n/a	13	73	Fixation	Win	True
694.262	0.5	Win2	0.6622	0.004	Yes	2.684	-0.004	3.0	GoodResponse	1	0.22	693.482	13	73	Target	Win	True
694.482	0.3	Win2	0.6622	0.004	Yes	2.684	-0.004	3.0	GoodResponse	1	0.22	n/a	13	73	ButtonPress	Win	True
694.764	0.2	Win2	0.6622	n/a	Yes	2.684	n/a	n/a	GoodResponse	1	n/a	n/a	13	73	Blank	Win	True
694.964	1.45	Win2	0.6622	n/a	Yes	2.684	n/a	5.0	GoodResponse	1	0.027	693.991	13	73	Feedback	Win	True
696.418	2.684	Win2	0.6622	n/a	Yes	2.684	n/a	n/a	GoodResponse	1	0.0	n/a	13	73	ISIslide	Win	True
699.127	0.25	Lose2	0.6667000000000001	0.0	Yes	2.623	0.027	n/a	GoodResponse	0	n/a	n/a	13	74	Cue	AvoidedLoss	True
699.377	4.05	Lose2	0.6667000000000001	0.0	Yes	2.623	0.0	n/a	GoodResponse	0	n/a	n/a	13	74	Fixation	AvoidedLoss	True
703.423	0.5	Lose2	0.6667000000000001	0.004	Yes	2.623	-0.004	3.0	GoodResponse	0	0.215	702.638	13	74	Target	AvoidedLoss	True
703.638	0.3	Lose2	0.6667000000000001	0.004	Yes	2.623	-0.004	3.0	GoodResponse	0	0.215	n/a	13	74	ButtonPress	AvoidedLoss	True
703.924	0.2	Lose2	0.6667000000000001	n/a	Yes	2.623	n/a	n/a	GoodResponse	0	n/a	n/a	13	74	Blank	AvoidedLoss	True
704.125	1.45	Lose2	0.6667000000000001	n/a	Yes	2.623	n/a	5.0	GoodResponse	0	0.037	703.162	13	74	Feedback	AvoidedLoss	True
705.579	2.623	Lose2	0.6667000000000001	n/a	Yes	2.623	n/a	n/a	GoodResponse	0	0.0	n/a	13	74	ISIslide	AvoidedLoss	True
708.22	0.25	Lose2	0.6711	0.001	Yes	2.93	0.02	n/a	GoodResponse	0	n/a	n/a	13	75	Cue	AvoidedLoss	True
708.471	3.95	Lose2	0.6711	0.0	Yes	2.93	0.001	n/a	GoodResponse	0	n/a	n/a	13	75	Fixation	AvoidedLoss	True
712.416	0.49	Lose2	0.6711	0.004	Yes	2.93	-0.004	3.0	GoodResponse	0	0.196	711.612	13	75	Target	AvoidedLoss	True
712.612	0.3	Lose2	0.6711	0.004	Yes	2.93	-0.004	3.0	GoodResponse	0	0.196	n/a	13	75	ButtonPress	AvoidedLoss	True
712.918	0.21	Lose2	0.6711	n/a	Yes	2.93	n/a	n/a	GoodResponse	0	n/a	n/a	13	75	Blank	AvoidedLoss	True
713.118	1.45	Lose2	0.6711	n/a	Yes	2.93	n/a	5.0	GoodResponse	0	0.019	712.137	13	75	Feedback	AvoidedLoss	True
714.573	2.93	Lose2	0.6711	n/a	Yes	2.93	n/a	n/a	GoodResponse	0	0.0	n/a	13	75	ISIslide	AvoidedLoss	True
717.515	0.25	Control	0.6753	0.0	Yes	3.235	0.015	n/a	GoodResponse	0	n/a	n/a	13	76	Cue	Neutral	True
717.766	4.05	Control	0.6753	0.0	Yes	3.235	0.001	n/a	GoodResponse	0	n/a	n/a	13	76	Fixation	Neutral	True
721.811	0.48	Control	0.6753	0.004	Yes	3.235	-0.004	3.0	GoodResponse	0	0.184	720.995	13	76	Target	Neutral	True
721.995	0.3	Control	0.6753	0.004	Yes	3.235	-0.004	3.0	GoodResponse	0	0.184	n/a	13	76	ButtonPress	Neutral	True
722.296	0.22	Control	0.6753	n/a	Yes	3.235	n/a	n/a	GoodResponse	0	n/a	n/a	13	76	Blank	Neutral	True
722.513	1.45	Control	0.6753	n/a	Yes	3.235	n/a	5.0	GoodResponse	0	0.039	721.552	13	76	Feedback	Neutral	True
723.968	3.235	Control	0.6753	n/a	Yes	3.235	n/a	n/a	GoodResponse	0	0.0	n/a	13	76	ISIslide	Neutral	True
727.227	0.25	Lose2	0.6795	0.0	Yes	2.573	0.027	n/a	GoodResponse	0	n/a	n/a	13	77	Cue	AvoidedLoss	True
727.478	3.95	Lose2	0.6795	0.0	Yes	2.573	0.001	n/a	GoodResponse	0	n/a	n/a	13	77	Fixation	AvoidedLoss	True
731.423	0.47	Lose2	0.6795	0.004	Yes	2.573	-0.004	3.0	GoodResponse	0	0.204	730.627	13	77	Target	AvoidedLoss	True
731.627	0.3	Lose2	0.6795	0.004	Yes	2.573	-0.004	3.0	GoodResponse	0	0.204	n/a	13	77	ButtonPress	AvoidedLoss	True
731.908	0.23	Lose2	0.6795	n/a	Yes	2.573	n/a	n/a	GoodResponse	0	n/a	n/a	13	77	Blank	AvoidedLoss	True
732.125	1.45	Lose2	0.6795	n/a	Yes	2.573	n/a	5.0	GoodResponse	0	0.036	731.161	13	77	Feedback	AvoidedLoss	True
733.58	2.573	Lose2	0.6795	n/a	Yes	2.573	n/a	n/a	GoodResponse	0	0.0	n/a	13	77	ISIslide	AvoidedLoss	True
