onset	duration	cue_type	current_mean_accuracy	duration_error	is_hit	isi_adjusted	onset_delay	response	response_type	reward	rt	rt_time	total_reward	trial_number	trial_phase	trial_type	one_press
11.104	0.25	Control	0.0	0.0	No	2.946	0.004	n/a	NoResponse	0	n/a	n/a	0	0	Cue	Neutral	True
11.354	3.85	Control	0.0	0.001	No	2.946	0.0	n/a	NoResponse	0	n/a	n/a	0	0	Fixation	Neutral	True
15.216	0.4	Control	0.0	0.0	No	2.946	0.012	2.0	NoResponse	0	0.413	14.629	0	0	Target	Neutral	True
15.601	0.3	Control	0.0	n/a	No	2.946	n/a	n/a	NoResponse	0	n/a	n/a	0	0	Blank	Neutral	True
15.629	0.3	Control	0.0	0.0	No	2.946	0.012	2.0	NoResponse	0	0.413	n/a	0	0	ButtonPress	Neutral	True
15.901	1.45	Control	0.0	n/a	No	2.946	n/a	5.0	NoResponse	0	0.026	14.927	0	0	Feedback	Neutral	True
17.356	2.946	Control	0.0	n/a	No	2.946	n/a	n/a	NoResponse	0	0.0	n/a	0	0	ISIslide	Neutral	True
20.331	0.25	Lose2	0.5	0.001	Yes	2.769	0.031	n/a	GoodResponse	0	n/a	n/a	0	1	Cue	AvoidedLoss	True
20.582	4.0	Lose2	0.5	0.0	Yes	2.769	0.001	n/a	GoodResponse	0	n/a	n/a	0	1	Fixation	AvoidedLoss	True
24.577	0.41	Lose2	0.5	0.004	Yes	2.769	-0.004	2.0	GoodResponse	0	0.209	23.786	0	1	Target	AvoidedLoss	True
24.786	0.3	Lose2	0.5	0.004	Yes	2.769	-0.004	2.0	GoodResponse	0	0.209	n/a	0	1	ButtonPress	AvoidedLoss	True
24.995	0.29	Lose2	0.5	n/a	Yes	2.769	n/a	n/a	GoodResponse	0	n/a	n/a	0	1	Blank	AvoidedLoss	True
25.28	1.45	Lose2	0.5	n/a	Yes	2.769	n/a	5.0	GoodResponse	0	0.013	24.293	0	1	Feedback	AvoidedLoss	True
26.734	2.769	Lose2	0.5	n/a	Yes	2.769	n/a	n/a	GoodResponse	0	0.0	n/a	0	1	ISIslide	AvoidedLoss	True
29.526	0.25	Control	0.6667000000000001	0.0	Yes	2.574	0.026	n/a	GoodResponse	0	n/a	n/a	0	2	Cue	Neutral	True
29.776	4.1	Control	0.6667000000000001	0.0	Yes	2.574	0.0	n/a	GoodResponse	0	n/a	n/a	0	2	Fixation	Neutral	True
33.872	0.42	Control	0.6667000000000001	0.004	Yes	2.574	-0.004	2.0	GoodResponse	0	0.239	33.111	0	2	Target	Neutral	True
34.111	0.3	Control	0.6667000000000001	0.004	Yes	2.574	-0.004	2.0	GoodResponse	0	0.239	n/a	0	2	ButtonPress	Neutral	True
34.307	0.28	Control	0.6667000000000001	n/a	Yes	2.574	n/a	n/a	GoodResponse	0	n/a	n/a	0	2	Blank	Neutral	True
34.574	1.45	Control	0.6667000000000001	n/a	Yes	2.574	n/a	5.0	GoodResponse	0	0.036	33.61	0	2	Feedback	Neutral	True
36.028	2.574	Control	0.6667000000000001	n/a	Yes	2.574	n/a	n/a	GoodResponse	0	0.0	n/a	0	2	ISIslide	Neutral	True
38.62	0.25	Win2	0.75	0.0	Yes	2.83	0.02	n/a	GoodResponse	1	n/a	n/a	1	3	Cue	Win	True
38.87	3.95	Win2	0.75	0.0	Yes	2.83	0.0	n/a	GoodResponse	1	n/a	n/a	1	3	Fixation	Win	True
42.816	0.41	Win2	0.75	0.004	Yes	2.83	-0.004	2.0	GoodResponse	1	0.208	42.024	1	3	Target	Win	True
43.024	0.3	Win2	0.75	0.004	Yes	2.83	-0.004	2.0	GoodResponse	1	0.208	n/a	1	3	ButtonPress	Win	True
43.233	0.29	Win2	0.75	n/a	Yes	2.83	n/a	n/a	GoodResponse	1	n/a	n/a	1	3	Blank	Win	True
43.518	1.45	Win2	0.75	n/a	Yes	2.83	n/a	5.0	GoodResponse	1	0.019	42.537	1	3	Feedback	Win	True
44.972	2.83	Win2	0.75	n/a	Yes	2.83	n/a	n/a	GoodResponse	1	0.0	n/a	1	3	ISIslide	Win	True
47.831	0.25	Win2	0.8	0.0	Yes	3.269	0.031	n/a	GoodResponse	1	n/a	n/a	2	4	Cue	Win	True
48.081	4.0	Win2	0.8	0.0	Yes	3.269	0.0	n/a	GoodResponse	1	n/a	n/a	2	4	Fixation	Win	True
52.077	0.4	Win2	0.8	0.004	Yes	3.269	-0.004	2.0	GoodResponse	1	0.214	51.291	2	4	Target	Win	True
52.291	0.3	Win2	0.8	0.004	Yes	3.269	-0.004	2.0	GoodResponse	1	0.214	n/a	2	4	ButtonPress	Win	True
52.478	0.3	Win2	0.8	n/a	Yes	3.269	n/a	n/a	GoodResponse	1	n/a	n/a	2	4	Blank	Win	True
52.779	1.45	Win2	0.8	n/a	Yes	3.269	n/a	5.0	GoodResponse	1	0.027	51.806	2	4	Feedback	Win	True
54.233	3.269	Win2	0.8	n/a	Yes	3.269	n/a	n/a	GoodResponse	1	0.0	n/a	2	4	ISIslide	Win	True
57.526	0.25	Win2	0.8332999999999999	0.0	Yes	2.774	0.026	n/a	GoodResponse	1	n/a	n/a	3	5	Cue	Win	True
57.777	4.0	Win2	0.8332999999999999	0.0	Yes	2.774	0.001	n/a	GoodResponse	1	n/a	n/a	3	5	Fixation	Win	True
61.772	0.39	Win2	0.8332999999999999	0.004	Yes	2.774	-0.004	2.0	GoodResponse	1	0.222	60.994	3	5	Target	Win	True
61.994	0.3	Win2	0.8332999999999999	0.004	Yes	2.774	-0.004	2.0	GoodResponse	1	0.222	n/a	3	5	ButtonPress	Win	True
62.174	0.31	Win2	0.8332999999999999	n/a	Yes	2.774	n/a	n/a	GoodResponse	1	n/a	n/a	3	5	Blank	Win	True
62.474	1.45	Win2	0.8332999999999999	n/a	Yes	2.774	n/a	5.0	GoodResponse	1	0.038	61.512	3	5	Feedback	Win	True
63.929	2.774	Win2	0.8332999999999999	n/a	Yes	2.774	n/a	n/a	GoodResponse	1	0.0	n/a	3	5	ISIslide	Win	True
66.721	0.25	Lose2	0.8571	0.0	Yes	2.729	0.021	n/a	GoodResponse	0	n/a	n/a	3	6	Cue	AvoidedLoss	True
66.971	3.95	Lose2	0.8571	0.0	Yes	2.729	0.0	n/a	GoodResponse	0	n/a	n/a	3	6	Fixation	AvoidedLoss	True
70.933	0.38	Lose2	0.8571	0.0	Yes	2.729	0.012	2.0	GoodResponse	0	0.222	70.155	3	6	Target	AvoidedLoss	True
71.155	0.3	Lose2	0.8571	0.0	Yes	2.729	0.012	2.0	GoodResponse	0	0.222	n/a	3	6	ButtonPress	AvoidedLoss	True
71.301	0.32	Lose2	0.8571	n/a	Yes	2.729	n/a	n/a	GoodResponse	0	n/a	n/a	3	6	Blank	AvoidedLoss	True
71.619	1.45	Lose2	0.8571	n/a	Yes	2.729	n/a	5.0	GoodResponse	0	0.015	70.634	3	6	Feedback	AvoidedLoss	True
73.073	2.729	Lose2	0.8571	n/a	Yes	2.729	n/a	n/a	GoodResponse	0	0.0	n/a	3	6	ISIslide	AvoidedLoss	True
75.831	0.25	Lose2	0.875	0.0	Yes	4.019	0.031	n/a	GoodResponse	0	n/a	n/a	3	7	Cue	AvoidedLoss	True
76.082	4.05	Lose2	0.875	0.0	Yes	4.019	0.001	n/a	GoodResponse	0	n/a	n/a	3	7	Fixation	AvoidedLoss	True
80.127	0.37	Lose2	0.875	0.004	Yes	4.019	-0.004	2.0	GoodResponse	0	0.205	79.332	3	7	Target	AvoidedLoss	True
80.332	0.3	Lose2	0.875	0.004	Yes	4.019	-0.004	2.0	GoodResponse	0	0.205	n/a	3	7	ButtonPress	AvoidedLoss	True
80.512	0.33	Lose2	0.875	n/a	Yes	4.019	n/a	n/a	GoodResponse	0	n/a	n/a	3	7	Blank	AvoidedLoss	True
80.83	1.45	Lose2	0.875	n/a	Yes	4.019	n/a	5.0	GoodResponse	0	0.024	79.854	3	7	Feedback	AvoidedLoss	True
82.284	4.019	Lose2	0.875	n/a	Yes	4.019	n/a	n/a	GoodResponse	0	0.0	n/a	3	7	ISIslide	AvoidedLoss	True
86.329	0.25	Lose2	0.8889	0.0	Yes	3.021	0.029	n/a	GoodResponse	0	n/a	n/a	3	8	Cue	AvoidedLoss	True
86.58	3.95	Lose2	0.8889	0.0	Yes	3.021	0.001	n/a	GoodResponse	0	n/a	n/a	3	8	Fixation	AvoidedLoss	True
90.525	0.36	Lose2	0.8889	0.004	Yes	3.021	-0.004	2.0	GoodResponse	0	0.196	89.721	3	8	Target	AvoidedLoss	True
90.721	0.3	Lose2	0.8889	0.004	Yes	3.021	-0.004	2.0	GoodResponse	0	0.196	n/a	3	8	ButtonPress	AvoidedLoss	True
90.893	0.34	Lose2	0.8889	n/a	Yes	3.021	n/a	n/a	GoodResponse	0	n/a	n/a	3	8	Blank	AvoidedLoss	True
91.227	1.45	Lose2	0.8889	n/a	Yes	3.021	n/a	5.0	GoodResponse	0	0.017	90.244	3	8	Feedback	AvoidedLoss	True
92.682	3.021	Lose2	0.8889	n/a	Yes	3.021	n/a	n/a	GoodResponse	0	0.0	n/a	3	8	ISIslide	AvoidedLoss	True
95.724	0.25	Lose2	0.9	0.0	Yes	3.126	0.024	n/a	GoodResponse	0	n/a	n/a	3	9	Cue	AvoidedLoss	True
95.975	3.95	Lose2	0.9	0.0	Yes	3.126	0.001	n/a	GoodResponse	0	n/a	n/a	3	9	Fixation	AvoidedLoss	True
99.92	0.35	Lose2	0.9	0.004	Yes	3.126	-0.004	2.0	GoodResponse	0	0.243	99.163	3	9	Target	AvoidedLoss	True
100.163	0.3	Lose2	0.9	0.004	Yes	3.126	-0.004	2.0	GoodResponse	0	0.243	n/a	3	9	ButtonPress	AvoidedLoss	True
100.271	0.35	Lose2	0.9	n/a	Yes	3.126	n/a	n/a	GoodResponse	0	n/a	n/a	3	9	Blank	AvoidedLoss	True
100.622	1.45	Lose2	0.9	n/a	Yes	3.126	n/a	5.0	GoodResponse	0	0.037	99.659	3	9	Feedback	AvoidedLoss	True
102.077	3.126	Lose2	0.9	n/a	Yes	3.126	n/a	n/a	GoodResponse	0	0.0	n/a	3	9	ISIslide	AvoidedLoss	True
105.219	0.25	Control	0.9091	0.0	Yes	3.281	0.019	n/a	GoodResponse	0	n/a	n/a	3	10	Cue	Neutral	True
105.47	4.0	Control	0.9091	0.0	Yes	3.281	0.001	n/a	GoodResponse	0	n/a	n/a	3	10	Fixation	Neutral	True
109.465	0.34	Control	0.9091	0.004	Yes	3.281	-0.004	2.0	GoodResponse	0	0.192	108.657	3	10	Target	Neutral	True
109.657	0.3	Control	0.9091	0.004	Yes	3.281	-0.004	2.0	GoodResponse	0	0.192	n/a	3	10	ButtonPress	Neutral	True
109.817	0.36	Control	0.9091	n/a	Yes	3.281	n/a	n/a	GoodResponse	0	n/a	n/a	3	10	Blank	Neutral	True
110.168	1.45	Control	0.9091	n/a	Yes	3.281	n/a	5.0	GoodResponse	0	0.005	109.173	3	10	Feedback	Neutral	True
111.622	3.281	Control	0.9091	n/a	Yes	3.281	n/a	n/a	GoodResponse	0	0.0	n/a	3	10	ISIslide	Neutral	True
114.915	0.25	Lose2	0.8332999999999999	0.0	No	2.735	0.015	n/a	PrematurePress	-1	n/a	n/a	2	11	Cue	Loss	True
115.166	4.05	Lose2	0.8332999999999999	0.0	No	2.735	0.001	n/a	PrematurePress	-1	n/a	n/a	2	11	Fixation	Loss	True
119.211	0.33	Lose2	0.8332999999999999	0.004	No	2.735	-0.004	2.0	PrematurePress	-1	0.018	118.229	2	11	Target	Loss	True
119.229	0.3	Lose2	0.8332999999999999	0.004	No	2.735	-0.004	2.0	PrematurePress	-1	0.018	n/a	2	11	ButtonPress	Loss	True
119.546	0.37	Lose2	0.8332999999999999	n/a	No	2.735	n/a	n/a	PrematurePress	-1	n/a	n/a	2	11	Blank	Loss	True
119.913	1.45	Lose2	0.8332999999999999	n/a	No	2.735	n/a	5.0	PrematurePress	-1	0.015	118.928	2	11	Feedback	Loss	True
121.368	2.735	Lose2	0.8332999999999999	n/a	No	2.735	n/a	n/a	PrematurePress	-1	0.0	n/a	2	11	ISIslide	Loss	True
124.126	0.25	Control	0.8462000000000001	0.0	Yes	2.974	0.026	n/a	GoodResponse	0	n/a	n/a	2	12	Cue	Neutral	True
124.377	3.9	Control	0.8462000000000001	0.0	Yes	2.974	0.001	n/a	GoodResponse	0	n/a	n/a	2	12	Fixation	Neutral	True
128.272	0.32	Control	0.8462000000000001	0.004	Yes	2.974	-0.004	2.0	GoodResponse	0	0.256	127.528	2	12	Target	Neutral	True
128.528	0.3	Control	0.8462000000000001	0.004	Yes	2.974	-0.004	2.0	GoodResponse	0	0.256	n/a	2	12	ButtonPress	Neutral	True
128.606	0.38	Control	0.8462000000000001	n/a	Yes	2.974	n/a	n/a	GoodResponse	0	n/a	n/a	2	12	Blank	Neutral	True
128.974	1.45	Control	0.8462000000000001	n/a	Yes	2.974	n/a	5.0	GoodResponse	0	0.027	128.001	2	12	Feedback	Neutral	True
130.428	2.974	Control	0.8462000000000001	n/a	Yes	2.974	n/a	n/a	GoodResponse	0	0.0	n/a	2	12	ISIslide	Neutral	True
133.421	0.25	Control	0.8571	0.0	Yes	2.779	0.021	n/a	GoodResponse	0	n/a	n/a	2	13	Cue	Neutral	True
133.671	4.0	Control	0.8571	0.0	Yes	2.779	0.0	n/a	GoodResponse	0	n/a	n/a	2	13	Fixation	Neutral	True
137.667	0.31	Control	0.8571	0.004	Yes	2.779	-0.004	2.0	GoodResponse	0	0.263	136.93	2	13	Target	Neutral	True
137.93	0.3	Control	0.8571	0.004	Yes	2.779	-0.004	2.0	GoodResponse	0	0.263	n/a	2	13	ButtonPress	Neutral	True
137.984	0.39	Control	0.8571	n/a	Yes	2.779	n/a	n/a	GoodResponse	0	n/a	n/a	2	13	Blank	Neutral	True
138.369	1.45	Control	0.8571	n/a	Yes	2.779	n/a	5.0	GoodResponse	0	0.001	137.37	2	13	Feedback	Neutral	True
139.823	2.779	Control	0.8571	n/a	Yes	2.779	n/a	n/a	GoodResponse	0	0.0	n/a	2	13	ISIslide	Neutral	True
142.632	0.25	Win2	0.8667	0.0	Yes	2.668	0.032	n/a	GoodResponse	1	n/a	n/a	3	14	Cue	Win	True
142.882	4.1	Win2	0.8667	0.0	Yes	2.668	0.0	n/a	GoodResponse	1	n/a	n/a	3	14	Fixation	Win	True
146.978	0.3	Win2	0.8667	0.004	Yes	2.668	-0.004	2.0	GoodResponse	1	0.213	146.191	3	14	Target	Win	True
147.191	0.3	Win2	0.8667	0.004	Yes	2.668	-0.004	2.0	GoodResponse	1	0.213	n/a	3	14	ButtonPress	Win	True
147.279	0.4	Win2	0.8667	n/a	Yes	2.668	n/a	n/a	GoodResponse	1	n/a	n/a	3	14	Blank	Win	True
147.68	1.45	Win2	0.8667	n/a	Yes	2.668	n/a	5.0	GoodResponse	1	0.007	146.687	3	14	Feedback	Win	True
149.134	2.668	Win2	0.8667	n/a	Yes	2.668	n/a	n/a	GoodResponse	1	0.0	n/a	3	14	ISIslide	Win	True
151.826	0.25	Control	0.875	0.0	Yes	2.974	0.026	n/a	GoodResponse	0	n/a	n/a	3	15	Cue	Neutral	True
152.077	4.0	Control	0.875	0.0	Yes	2.974	0.001	n/a	GoodResponse	0	n/a	n/a	3	15	Fixation	Neutral	True
156.072	0.29	Control	0.875	0.004	Yes	2.974	-0.004	2.0	GoodResponse	0	0.231	155.303	3	15	Target	Neutral	True
156.303	0.3	Control	0.875	0.004	Yes	2.974	-0.004	2.0	GoodResponse	0	0.231	n/a	3	15	ButtonPress	Neutral	True
156.373	0.41	Control	0.875	n/a	Yes	2.974	n/a	n/a	GoodResponse	0	n/a	n/a	3	15	Blank	Neutral	True
156.774	1.45	Control	0.875	n/a	Yes	2.974	n/a	5.0	GoodResponse	0	0.031	155.805	3	15	Feedback	Neutral	True
158.228	2.974	Control	0.875	n/a	Yes	2.974	n/a	n/a	GoodResponse	0	0.0	n/a	3	15	ISIslide	Neutral	True
161.221	0.25	Win2	0.8824	0.0	Yes	2.879	0.021	n/a	GoodResponse	1	n/a	n/a	4	16	Cue	Win	True
161.471	4.0	Win2	0.8824	0.001	Yes	2.879	0.0	n/a	GoodResponse	1	n/a	n/a	4	16	Fixation	Win	True
165.467	0.28	Win2	0.8824	0.004	Yes	2.879	-0.004	2.0	GoodResponse	1	0.218	164.685	4	16	Target	Win	True
165.685	0.3	Win2	0.8824	0.004	Yes	2.879	-0.004	2.0	GoodResponse	1	0.218	n/a	4	16	ButtonPress	Win	True
165.751	0.42	Win2	0.8824	n/a	Yes	2.879	n/a	n/a	GoodResponse	1	n/a	n/a	4	16	Blank	Win	True
166.169	1.45	Win2	0.8824	n/a	Yes	2.879	n/a	5.0	GoodResponse	1	0.002	165.171	4	16	Feedback	Win	True
167.623	2.879	Win2	0.8824	n/a	Yes	2.879	n/a	n/a	GoodResponse	1	0.0	n/a	4	16	ISIslide	Win	True
170.515	0.25	Lose2	0.8889	0.0	Yes	2.735	0.015	n/a	GoodResponse	0	n/a	n/a	4	17	Cue	AvoidedLoss	True
170.766	3.95	Lose2	0.8889	0.0	Yes	2.735	0.001	n/a	GoodResponse	0	n/a	n/a	4	17	Fixation	AvoidedLoss	True
174.711	0.27	Lose2	0.8889	0.004	Yes	2.735	-0.004	2.0	GoodResponse	0	0.246	173.957	4	17	Target	AvoidedLoss	True
174.957	0.3	Lose2	0.8889	0.004	Yes	2.735	-0.004	2.0	GoodResponse	0	0.246	n/a	4	17	ButtonPress	AvoidedLoss	True
174.995	0.43	Lose2	0.8889	n/a	Yes	2.735	n/a	n/a	GoodResponse	0	n/a	n/a	4	17	Blank	AvoidedLoss	True
175.413	1.45	Lose2	0.8889	n/a	Yes	2.735	n/a	5.0	GoodResponse	0	0.026	174.439	4	17	Feedback	AvoidedLoss	True
176.868	2.735	Lose2	0.8889	n/a	Yes	2.735	n/a	n/a	GoodResponse	0	0.0	n/a	4	17	ISIslide	AvoidedLoss	True
179.626	0.25	Lose2	0.8946999999999999	0.0	Yes	2.724	0.026	n/a	GoodResponse	0	n/a	n/a	4	18	Cue	AvoidedLoss	True
179.877	4.05	Lose2	0.8946999999999999	0.0	Yes	2.724	0.001	n/a	GoodResponse	0	n/a	n/a	4	18	Fixation	AvoidedLoss	True
183.922	0.26	Lose2	0.8946999999999999	0.004	Yes	2.724	-0.004	2.0	GoodResponse	0	0.206	183.128	4	18	Target	AvoidedLoss	True
184.128	0.3	Lose2	0.8946999999999999	0.004	Yes	2.724	-0.004	2.0	GoodResponse	0	0.206	n/a	4	18	ButtonPress	AvoidedLoss	True
184.19	0.44	Lose2	0.8946999999999999	n/a	Yes	2.724	n/a	n/a	GoodResponse	0	n/a	n/a	4	18	Blank	AvoidedLoss	True
184.624	1.45	Lose2	0.8946999999999999	n/a	Yes	2.724	n/a	5.0	GoodResponse	0	0.035	183.659	4	18	Feedback	AvoidedLoss	True
186.079	2.724	Lose2	0.8946999999999999	n/a	Yes	2.724	n/a	n/a	GoodResponse	0	0.0	n/a	4	18	ISIslide	AvoidedLoss	True
188.82	0.25	Control	0.9	0.0	Yes	2.93	0.02	n/a	GoodResponse	0	n/a	n/a	4	19	Cue	Neutral	True
189.071	3.95	Control	0.9	0.0	Yes	2.93	0.001	n/a	GoodResponse	0	n/a	n/a	4	19	Fixation	Neutral	True
193.016	0.25	Control	0.9	0.004	Yes	2.93	-0.004	2.0	GoodResponse	0	0.228	192.244	4	19	Target	Neutral	True
193.244	0.3	Control	0.9	0.004	Yes	2.93	-0.004	2.0	GoodResponse	0	0.228	n/a	4	19	ButtonPress	Neutral	True
193.267	0.45	Control	0.9	n/a	Yes	2.93	n/a	n/a	GoodResponse	0	n/a	n/a	4	19	Blank	Neutral	True
193.718	1.45	Control	0.9	n/a	Yes	2.93	n/a	5.0	GoodResponse	0	0.014	192.732	4	19	Feedback	Neutral	True
195.173	2.93	Control	0.9	n/a	Yes	2.93	n/a	n/a	GoodResponse	0	0.0	n/a	4	19	ISIslide	Neutral	True
198.115	0.25	Control	0.9048	0.0	Yes	2.635	0.015	n/a	GoodResponse	0	n/a	n/a	4	20	Cue	Neutral	True
198.365	4.05	Control	0.9048	0.001	Yes	2.635	0.0	n/a	GoodResponse	0	n/a	n/a	4	20	Fixation	Neutral	True
202.411	0.24	Control	0.9048	0.004	Yes	2.635	-0.004	2.0	GoodResponse	0	0.215	201.626	4	20	Target	Neutral	True
202.626	0.3	Control	0.9048	0.004	Yes	2.635	-0.004	2.0	GoodResponse	0	0.215	n/a	4	20	ButtonPress	Neutral	True
202.662	0.46	Control	0.9048	n/a	Yes	2.635	n/a	n/a	GoodResponse	0	n/a	n/a	4	20	Blank	Neutral	True
203.113	1.45	Control	0.9048	n/a	Yes	2.635	n/a	5.0	GoodResponse	0	0.034	202.147	4	20	Feedback	Neutral	True
204.567	2.635	Control	0.9048	n/a	Yes	2.635	n/a	n/a	GoodResponse	0	0.0	n/a	4	20	ISIslide	Neutral	True
207.225	0.25	Control	0.8636	0.0	No	2.775	0.025	n/a	NoResponse	0	n/a	n/a	4	21	Cue	Neutral	True
207.476	4.1	Control	0.8636	0.0	No	2.775	0.001	n/a	NoResponse	0	n/a	n/a	4	21	Fixation	Neutral	True
211.572	0.23	Control	0.8636	0.003	No	2.775	-0.003	2.0	NoResponse	0	0.274	210.846	4	21	Target	Neutral	True
211.806	0.47	Control	0.8636	n/a	No	2.775	n/a	n/a	NoResponse	0	n/a	n/a	4	21	Blank	Neutral	True
211.846	0.3	Control	0.8636	0.003	No	2.775	-0.003	2.0	NoResponse	0	0.274	n/a	4	21	ButtonPress	Neutral	True
212.274	1.45	Control	0.8636	n/a	No	2.775	n/a	5.0	NoResponse	0	0.044	211.318	4	21	Feedback	Neutral	True
213.728	2.775	Control	0.8636	n/a	No	2.775	n/a	n/a	NoResponse	0	0.0	n/a	4	21	ISIslide	Neutral	True
216.52	0.25	Control	0.8261	0.0	No	2.78	0.02	n/a	LatePress	0	n/a	n/a	4	22	Cue	Neutral	True
216.771	4.0	Control	0.8261	0.0	No	2.78	0.001	n/a	LatePress	0	n/a	n/a	4	22	Fixation	Neutral	True
220.766	0.22	Control	0.8261	0.004	No	2.78	-0.004	2.0	LatePress	0	0.233	219.999	4	22	Target	Neutral	True
220.999	0.3	Control	0.8261	0.004	No	2.78	-0.004	2.0	LatePress	0	0.233	n/a	4	22	ButtonPress	Neutral	True
221	0.48	Control	0.8261	n/a	No	2.78	n/a	n/a	LatePress	0	n/a	n/a	4	22	Blank	Neutral	True
221.468	1.45	Control	0.8261	n/a	No	2.78	n/a	5.0	LatePress	0	0.02	220.488	4	22	Feedback	Neutral	True
222.922	2.78	Control	0.8261	n/a	No	2.78	n/a	n/a	LatePress	0	0.0	n/a	4	22	ISIslide	Neutral	True
225.731	0.25	Control	0.7917000000000001	0.0	No	2.769	0.031	n/a	PrematurePress	0	n/a	n/a	4	23	Cue	Neutral	True
225.982	3.9	Control	0.7917000000000001	0.0	No	2.769	0.001	n/a	PrematurePress	0	n/a	n/a	4	23	Fixation	Neutral	True
229.877	0.21	Control	0.7917000000000001	0.004	No	2.769	-0.004	2.0	PrematurePress	0	0.072	228.949	4	23	Target	Neutral	True
229.949	0.3	Control	0.7917000000000001	0.004	No	2.769	-0.004	2.0	PrematurePress	0	0.072	n/a	4	23	ButtonPress	Neutral	True
230.094	0.49	Control	0.7917000000000001	n/a	No	2.769	n/a	n/a	PrematurePress	0	n/a	n/a	4	23	Blank	Neutral	True
230.579	1.45	Control	0.7917000000000001	n/a	No	2.769	n/a	5.0	PrematurePress	0	0.031	229.61	4	23	Feedback	Neutral	True
232.033	2.769	Control	0.7917000000000001	n/a	No	2.769	n/a	n/a	PrematurePress	0	0.0	n/a	4	23	ISIslide	Neutral	True
234.825	0.25	Win2	0.76	0.0	No	3.125	0.025	n/a	NoResponse	0	n/a	n/a	4	24	Cue	MissedWin	True
235.076	3.95	Win2	0.76	0.0	No	3.125	0.001	n/a	NoResponse	0	n/a	n/a	4	24	Fixation	MissedWin	True
239.021	0.2	Win2	0.76	0.004	No	3.125	-0.004	2.0	NoResponse	0	0.252	238.273	4	24	Target	MissedWin	True
239.221	0.5	Win2	0.76	n/a	No	3.125	n/a	n/a	NoResponse	0	n/a	n/a	4	24	Blank	MissedWin	True
239.273	0.3	Win2	0.76	0.004	No	3.125	-0.004	2.0	NoResponse	0	0.252	n/a	4	24	ButtonPress	MissedWin	True
239.723	1.45	Win2	0.76	n/a	No	3.125	n/a	5.0	NoResponse	0	0.009	238.732	4	24	Feedback	MissedWin	True
241.177	3.125	Win2	0.76	n/a	No	3.125	n/a	n/a	NoResponse	0	0.0	n/a	4	24	ISIslide	MissedWin	True
244.32	0.25	Win2	0.7308	0.0	No	3.08	0.02	n/a	NoResponse	0	n/a	n/a	4	25	Cue	MissedWin	True
244.571	4.0	Win2	0.7308	0.0	No	3.08	0.001	n/a	NoResponse	0	n/a	n/a	4	25	Fixation	MissedWin	True
248.566	0.19	Win2	0.7308	0.004	No	3.08	-0.004	2.0	NoResponse	0	0.214	247.78	4	25	Target	MissedWin	True
248.767	0.51	Win2	0.7308	n/a	No	3.08	n/a	n/a	NoResponse	0	n/a	n/a	4	25	Blank	MissedWin	True
248.78	0.3	Win2	0.7308	0.004	No	3.08	-0.004	2.0	NoResponse	0	0.214	n/a	4	25	ButtonPress	MissedWin	True
249.268	1.45	Win2	0.7308	n/a	No	3.08	n/a	5.0	NoResponse	0	0.025	248.293	4	25	Feedback	MissedWin	True
250.723	3.08	Win2	0.7308	n/a	No	3.08	n/a	n/a	NoResponse	0	0.0	n/a	4	25	ISIslide	MissedWin	True
253.832	0.25	Win2	0.7037	0.0	No	2.918	0.032	n/a	NoResponse	0	n/a	n/a	4	26	Cue	MissedWin	True
254.083	3.95	Win2	0.7037	0.0	No	2.918	0.001	n/a	NoResponse	0	n/a	n/a	4	26	Fixation	MissedWin	True
258.028	0.18	Win2	0.7037	0.004	No	2.918	-0.004	2.0	NoResponse	0	0.212	257.24	4	26	Target	MissedWin	True
258.212	0.52	Win2	0.7037	n/a	No	2.918	n/a	n/a	NoResponse	0	n/a	n/a	4	26	Blank	MissedWin	True
258.24	0.3	Win2	0.7037	0.004	No	2.918	-0.004	2.0	NoResponse	0	0.212	n/a	4	26	ButtonPress	MissedWin	True
258.73	1.45	Win2	0.7037	n/a	No	2.918	n/a	5.0	NoResponse	0	0.027	257.757	4	26	Feedback	MissedWin	True
260.184	2.918	Win2	0.7037	n/a	No	2.918	n/a	n/a	NoResponse	0	0.0	n/a	4	26	ISIslide	MissedWin	True
263.126	0.25	Lose2	0.6786	0.0	No	2.824	0.026	n/a	NoResponse	-1	n/a	n/a	3	27	Cue	Loss	True
263.377	4.05	Lose2	0.6786	0.0	No	2.824	0.001	n/a	NoResponse	-1	n/a	n/a	3	27	Fixation	Loss	True
267.423	0.17	Lose2	0.6786	0.003	No	2.824	-0.003	2.0	NoResponse	-1	0.198	266.621	3	27	Target	Loss	True
267.607	0.53	Lose2	0.6786	n/a	No	2.824	n/a	n/a	NoResponse	-1	n/a	n/a	3	27	Blank	Loss	True
267.621	0.3	Lose2	0.6786	0.003	No	2.824	-0.003	2.0	NoResponse	-1	0.198	n/a	3	27	ButtonPress	Loss	True
268.125	1.45	Lose2	0.6786	n/a	No	2.824	n/a	5.0	NoResponse	-1	0.046	267.171	3	27	Feedback	Loss	True
269.579	2.824	Lose2	0.6786	n/a	No	2.824	n/a	n/a	NoResponse	-1	0.0	n/a	3	27	ISIslide	Loss	True
272.421	0.25	Control	0.6552	0.0	No	2.829	0.021	n/a	NoResponse	0	n/a	n/a	3	28	Cue	Neutral	True
272.672	4.05	Control	0.6552	0.0	No	2.829	0.001	n/a	NoResponse	0	n/a	n/a	3	28	Fixation	Neutral	True
276.717	0.16	Control	0.6552	0.004	No	2.829	-0.004	2.0	NoResponse	0	0.193	275.91	3	28	Target	Neutral	True
276.884	0.54	Control	0.6552	n/a	No	2.829	n/a	n/a	NoResponse	0	n/a	n/a	3	28	Blank	Neutral	True
276.91	0.3	Control	0.6552	0.004	No	2.829	-0.004	2.0	NoResponse	0	0.193	n/a	3	28	ButtonPress	Neutral	True
277.419	1.45	Control	0.6552	n/a	No	2.829	n/a	5.0	NoResponse	0	0.021	276.44	3	28	Feedback	Neutral	True
278.874	2.829	Control	0.6552	n/a	No	2.829	n/a	n/a	NoResponse	0	0.0	n/a	3	28	ISIslide	Neutral	True
281.716	0.25	Lose2	0.6333	0.0	No	2.834	0.016	n/a	NoResponse	-1	n/a	n/a	2	29	Cue	Loss	True
281.966	3.95	Lose2	0.6333	0.0	No	2.834	0.0	n/a	NoResponse	-1	n/a	n/a	2	29	Fixation	Loss	True
285.928	0.16	Lose2	0.6333	0.0	No	2.834	0.012	2.0	NoResponse	-1	0.238	285.166	2	29	Target	Loss	True
286.079	0.54	Lose2	0.6333	n/a	No	2.834	n/a	n/a	NoResponse	-1	n/a	n/a	2	29	Blank	Loss	True
286.166	0.3	Lose2	0.6333	0.0	No	2.834	0.012	2.0	NoResponse	-1	0.238	n/a	2	29	ButtonPress	Loss	True
286.614	1.45	Lose2	0.6333	n/a	No	2.834	n/a	5.0	NoResponse	-1	0.0	285.614	2	29	Feedback	Loss	True
288.068	2.834	Lose2	0.6333	n/a	No	2.834	n/a	n/a	NoResponse	-1	0.0	n/a	2	29	ISIslide	Loss	True
290.926	0.25	Win2	0.6129	0.001	No	2.774	0.026	n/a	NoResponse	0	n/a	n/a	2	30	Cue	MissedWin	True
291.177	3.9	Win2	0.6129	0.0	No	2.774	0.001	n/a	NoResponse	0	n/a	n/a	2	30	Fixation	MissedWin	True
295.072	0.17	Win2	0.6129	0.004	No	2.774	-0.004	2.0	NoResponse	0	0.192	294.264	2	30	Target	MissedWin	True
295.256	0.53	Win2	0.6129	n/a	No	2.774	n/a	n/a	NoResponse	0	n/a	n/a	2	30	Blank	MissedWin	True
295.264	0.3	Win2	0.6129	0.004	No	2.774	-0.004	2.0	NoResponse	0	0.192	n/a	2	30	ButtonPress	MissedWin	True
295.774	1.45	Win2	0.6129	n/a	No	2.774	n/a	5.0	NoResponse	0	0.007	294.781	2	30	Feedback	MissedWin	True
297.229	2.774	Win2	0.6129	n/a	No	2.774	n/a	n/a	NoResponse	0	0.0	n/a	2	30	ISIslide	MissedWin	True
300.02	0.25	Lose2	0.5938	0.0	No	2.83	0.02	n/a	NoResponse	-1	n/a	n/a	1	31	Cue	Loss	True
300.271	4.05	Lose2	0.5938	0.0	No	2.83	0.001	n/a	NoResponse	-1	n/a	n/a	1	31	Fixation	Loss	True
304.317	0.18	Lose2	0.5938	0.003	No	2.83	-0.003	2.0	NoResponse	-1	0.225	303.542	1	31	Target	Loss	True
304.501	0.52	Lose2	0.5938	n/a	No	2.83	n/a	n/a	NoResponse	-1	n/a	n/a	1	31	Blank	Loss	True
304.542	0.3	Lose2	0.5938	0.003	No	2.83	-0.003	2.0	NoResponse	-1	0.225	n/a	1	31	ButtonPress	Loss	True
305.019	1.45	Lose2	0.5938	n/a	No	2.83	n/a	5.0	NoResponse	-1	0.03	304.049	1	31	Feedback	Loss	True
306.473	2.83	Lose2	0.5938	n/a	No	2.83	n/a	n/a	NoResponse	-1	0.0	n/a	1	31	ISIslide	Loss	True
309.332	0.25	Lose2	0.5758	0.0	No	2.618	0.032	n/a	NoResponse	-1	n/a	n/a	0	32	Cue	Loss	True
309.582	4.15	Lose2	0.5758	0.001	No	2.618	0.0	n/a	NoResponse	-1	n/a	n/a	0	32	Fixation	Loss	True
313.728	0.19	Lose2	0.5758	0.004	No	2.618	-0.004	2.0	NoResponse	-1	0.221	312.949	0	32	Target	Loss	True
313.929	0.51	Lose2	0.5758	n/a	No	2.618	n/a	n/a	NoResponse	-1	n/a	n/a	0	32	Blank	Loss	True
313.949	0.3	Lose2	0.5758	0.004	No	2.618	-0.004	2.0	NoResponse	-1	0.221	n/a	0	32	ButtonPress	Loss	True
314.43	1.45	Lose2	0.5758	n/a	No	2.618	n/a	5.0	NoResponse	-1	0.034	313.464	0	32	Feedback	Loss	True
315.885	2.618	Lose2	0.5758	n/a	No	2.618	n/a	n/a	NoResponse	-1	0.0	n/a	0	32	ISIslide	Loss	True
318.526	0.25	Win2	0.5588000000000001	0.0	No	2.674	0.026	n/a	NoResponse	0	n/a	n/a	0	33	Cue	MissedWin	True
318.777	4.0	Win2	0.5588000000000001	0.0	No	2.674	0.001	n/a	NoResponse	0	n/a	n/a	0	33	Fixation	MissedWin	True
322.772	0.2	Win2	0.5588000000000001	0.004	No	2.674	-0.004	2.0	NoResponse	0	0.21	321.982	0	33	Target	MissedWin	True
322.973	0.5	Win2	0.5588000000000001	n/a	No	2.674	n/a	n/a	NoResponse	0	n/a	n/a	0	33	Blank	MissedWin	True
322.982	0.3	Win2	0.5588000000000001	0.004	No	2.674	-0.004	2.0	NoResponse	0	0.21	n/a	0	33	ButtonPress	MissedWin	True
323.474	1.45	Win2	0.5588000000000001	n/a	No	2.674	n/a	5.0	NoResponse	0	0.014	322.488	0	33	Feedback	MissedWin	True
324.928	2.674	Win2	0.5588000000000001	n/a	No	2.674	n/a	n/a	NoResponse	0	0.0	n/a	0	33	ISIslide	MissedWin	True
327.62	0.25	Lose2	0.5714	0.0	Yes	2.63	0.02	n/a	GoodResponse	0	n/a	n/a	0	34	Cue	AvoidedLoss	True
327.871	4.05	Lose2	0.5714	0.0	Yes	2.63	0.001	n/a	GoodResponse	0	n/a	n/a	0	34	Fixation	AvoidedLoss	True
331.916	0.21	Lose2	0.5714	0.004	Yes	2.63	-0.004	2.0	GoodResponse	0	0.186	331.102	0	34	Target	AvoidedLoss	True
332.102	0.3	Lose2	0.5714	0.004	Yes	2.63	-0.004	2.0	GoodResponse	0	0.186	n/a	0	34	ButtonPress	AvoidedLoss	True
332.133	0.49	Lose2	0.5714	n/a	Yes	2.63	n/a	n/a	GoodResponse	0	n/a	n/a	0	34	Blank	AvoidedLoss	True
332.618	1.45	Lose2	0.5714	n/a	Yes	2.63	n/a	5.0	GoodResponse	0	0.041	331.659	0	34	Feedback	AvoidedLoss	True
334.073	2.63	Lose2	0.5714	n/a	Yes	2.63	n/a	n/a	GoodResponse	0	0.0	n/a	0	34	ISIslide	AvoidedLoss	True
336.731	0.25	Lose2	0.5832999999999999	0.0	Yes	2.669	0.031	n/a	GoodResponse	0	n/a	n/a	0	35	Cue	AvoidedLoss	True
336.981	4.0	Lose2	0.5832999999999999	0.0	Yes	2.669	0.0	n/a	GoodResponse	0	n/a	n/a	0	35	Fixation	AvoidedLoss	True
340.977	0.22	Lose2	0.5832999999999999	0.004	Yes	2.669	-0.004	2.0	GoodResponse	0	0.167	340.144	0	35	Target	AvoidedLoss	True
341.144	0.3	Lose2	0.5832999999999999	0.004	Yes	2.669	-0.004	2.0	GoodResponse	0	0.167	n/a	0	35	ButtonPress	AvoidedLoss	True
341.211	0.48	Lose2	0.5832999999999999	n/a	Yes	2.669	n/a	n/a	GoodResponse	0	n/a	n/a	0	35	Blank	AvoidedLoss	True
341.679	1.45	Lose2	0.5832999999999999	n/a	Yes	2.669	n/a	5.0	GoodResponse	0	0.006	340.685	0	35	Feedback	AvoidedLoss	True
343.133	2.669	Lose2	0.5832999999999999	n/a	Yes	2.669	n/a	2.0	GoodResponse	0	0.592	n/a	0	35	ISIslide	AvoidedLoss	True
345.808	0.25	Control	0.5946	0.0	Yes	2.692	0.008	n/a	GoodResponse	0	n/a	n/a	0	36	Cue	Neutral	True
346.059	4.0	Control	0.5946	0.0	Yes	2.692	0.001	n/a	GoodResponse	0	n/a	n/a	0	36	Fixation	Neutral	True
350.054	0.23	Control	0.5946	0.004	Yes	2.692	-0.004	2.0	GoodResponse	0	0.214	349.268	0	36	Target	Neutral	True
350.268	0.3	Control	0.5946	0.004	Yes	2.692	-0.004	2.0	GoodResponse	0	0.214	n/a	0	36	ButtonPress	Neutral	True
350.288	0.47	Control	0.5946	n/a	Yes	2.692	n/a	n/a	GoodResponse	0	n/a	n/a	0	36	Blank	Neutral	True
350.756	1.45	Control	0.5946	n/a	Yes	2.692	n/a	5.0	GoodResponse	0	0.001	349.757	0	36	Feedback	Neutral	True
352.21	2.692	Control	0.5946	n/a	Yes	2.692	n/a	n/a	GoodResponse	0	0.0	n/a	0	36	ISIslide	Neutral	True
354.918	0.25	Win2	0.6053000000000001	0.001	Yes	2.882	0.018	n/a	GoodResponse	1	n/a	n/a	1	37	Cue	Win	True
355.169	4.0	Win2	0.6053000000000001	0.0	Yes	2.882	0.001	n/a	GoodResponse	1	n/a	n/a	1	37	Fixation	Win	True
359.164	0.24	Win2	0.6053000000000001	0.004	Yes	2.882	-0.004	2.0	GoodResponse	1	0.215	358.379	1	37	Target	Win	True
359.379	0.3	Win2	0.6053000000000001	0.004	Yes	2.882	-0.004	2.0	GoodResponse	1	0.215	n/a	1	37	ButtonPress	Win	True
359.415	0.46	Win2	0.6053000000000001	n/a	Yes	2.882	n/a	n/a	GoodResponse	1	n/a	n/a	1	37	Blank	Win	True
359.867	1.45	Win2	0.6053000000000001	n/a	Yes	2.882	n/a	5.0	GoodResponse	1	0.011	358.878	1	37	Feedback	Win	True
361.321	2.882	Win2	0.6053000000000001	n/a	Yes	2.882	n/a	n/a	GoodResponse	1	0.0	n/a	1	37	ISIslide	Win	True
364.23	0.25	Lose2	0.6154	0.0	Yes	2.82	0.03	n/a	GoodResponse	0	n/a	n/a	1	38	Cue	AvoidedLoss	True
364.48	3.95	Lose2	0.6154	0.001	Yes	2.82	0.0	n/a	GoodResponse	0	n/a	n/a	1	38	Fixation	AvoidedLoss	True
368.426	0.25	Lose2	0.6154	0.004	Yes	2.82	-0.004	2.0	GoodResponse	0	0.201	367.627	1	38	Target	AvoidedLoss	True
368.627	0.3	Lose2	0.6154	0.004	Yes	2.82	-0.004	2.0	GoodResponse	0	0.201	n/a	1	38	ButtonPress	AvoidedLoss	True
368.676	0.45	Lose2	0.6154	n/a	Yes	2.82	n/a	n/a	GoodResponse	0	n/a	n/a	1	38	Blank	AvoidedLoss	True
369.128	1.45	Lose2	0.6154	n/a	Yes	2.82	n/a	5.0	GoodResponse	0	0.018	368.146	1	38	Feedback	AvoidedLoss	True
370.582	2.82	Lose2	0.6154	n/a	Yes	2.82	n/a	n/a	GoodResponse	0	0.0	n/a	1	38	ISIslide	AvoidedLoss	True
373.424	0.25	Win2	0.6	0.0	No	2.976	0.024	n/a	PrematurePress	0	n/a	n/a	1	39	Cue	MissedWin	True
373.675	4.1	Win2	0.6	0.0	No	2.976	0.001	n/a	PrematurePress	0	n/a	n/a	1	39	Fixation	MissedWin	True
377.77	0.26	Win2	0.6	0.004	No	2.976	-0.004	2.0	PrematurePress	0	0.073	376.843	1	39	Target	MissedWin	True
377.843	0.3	Win2	0.6	0.004	No	2.976	-0.004	2.0	PrematurePress	0	0.073	n/a	1	39	ButtonPress	MissedWin	True
378.038	0.44	Win2	0.6	n/a	No	2.976	n/a	n/a	PrematurePress	0	n/a	n/a	1	39	Blank	MissedWin	True
378.472	1.45	Win2	0.6	n/a	No	2.976	n/a	5.0	PrematurePress	0	0.04	377.512	1	39	Feedback	MissedWin	True
379.927	2.976	Win2	0.6	n/a	No	2.976	n/a	n/a	PrematurePress	0	0.0	n/a	1	39	ISIslide	MissedWin	True
382.919	0.25	Win2	0.6098	0.0	Yes	2.731	0.019	n/a	GoodResponse	1	n/a	n/a	2	40	Cue	Win	True
383.17	3.95	Win2	0.6098	0.0	Yes	2.731	0.001	n/a	GoodResponse	1	n/a	n/a	2	40	Fixation	Win	True
387.115	0.27	Win2	0.6098	0.004	Yes	2.731	-0.004	2.0	GoodResponse	1	0.262	386.377	2	40	Target	Win	True
387.377	0.3	Win2	0.6098	0.004	Yes	2.731	-0.004	2.0	GoodResponse	1	0.262	n/a	2	40	ButtonPress	Win	True
387.399	0.43	Win2	0.6098	n/a	Yes	2.731	n/a	n/a	GoodResponse	1	n/a	n/a	2	40	Blank	Win	True
387.817	1.45	Win2	0.6098	n/a	Yes	2.731	n/a	5.0	GoodResponse	1	0.012	386.829	2	40	Feedback	Win	True
389.271	2.731	Win2	0.6098	n/a	Yes	2.731	n/a	n/a	GoodResponse	1	0.0	n/a	2	40	ISIslide	Win	True
392.03	0.25	Win2	0.619	0.0	Yes	2.77	0.03	n/a	GoodResponse	1	n/a	n/a	3	41	Cue	Win	True
392.281	3.9	Win2	0.619	0.0	Yes	2.77	0.001	n/a	GoodResponse	1	n/a	n/a	3	41	Fixation	Win	True
396.176	0.28	Win2	0.619	0.004	Yes	2.77	-0.004	2.0	GoodResponse	1	0.198	395.374	3	41	Target	Win	True
396.374	0.3	Win2	0.619	0.004	Yes	2.77	-0.004	2.0	GoodResponse	1	0.198	n/a	3	41	ButtonPress	Win	True
396.46	0.42	Win2	0.619	n/a	Yes	2.77	n/a	n/a	GoodResponse	1	n/a	n/a	3	41	Blank	Win	True
396.878	1.45	Win2	0.619	n/a	Yes	2.77	n/a	5.0	GoodResponse	1	0.025	395.903	3	41	Feedback	Win	True
398.332	2.77	Win2	0.619	n/a	Yes	2.77	n/a	n/a	GoodResponse	1	0.0	n/a	3	41	ISIslide	Win	True
401.124	0.25	Control	0.6047	0.0	No	2.926	0.024	n/a	NoResponse	0	n/a	n/a	3	42	Cue	Neutral	True
401.374	3.85	Control	0.6047	0.001	No	2.926	0.0	n/a	NoResponse	0	n/a	n/a	3	42	Fixation	Neutral	True
405.236	0.29	Control	0.6047	0.0	No	2.926	0.012	2.0	NoResponse	0	0.311	404.547	3	42	Target	Neutral	True
405.52	0.41	Control	0.6047	n/a	No	2.926	n/a	n/a	NoResponse	0	n/a	n/a	3	42	Blank	Neutral	True
405.547	0.3	Control	0.6047	0.0	No	2.926	0.012	2.0	NoResponse	0	0.311	n/a	3	42	ButtonPress	Neutral	True
405.921	1.45	Control	0.6047	n/a	No	2.926	n/a	5.0	NoResponse	0	0.007	404.928	3	42	Feedback	Neutral	True
407.376	2.926	Control	0.6047	n/a	No	2.926	n/a	n/a	NoResponse	0	0.0	n/a	3	42	ISIslide	Neutral	True
410.318	0.25	Win2	0.6136	0.0	Yes	3.182	0.018	n/a	GoodResponse	1	n/a	n/a	4	43	Cue	Win	True
410.569	4.0	Win2	0.6136	0.0	Yes	3.182	0.001	n/a	GoodResponse	1	n/a	n/a	4	43	Fixation	Win	True
414.564	0.3	Win2	0.6136	0.004	Yes	3.182	-0.004	2.0	GoodResponse	1	0.233	413.797	4	43	Target	Win	True
414.797	0.3	Win2	0.6136	0.004	Yes	3.182	-0.004	2.0	GoodResponse	1	0.233	n/a	4	43	ButtonPress	Win	True
414.865	0.4	Win2	0.6136	n/a	Yes	3.182	n/a	n/a	GoodResponse	1	n/a	n/a	4	43	Blank	Win	True
415.266	1.45	Win2	0.6136	n/a	Yes	3.182	n/a	5.0	GoodResponse	1	0.027	414.293	4	43	Feedback	Win	True
416.72	3.182	Win2	0.6136	n/a	Yes	3.182	n/a	n/a	GoodResponse	1	0.0	n/a	4	43	ISIslide	Win	True
419.93	0.25	Win2	0.6222	0.0	Yes	2.97	0.03	n/a	GoodResponse	1	n/a	n/a	5	44	Cue	Win	True
420.181	4.0	Win2	0.6222	0.0	Yes	2.97	0.001	n/a	GoodResponse	1	n/a	n/a	5	44	Fixation	Win	True
424.176	0.31	Win2	0.6222	0.004	Yes	2.97	-0.004	2.0	GoodResponse	1	0.213	423.389	5	44	Target	Win	True
424.389	0.3	Win2	0.6222	0.004	Yes	2.97	-0.004	2.0	GoodResponse	1	0.213	n/a	5	44	ButtonPress	Win	True
424.494	0.39	Win2	0.6222	n/a	Yes	2.97	n/a	n/a	GoodResponse	1	n/a	n/a	5	44	Blank	Win	True
424.878	1.45	Win2	0.6222	n/a	Yes	2.97	n/a	5.0	GoodResponse	1	0.025	423.903	5	44	Feedback	Win	True
426.333	2.97	Win2	0.6222	n/a	Yes	2.97	n/a	n/a	GoodResponse	1	0.0	n/a	5	44	ISIslide	Win	True
429.325	0.25	Control	0.6304	0.0	Yes	2.875	0.025	n/a	GoodResponse	0	n/a	n/a	5	45	Cue	Neutral	True
429.576	4.1	Control	0.6304	0.0	Yes	2.875	0.001	n/a	GoodResponse	0	n/a	n/a	5	45	Fixation	Neutral	True
433.671	0.32	Control	0.6304	0.004	Yes	2.875	-0.004	2.0	GoodResponse	0	0.234	432.905	5	45	Target	Neutral	True
433.905	0.3	Control	0.6304	0.004	Yes	2.875	-0.004	2.0	GoodResponse	0	0.234	n/a	5	45	ButtonPress	Neutral	True
434.006	0.38	Control	0.6304	n/a	Yes	2.875	n/a	n/a	GoodResponse	0	n/a	n/a	5	45	Blank	Neutral	True
434.373	1.45	Control	0.6304	n/a	Yes	2.875	n/a	5.0	GoodResponse	0	0.001	433.374	5	45	Feedback	Neutral	True
435.828	2.875	Control	0.6304	n/a	Yes	2.875	n/a	n/a	GoodResponse	0	0.0	n/a	5	45	ISIslide	Neutral	True
438.72	0.25	Lose2	0.6383	0.0	Yes	3.38	0.02	n/a	GoodResponse	0	n/a	n/a	5	46	Cue	AvoidedLoss	True
438.971	4.0	Lose2	0.6383	0.0	Yes	3.38	0.001	n/a	GoodResponse	0	n/a	n/a	5	46	Fixation	AvoidedLoss	True
442.966	0.33	Lose2	0.6383	0.004	Yes	3.38	-0.004	2.0	GoodResponse	0	0.189	442.155	5	46	Target	AvoidedLoss	True
443.155	0.3	Lose2	0.6383	0.004	Yes	3.38	-0.004	2.0	GoodResponse	0	0.189	n/a	5	46	ButtonPress	AvoidedLoss	True
443.3	0.37	Lose2	0.6383	n/a	Yes	3.38	n/a	n/a	GoodResponse	0	n/a	n/a	5	46	Blank	AvoidedLoss	True
443.668	1.45	Lose2	0.6383	n/a	Yes	3.38	n/a	5.0	GoodResponse	0	0.015	442.683	5	46	Feedback	AvoidedLoss	True
445.122	3.38	Lose2	0.6383	n/a	Yes	3.38	n/a	n/a	GoodResponse	0	0.0	n/a	5	46	ISIslide	AvoidedLoss	True
448.516	0.25	Lose2	0.6457999999999999	0.0	Yes	2.684	0.016	n/a	GoodResponse	0	n/a	n/a	5	47	Cue	AvoidedLoss	True
448.767	4.0	Lose2	0.6457999999999999	0.0	Yes	2.684	0.001	n/a	GoodResponse	0	n/a	n/a	5	47	Fixation	AvoidedLoss	True
452.762	0.34	Lose2	0.6457999999999999	0.004	Yes	2.684	-0.004	2.0	GoodResponse	0	0.211	451.973	5	47	Target	AvoidedLoss	True
452.973	0.3	Lose2	0.6457999999999999	0.004	Yes	2.684	-0.004	2.0	GoodResponse	0	0.211	n/a	5	47	ButtonPress	AvoidedLoss	True
453.113	0.36	Lose2	0.6457999999999999	n/a	Yes	2.684	n/a	n/a	GoodResponse	0	n/a	n/a	5	47	Blank	AvoidedLoss	True
453.464	1.45	Lose2	0.6457999999999999	n/a	Yes	2.684	n/a	5.0	GoodResponse	0	0.024	452.488	5	47	Feedback	AvoidedLoss	True
454.918	2.684	Lose2	0.6457999999999999	n/a	Yes	2.684	n/a	n/a	GoodResponse	0	0.0	n/a	5	47	ISIslide	AvoidedLoss	True
457.627	0.25	Lose2	0.6531	0.0	Yes	3.023	0.027	n/a	GoodResponse	0	n/a	n/a	5	48	Cue	AvoidedLoss	True
457.877	3.95	Lose2	0.6531	0.0	Yes	3.023	0.0	n/a	GoodResponse	0	n/a	n/a	5	48	Fixation	AvoidedLoss	True
461.839	0.35	Lose2	0.6531	0.0	Yes	3.023	0.012	2.0	GoodResponse	0	0.236	461.075	5	48	Target	AvoidedLoss	True
462.075	0.3	Lose2	0.6531	0.0	Yes	3.023	0.012	2.0	GoodResponse	0	0.236	n/a	5	48	ButtonPress	AvoidedLoss	True
462.174	0.35	Lose2	0.6531	n/a	Yes	3.023	n/a	n/a	GoodResponse	0	n/a	n/a	5	48	Blank	AvoidedLoss	True
462.525	1.45	Lose2	0.6531	n/a	Yes	3.023	n/a	5.0	GoodResponse	0	0.036	461.561	5	48	Feedback	AvoidedLoss	True
463.979	3.023	Lose2	0.6531	n/a	Yes	3.023	n/a	n/a	GoodResponse	0	0.0	n/a	5	48	ISIslide	AvoidedLoss	True
467.021	0.25	Control	0.66	0.0	Yes	2.879	0.021	n/a	GoodResponse	0	n/a	n/a	5	49	Cue	Neutral	True
467.272	4.0	Control	0.66	0.0	Yes	2.879	0.001	n/a	GoodResponse	0	n/a	n/a	5	49	Fixation	Neutral	True
471.267	0.36	Control	0.66	0.004	Yes	2.879	-0.004	2.0	GoodResponse	0	0.22	470.487	5	49	Target	Neutral	True
471.487	0.3	Control	0.66	0.004	Yes	2.879	-0.004	2.0	GoodResponse	0	0.22	n/a	5	49	ButtonPress	Neutral	True
471.635	0.34	Control	0.66	n/a	Yes	2.879	n/a	n/a	GoodResponse	0	n/a	n/a	5	49	Blank	Neutral	True
471.97	1.45	Control	0.66	n/a	Yes	2.879	n/a	5.0	GoodResponse	0	0.006	470.976	5	49	Feedback	Neutral	True
473.424	2.879	Control	0.66	n/a	Yes	2.879	n/a	n/a	GoodResponse	0	0.0	n/a	5	49	ISIslide	Neutral	True
476.316	0.25	Control	0.6667000000000001	0.0	Yes	2.784	0.016	n/a	GoodResponse	0	n/a	n/a	5	50	Cue	Neutral	True
476.567	4.0	Control	0.6667000000000001	0.0	Yes	2.784	0.001	n/a	GoodResponse	0	n/a	n/a	5	50	Fixation	Neutral	True
480.562	0.36	Control	0.6667000000000001	0.004	Yes	2.784	-0.004	2.0	GoodResponse	0	0.223	479.785	5	50	Target	Neutral	True
480.785	0.3	Control	0.6667000000000001	0.004	Yes	2.784	-0.004	2.0	GoodResponse	0	0.223	n/a	5	50	ButtonPress	Neutral	True
480.93	0.34	Control	0.6667000000000001	n/a	Yes	2.784	n/a	n/a	GoodResponse	0	n/a	n/a	5	50	Blank	Neutral	True
481.264	1.45	Control	0.6667000000000001	n/a	Yes	2.784	n/a	5.0	GoodResponse	0	0.029	480.293	5	50	Feedback	Neutral	True
482.718	2.784	Control	0.6667000000000001	n/a	Yes	2.784	n/a	n/a	GoodResponse	0	0.0	n/a	5	50	ISIslide	Neutral	True
485.527	0.25	Control	0.6731	0.0	Yes	2.723	0.027	n/a	GoodResponse	0	n/a	n/a	5	51	Cue	Neutral	True
485.778	3.95	Control	0.6731	0.0	Yes	2.723	0.001	n/a	GoodResponse	0	n/a	n/a	5	51	Fixation	Neutral	True
489.723	0.35	Control	0.6731	0.004	Yes	2.723	-0.004	2.0	GoodResponse	0	0.227	488.95	5	51	Target	Neutral	True
489.95	0.3	Control	0.6731	0.004	Yes	2.723	-0.004	2.0	GoodResponse	0	0.227	n/a	5	51	ButtonPress	Neutral	True
490.074	0.35	Control	0.6731	n/a	Yes	2.723	n/a	n/a	GoodResponse	0	n/a	n/a	5	51	Blank	Neutral	True
490.425	1.45	Control	0.6731	n/a	Yes	2.723	n/a	5.0	GoodResponse	0	0.039	489.464	5	51	Feedback	Neutral	True
491.879	2.723	Control	0.6731	n/a	Yes	2.723	n/a	n/a	GoodResponse	0	0.0	n/a	5	51	ISIslide	Neutral	True
494.621	0.25	Control	0.6792	0.0	Yes	2.629	0.021	n/a	GoodResponse	0	n/a	n/a	5	52	Cue	Neutral	True
494.872	4.05	Control	0.6792	0.0	Yes	2.629	0.001	n/a	GoodResponse	0	n/a	n/a	5	52	Fixation	Neutral	True
498.917	0.34	Control	0.6792	0.004	Yes	2.629	-0.004	2.0	GoodResponse	0	0.249	498.166	5	52	Target	Neutral	True
499.166	0.3	Control	0.6792	0.004	Yes	2.629	-0.004	2.0	GoodResponse	0	0.249	n/a	5	52	ButtonPress	Neutral	True
499.268	0.36	Control	0.6792	n/a	Yes	2.629	n/a	n/a	GoodResponse	0	n/a	n/a	5	52	Blank	Neutral	True
499.619	1.45	Control	0.6792	n/a	Yes	2.629	n/a	5.0	GoodResponse	0	0.016	498.635	5	52	Feedback	Neutral	True
501.074	2.629	Control	0.6792	n/a	Yes	2.629	n/a	n/a	GoodResponse	0	0.0	n/a	5	52	ISIslide	Neutral	True
503.715	0.25	Win2	0.6851999999999999	0.0	Yes	2.935	0.015	n/a	GoodResponse	1	n/a	n/a	6	53	Cue	Win	True
503.966	4.05	Win2	0.6851999999999999	0.0	Yes	2.935	0.001	n/a	GoodResponse	1	n/a	n/a	6	53	Fixation	Win	True
508.011	0.33	Win2	0.6851999999999999	0.004	Yes	2.935	-0.004	2.0	GoodResponse	1	0.24	507.251	6	53	Target	Win	True
508.251	0.3	Win2	0.6851999999999999	0.004	Yes	2.935	-0.004	2.0	GoodResponse	1	0.24	n/a	6	53	ButtonPress	Win	True
508.345	0.37	Win2	0.6851999999999999	n/a	Yes	2.935	n/a	n/a	GoodResponse	1	n/a	n/a	6	53	Blank	Win	True
508.713	1.45	Win2	0.6851999999999999	n/a	Yes	2.935	n/a	5.0	GoodResponse	1	0.043	507.756	6	53	Feedback	Win	True
510.167	2.935	Win2	0.6851999999999999	n/a	Yes	2.935	n/a	n/a	GoodResponse	1	0.0	n/a	6	53	ISIslide	Win	True
513.126	0.25	Win2	0.6909000000000001	0.0	Yes	2.724	0.026	n/a	GoodResponse	1	n/a	n/a	7	54	Cue	Win	True
513.377	3.95	Win2	0.6909000000000001	0.0	Yes	2.724	0.001	n/a	GoodResponse	1	n/a	n/a	7	54	Fixation	Win	True
517.322	0.32	Win2	0.6909000000000001	0.004	Yes	2.724	-0.004	2.0	GoodResponse	1	0.232	516.554	7	54	Target	Win	True
517.554	0.3	Win2	0.6909000000000001	0.004	Yes	2.724	-0.004	2.0	GoodResponse	1	0.232	n/a	7	54	ButtonPress	Win	True
517.657	0.38	Win2	0.6909000000000001	n/a	Yes	2.724	n/a	n/a	GoodResponse	1	n/a	n/a	7	54	Blank	Win	True
518.024	1.45	Win2	0.6909000000000001	n/a	Yes	2.724	n/a	5.0	GoodResponse	1	0.049	517.073	7	54	Feedback	Win	True
519.479	2.724	Win2	0.6909000000000001	n/a	Yes	2.724	n/a	n/a	GoodResponse	1	0.0	n/a	7	54	ISIslide	Win	True
522.22	0.25	Control	0.6964	0.0	Yes	3.03	0.02	n/a	GoodResponse	0	n/a	n/a	7	55	Cue	Neutral	True
522.471	3.95	Control	0.6964	0.0	Yes	3.03	0.001	n/a	GoodResponse	0	n/a	n/a	7	55	Fixation	Neutral	True
526.416	0.31	Control	0.6964	0.004	Yes	3.03	-0.004	2.0	GoodResponse	0	0.286	525.702	7	55	Target	Neutral	True
526.702	0.3	Control	0.6964	0.004	Yes	3.03	-0.004	2.0	GoodResponse	0	0.286	n/a	7	55	ButtonPress	Neutral	True
526.734	0.39	Control	0.6964	n/a	Yes	3.03	n/a	n/a	GoodResponse	0	n/a	n/a	7	55	Blank	Neutral	True
527.118	1.45	Control	0.6964	n/a	Yes	3.03	n/a	5.0	GoodResponse	0	0.028	526.146	7	55	Feedback	Neutral	True
528.573	3.03	Control	0.6964	n/a	Yes	3.03	n/a	n/a	GoodResponse	0	0.0	n/a	7	55	ISIslide	Neutral	True
531.615	0.25	Control	0.7018000000000001	0.0	Yes	2.835	0.015	n/a	GoodResponse	0	n/a	n/a	7	56	Cue	Neutral	True
531.866	3.95	Control	0.7018000000000001	0.0	Yes	2.835	0.001	n/a	GoodResponse	0	n/a	n/a	7	56	Fixation	Neutral	True
535.811	0.3	Control	0.7018000000000001	0.004	Yes	2.835	-0.004	2.0	GoodResponse	0	0.249	535.06	7	56	Target	Neutral	True
536.06	0.3	Control	0.7018000000000001	0.004	Yes	2.835	-0.004	2.0	GoodResponse	0	0.249	n/a	7	56	ButtonPress	Neutral	True
536.112	0.4	Control	0.7018000000000001	n/a	Yes	2.835	n/a	n/a	GoodResponse	0	n/a	n/a	7	56	Blank	Neutral	True
536.513	1.45	Control	0.7018000000000001	n/a	Yes	2.835	n/a	5.0	GoodResponse	0	0.048	535.561	7	56	Feedback	Neutral	True
537.968	2.835	Control	0.7018000000000001	n/a	Yes	2.835	n/a	n/a	GoodResponse	0	0.0	n/a	7	56	ISIslide	Neutral	True
540.826	0.25	Control	0.7069	0.0	Yes	3.474	0.026	n/a	GoodResponse	0	n/a	n/a	7	57	Cue	Neutral	True
541.077	4.0	Control	0.7069	0.0	Yes	3.474	0.001	n/a	GoodResponse	0	n/a	n/a	7	57	Fixation	Neutral	True
545.072	0.29	Control	0.7069	0.004	Yes	3.474	-0.004	2.0	GoodResponse	0	0.282	544.354	7	57	Target	Neutral	True
545.354	0.3	Control	0.7069	0.004	Yes	3.474	-0.004	2.0	GoodResponse	0	0.282	n/a	7	57	ButtonPress	Neutral	True
545.373	0.41	Control	0.7069	n/a	Yes	3.474	n/a	n/a	GoodResponse	0	n/a	n/a	7	57	Blank	Neutral	True
545.774	1.45	Control	0.7069	n/a	Yes	3.474	n/a	5.0	GoodResponse	0	0.007	544.781	7	57	Feedback	Neutral	True
547.229	3.474	Control	0.7069	n/a	Yes	3.474	n/a	n/a	GoodResponse	0	0.0	n/a	7	57	ISIslide	Neutral	True
550.722	0.25	Win2	0.7119	0.001	Yes	2.728	0.022	n/a	GoodResponse	1	n/a	n/a	8	58	Cue	Win	True
550.973	4.05	Win2	0.7119	0.0	Yes	2.728	0.001	n/a	GoodResponse	1	n/a	n/a	8	58	Fixation	Win	True
555.019	0.28	Win2	0.7119	0.003	Yes	2.728	-0.003	2.0	GoodResponse	1	0.252	554.271	8	58	Target	Win	True
555.271	0.3	Win2	0.7119	0.003	Yes	2.728	-0.003	2.0	GoodResponse	1	0.252	n/a	8	58	ButtonPress	Win	True
555.303	0.42	Win2	0.7119	n/a	Yes	2.728	n/a	n/a	GoodResponse	1	n/a	n/a	8	58	Blank	Win	True
555.721	1.45	Win2	0.7119	n/a	Yes	2.728	n/a	5.0	GoodResponse	1	0.011	554.732	8	58	Feedback	Win	True
557.175	2.728	Win2	0.7119	n/a	Yes	2.728	n/a	n/a	GoodResponse	1	0.0	n/a	8	58	ISIslide	Win	True
559.917	0.25	Lose2	0.7167	0.0	Yes	2.683	0.017	n/a	GoodResponse	0	n/a	n/a	8	59	Cue	AvoidedLoss	True
560.167	4.0	Lose2	0.7167	0.001	Yes	2.683	0.0	n/a	GoodResponse	0	n/a	n/a	8	59	Fixation	AvoidedLoss	True
564.163	0.27	Lose2	0.7167	0.004	Yes	2.683	-0.004	2.0	GoodResponse	0	0.211	563.374	8	59	Target	AvoidedLoss	True
564.374	0.3	Lose2	0.7167	0.004	Yes	2.683	-0.004	2.0	GoodResponse	0	0.211	n/a	8	59	ButtonPress	AvoidedLoss	True
564.447	0.43	Lose2	0.7167	n/a	Yes	2.683	n/a	n/a	GoodResponse	0	n/a	n/a	8	59	Blank	AvoidedLoss	True
564.865	1.45	Lose2	0.7167	n/a	Yes	2.683	n/a	5.0	GoodResponse	0	0.038	563.903	8	59	Feedback	AvoidedLoss	True
566.319	2.683	Lose2	0.7167	n/a	Yes	2.683	n/a	n/a	GoodResponse	0	0.0	n/a	8	59	ISIslide	AvoidedLoss	True
569.027	0.25	Control	0.7049	0.0	No	2.673	0.027	n/a	NoResponse	0	n/a	n/a	8	60	Cue	Neutral	True
569.278	4.0	Control	0.7049	0.0	No	2.673	0.001	n/a	NoResponse	0	n/a	n/a	8	60	Fixation	Neutral	True
573.273	0.26	Control	0.7049	0.004	No	2.673	-0.004	2.0	NoResponse	0	0.268	572.541	8	60	Target	Neutral	True
573.541	0.44	Control	0.7049	n/a	No	2.673	n/a	n/a	NoResponse	0	n/a	n/a	8	60	Blank	Neutral	True
573.541	0.3	Control	0.7049	0.004	No	2.673	-0.004	2.0	NoResponse	0	0.268	n/a	8	60	ButtonPress	Neutral	True
573.976	1.45	Control	0.7049	n/a	No	2.673	n/a	5.0	NoResponse	0	0.049	573.025	8	60	Feedback	Neutral	True
575.43	2.673	Control	0.7049	n/a	No	2.673	n/a	n/a	NoResponse	0	0.0	n/a	8	60	ISIslide	Neutral	True
578.121	0.25	Lose2	0.7097	0.0	Yes	2.979	0.021	n/a	GoodResponse	0	n/a	n/a	8	61	Cue	AvoidedLoss	True
578.372	4.0	Lose2	0.7097	0.0	Yes	2.979	0.001	n/a	GoodResponse	0	n/a	n/a	8	61	Fixation	AvoidedLoss	True
582.367	0.25	Lose2	0.7097	0.004	Yes	2.979	-0.004	2.0	GoodResponse	0	0.219	581.586	8	61	Target	AvoidedLoss	True
582.586	0.3	Lose2	0.7097	0.004	Yes	2.979	-0.004	2.0	GoodResponse	0	0.219	n/a	8	61	ButtonPress	AvoidedLoss	True
582.618	0.45	Lose2	0.7097	n/a	Yes	2.979	n/a	n/a	GoodResponse	0	n/a	n/a	8	61	Blank	AvoidedLoss	True
583.07	1.45	Lose2	0.7097	n/a	Yes	2.979	n/a	5.0	GoodResponse	0	0.028	582.098	8	61	Feedback	AvoidedLoss	True
584.524	2.979	Lose2	0.7097	n/a	Yes	2.979	n/a	n/a	GoodResponse	0	0.0	n/a	8	61	ISIslide	AvoidedLoss	True
587.516	0.25	Lose2	0.7143	0.0	Yes	2.884	0.016	n/a	GoodResponse	0	n/a	n/a	8	62	Cue	AvoidedLoss	True
587.767	3.9	Lose2	0.7143	0.0	Yes	2.884	0.001	n/a	GoodResponse	0	n/a	n/a	8	62	Fixation	AvoidedLoss	True
591.662	0.24	Lose2	0.7143	0.004	Yes	2.884	-0.004	2.0	GoodResponse	0	0.218	590.88	8	62	Target	AvoidedLoss	True
591.88	0.3	Lose2	0.7143	0.004	Yes	2.884	-0.004	2.0	GoodResponse	0	0.218	n/a	8	62	ButtonPress	AvoidedLoss	True
591.913	0.46	Lose2	0.7143	n/a	Yes	2.884	n/a	n/a	GoodResponse	0	n/a	n/a	8	62	Blank	AvoidedLoss	True
592.364	1.45	Lose2	0.7143	n/a	Yes	2.884	n/a	5.0	GoodResponse	0	0.003	591.367	8	62	Feedback	AvoidedLoss	True
593.818	2.884	Lose2	0.7143	n/a	Yes	2.884	n/a	n/a	GoodResponse	0	0.0	n/a	8	62	ISIslide	AvoidedLoss	True
596.727	0.25	Lose2	0.7188	0.0	Yes	2.623	0.027	n/a	GoodResponse	0	n/a	n/a	8	63	Cue	AvoidedLoss	True
596.978	4.05	Lose2	0.7188	0.0	Yes	2.623	0.001	n/a	GoodResponse	0	n/a	n/a	8	63	Fixation	AvoidedLoss	True
601.023	0.23	Lose2	0.7188	0.004	Yes	2.623	-0.004	2.0	GoodResponse	0	0.208	600.231	8	63	Target	AvoidedLoss	True
601.231	0.3	Lose2	0.7188	0.004	Yes	2.623	-0.004	2.0	GoodResponse	0	0.208	n/a	8	63	ButtonPress	AvoidedLoss	True
601.257	0.47	Lose2	0.7188	n/a	Yes	2.623	n/a	n/a	GoodResponse	0	n/a	n/a	8	63	Blank	AvoidedLoss	True
601.725	1.45	Lose2	0.7188	n/a	Yes	2.623	n/a	5.0	GoodResponse	0	0.007	600.732	8	63	Feedback	AvoidedLoss	True
603.18	2.623	Lose2	0.7188	n/a	Yes	2.623	n/a	n/a	GoodResponse	0	0.0	n/a	8	63	ISIslide	AvoidedLoss	True
605.821	0.25	Win2	0.7231000000000001	0.0	Yes	3.129	0.021	n/a	GoodResponse	1	n/a	n/a	9	64	Cue	Win	True
606.072	4.15	Win2	0.7231000000000001	0.0	Yes	3.129	0.001	n/a	GoodResponse	1	n/a	n/a	9	64	Fixation	Win	True
610.218	0.22	Win2	0.7231000000000001	0.003	Yes	3.129	-0.003	2.0	GoodResponse	1	0.208	609.426	9	64	Target	Win	True
610.426	0.3	Win2	0.7231000000000001	0.003	Yes	3.129	-0.003	2.0	GoodResponse	1	0.208	n/a	9	64	ButtonPress	Win	True
610.452	0.48	Win2	0.7231000000000001	n/a	Yes	3.129	n/a	n/a	GoodResponse	1	n/a	n/a	9	64	Blank	Win	True
610.92	1.45	Win2	0.7231000000000001	n/a	Yes	3.129	n/a	5.0	GoodResponse	1	0.031	609.951	9	64	Feedback	Win	True
612.374	3.129	Win2	0.7231000000000001	n/a	Yes	3.129	n/a	n/a	GoodResponse	1	0.0	n/a	9	64	ISIslide	Win	True
615.517	0.25	Control	0.7121	0.0	No	2.783	0.017	n/a	NoResponse	0	n/a	n/a	9	65	Cue	Neutral	True
615.768	4.0	Control	0.7121	0.0	No	2.783	0.001	n/a	NoResponse	0	n/a	n/a	9	65	Fixation	Neutral	True
619.763	0.21	Control	0.7121	0.004	No	2.783	-0.004	2.0	NoResponse	0	0.255	619.018	9	65	Target	Neutral	True
619.98	0.49	Control	0.7121	n/a	No	2.783	n/a	n/a	NoResponse	0	n/a	n/a	9	65	Blank	Neutral	True
620.018	0.3	Control	0.7121	0.004	No	2.783	-0.004	2.0	NoResponse	0	0.255	n/a	9	65	ButtonPress	Neutral	True
620.465	1.45	Control	0.7121	n/a	No	2.783	n/a	5.0	NoResponse	0	0.047	619.512	9	65	Feedback	Neutral	True
621.919	2.783	Control	0.7121	n/a	No	2.783	n/a	n/a	NoResponse	0	0.0	n/a	9	65	ISIslide	Neutral	True
624.728	0.25	Win2	0.7015	0.0	No	2.772	0.028	n/a	NoResponse	0	n/a	n/a	9	66	Cue	MissedWin	True
624.979	3.9	Win2	0.7015	0.0	No	2.772	0.001	n/a	NoResponse	0	n/a	n/a	9	66	Fixation	MissedWin	True
628.874	0.2	Win2	0.7015	0.004	No	2.772	-0.004	2.0	NoResponse	0	0.281	628.155	9	66	Target	MissedWin	True
629.074	0.5	Win2	0.7015	n/a	No	2.772	n/a	n/a	NoResponse	0	n/a	n/a	9	66	Blank	MissedWin	True
629.155	0.3	Win2	0.7015	0.004	No	2.772	-0.004	2.0	NoResponse	0	0.281	n/a	9	66	ButtonPress	MissedWin	True
629.576	1.45	Win2	0.7015	n/a	No	2.772	n/a	5.0	NoResponse	0	0.01	628.586	9	66	Feedback	MissedWin	True
631.03	2.772	Win2	0.7015	n/a	No	2.772	n/a	n/a	NoResponse	0	0.0	n/a	9	66	ISIslide	MissedWin	True
633.822	0.25	Control	0.6912	0.0	No	2.728	0.022	n/a	NoResponse	0	n/a	n/a	9	67	Cue	Neutral	True
634.072	3.95	Control	0.6912	0.001	No	2.728	0.0	n/a	NoResponse	0	n/a	n/a	9	67	Fixation	Neutral	True
638.018	0.19	Control	0.6912	0.004	No	2.728	-0.004	2.0	NoResponse	0	0.22	637.238	9	67	Target	Neutral	True
638.218	0.51	Control	0.6912	n/a	No	2.728	n/a	n/a	NoResponse	0	n/a	n/a	9	67	Blank	Neutral	True
638.238	0.3	Control	0.6912	0.004	No	2.728	-0.004	2.0	NoResponse	0	0.22	n/a	9	67	ButtonPress	Neutral	True
638.72	1.45	Control	0.6912	n/a	No	2.728	n/a	5.0	NoResponse	0	0.037	637.757	9	67	Feedback	Neutral	True
640.174	2.728	Control	0.6912	n/a	No	2.728	n/a	n/a	NoResponse	0	0.0	n/a	9	67	ISIslide	Neutral	True
642.916	0.25	Win2	0.6812	0.0	No	3.084	0.016	n/a	NoResponse	0	n/a	n/a	9	68	Cue	MissedWin	True
643.166	4.0	Win2	0.6812	0.001	No	3.084	0.0	n/a	NoResponse	0	n/a	n/a	9	68	Fixation	MissedWin	True
647.162	0.18	Win2	0.6812	0.004	No	3.084	-0.004	2.0	NoResponse	0	0.202	646.364	9	68	Target	MissedWin	True
647.346	0.52	Win2	0.6812	n/a	No	3.084	n/a	n/a	NoResponse	0	n/a	n/a	9	68	Blank	MissedWin	True
647.364	0.3	Win2	0.6812	0.004	No	3.084	-0.004	2.0	NoResponse	0	0.202	n/a	9	68	ButtonPress	MissedWin	True
647.864	1.45	Win2	0.6812	n/a	No	3.084	n/a	5.0	NoResponse	0	0.015	646.879	9	68	Feedback	MissedWin	True
649.318	3.084	Win2	0.6812	n/a	No	3.084	n/a	n/a	NoResponse	0	0.0	n/a	9	68	ISIslide	MissedWin	True
652.428	0.25	Win2	0.6714	0.0	No	3.222	0.028	n/a	NoResponse	0	n/a	n/a	9	69	Cue	MissedWin	True
652.678	3.95	Win2	0.6714	0.0	No	3.222	0.0	n/a	NoResponse	0	n/a	n/a	9	69	Fixation	MissedWin	True
656.64	0.17	Win2	0.6714	0.0	No	3.222	0.012	2.0	NoResponse	0	0.192	655.832	9	69	Target	MissedWin	True
656.807	0.53	Win2	0.6714	n/a	No	3.222	n/a	n/a	NoResponse	0	n/a	n/a	9	69	Blank	MissedWin	True
656.832	0.3	Win2	0.6714	0.0	No	3.222	0.012	2.0	NoResponse	0	0.192	n/a	9	69	ButtonPress	MissedWin	True
657.326	1.45	Win2	0.6714	n/a	No	3.222	n/a	5.0	NoResponse	0	0.015	656.341	9	69	Feedback	MissedWin	True
658.78	3.222	Win2	0.6714	n/a	No	3.222	n/a	n/a	NoResponse	0	0.0	n/a	9	69	ISIslide	MissedWin	True
662.023	0.25	Lose2	0.662	0.0	No	3.027	0.023	n/a	NoResponse	-1	n/a	n/a	8	70	Cue	Loss	True
662.274	4.05	Lose2	0.662	0.0	No	3.027	0.001	n/a	NoResponse	-1	n/a	n/a	8	70	Fixation	Loss	True
666.319	0.16	Lose2	0.662	0.004	No	3.027	-0.004	2.0	NoResponse	-1	0.188	665.507	8	70	Target	Loss	True
666.486	0.54	Lose2	0.662	n/a	No	3.027	n/a	n/a	NoResponse	-1	n/a	n/a	8	70	Blank	Loss	True
666.507	0.3	Lose2	0.662	0.004	No	3.027	-0.004	2.0	NoResponse	-1	0.188	n/a	8	70	ButtonPress	Loss	True
667.021	1.45	Lose2	0.662	n/a	No	3.027	n/a	5.0	NoResponse	-1	0.028	666.049	8	70	Feedback	Loss	True
668.476	3.027	Lose2	0.662	n/a	No	3.027	n/a	n/a	NoResponse	-1	0.0	n/a	8	70	ISIslide	Loss	True
671.518	0.25	Win2	0.6528	0.0	No	2.732	0.018	n/a	NoResponse	0	n/a	n/a	8	71	Cue	MissedWin	True
671.769	4.05	Win2	0.6528	0.0	No	2.732	0.001	n/a	NoResponse	0	n/a	n/a	8	71	Fixation	MissedWin	True
675.814	0.16	Win2	0.6528	0.004	No	2.732	-0.004	2.0	NoResponse	0	0.193	675.007	8	71	Target	MissedWin	True
675.982	0.54	Win2	0.6528	n/a	No	2.732	n/a	n/a	NoResponse	0	n/a	n/a	8	71	Blank	MissedWin	True
676.007	0.3	Win2	0.6528	0.004	No	2.732	-0.004	2.0	NoResponse	0	0.193	n/a	8	71	ButtonPress	MissedWin	True
676.516	1.45	Win2	0.6528	n/a	No	2.732	n/a	5.0	NoResponse	0	0.002	675.518	8	71	Feedback	MissedWin	True
677.971	2.732	Win2	0.6528	n/a	No	2.732	n/a	n/a	NoResponse	0	0.0	n/a	8	71	ISIslide	MissedWin	True
680.729	0.25	Win2	0.6437999999999999	0.0	No	2.771	0.029	n/a	NoResponse	0	n/a	n/a	8	72	Cue	MissedWin	True
680.98	4.1	Win2	0.6437999999999999	0.0	No	2.771	0.001	n/a	NoResponse	0	n/a	n/a	8	72	Fixation	MissedWin	True
685.075	0.17	Win2	0.6437999999999999	0.004	No	2.771	-0.004	2.0	NoResponse	0	0.215	684.29	8	72	Target	MissedWin	True
685.259	0.53	Win2	0.6437999999999999	n/a	No	2.771	n/a	n/a	NoResponse	0	n/a	n/a	8	72	Blank	MissedWin	True
685.29	0.3	Win2	0.6437999999999999	0.004	No	2.771	-0.004	2.0	NoResponse	0	0.215	n/a	8	72	ButtonPress	MissedWin	True
685.778	1.45	Win2	0.6437999999999999	n/a	No	2.771	n/a	5.0	NoResponse	0	0.005	684.783	8	72	Feedback	MissedWin	True
687.232	2.771	Win2	0.6437999999999999	n/a	No	2.771	n/a	n/a	NoResponse	0	0.0	n/a	8	72	ISIslide	MissedWin	True
690.024	0.25	Win2	0.6351	0.0	No	2.676	0.024	n/a	NoResponse	0	n/a	n/a	8	73	Cue	MissedWin	True
690.274	4.0	Win2	0.6351	0.001	No	2.676	0.0	2.0	NoResponse	0	3.652	692.926	8	73	Fixation	MissedWin	True
693.926	0.3	Win2	0.6351	0.001	No	2.676	0.0	2.0	NoResponse	0	3.652	n/a	8	73	ButtonPress	MissedWin	True
694.27	0.18	Win2	0.6351	0.004	No	2.676	-0.004	n/a	NoResponse	0	n/a	n/a	8	73	Target	MissedWin	True
694.454	0.52	Win2	0.6351	n/a	No	2.676	n/a	n/a	NoResponse	0	n/a	n/a	8	73	Blank	MissedWin	True
694.972	1.45	Win2	0.6351	n/a	No	2.676	n/a	5.0	NoResponse	0	0.028	694.0	8	73	Feedback	MissedWin	True
696.426	2.676	Win2	0.6351	n/a	No	2.676	n/a	n/a	NoResponse	0	0.0	n/a	8	73	ISIslide	MissedWin	True
699.118	0.25	Lose2	0.6267	0.0	No	2.632	0.018	2.0	NoResponse	-1	0.063	698.181	7	74	Cue	Loss	False
699.181	0.3	Lose2	0.6267	0.0	No	2.632	0.018	2.0	NoResponse	-1	0.063	n/a	7	74	ButtonPress	Loss	False
699.368	4.05	Lose2	0.6267	0.0	No	2.632	0.0	n/a	NoResponse	-1	n/a	n/a	7	74	Fixation	Loss	False
703.414	0.19	Lose2	0.6267	0.004	No	2.632	-0.004	2.0	NoResponse	-1	0.246	702.66	7	74	Target	Loss	False
703.614	0.51	Lose2	0.6267	n/a	No	2.632	n/a	n/a	NoResponse	-1	n/a	n/a	7	74	Blank	Loss	False
703.66	0.3	Lose2	0.6267	0.004	No	2.632	-0.004	2.0	NoResponse	-1	0.246	n/a	7	74	ButtonPress	Loss	False
704.116	1.45	Lose2	0.6267	n/a	No	2.632	n/a	5.0	NoResponse	-1	0.006	703.122	7	74	Feedback	Loss	False
705.57	2.632	Lose2	0.6267	n/a	No	2.632	n/a	n/a	NoResponse	-1	0.0	n/a	7	74	ISIslide	Loss	False
708.228	0.25	Lose2	0.6184000000000001	0.0	No	2.922	0.028	n/a	NoResponse	-1	n/a	n/a	6	75	Cue	Loss	True
708.479	3.95	Lose2	0.6184000000000001	0.0	No	2.922	0.001	n/a	NoResponse	-1	n/a	n/a	6	75	Fixation	Loss	True
712.424	0.2	Lose2	0.6184000000000001	0.004	No	2.922	-0.004	2.0	NoResponse	-1	0.26	711.684	6	75	Target	Loss	True
712.625	0.5	Lose2	0.6184000000000001	n/a	No	2.922	n/a	n/a	NoResponse	-1	n/a	n/a	6	75	Blank	Loss	True
712.684	0.3	Lose2	0.6184000000000001	0.004	No	2.922	-0.004	2.0	NoResponse	-1	0.26	n/a	6	75	ButtonPress	Loss	True
713.126	1.45	Lose2	0.6184000000000001	n/a	No	2.922	n/a	5.0	NoResponse	-1	0.021	712.147	6	75	Feedback	Loss	True
714.581	2.922	Lose2	0.6184000000000001	n/a	No	2.922	n/a	n/a	NoResponse	-1	0.0	n/a	6	75	ISIslide	Loss	True
717.523	0.25	Control	0.6103999999999999	0.0	No	3.227	0.023	n/a	NoResponse	0	n/a	n/a	6	76	Cue	Neutral	True
717.774	4.05	Control	0.6103999999999999	0.0	No	3.227	0.001	n/a	NoResponse	0	n/a	n/a	6	76	Fixation	Neutral	True
721.819	0.21	Control	0.6103999999999999	0.004	No	3.227	-0.004	2.0	NoResponse	0	0.225	721.044	6	76	Target	Neutral	True
722.036	0.49	Control	0.6103999999999999	n/a	No	3.227	n/a	n/a	NoResponse	0	n/a	n/a	6	76	Blank	Neutral	True
722.044	0.3	Control	0.6103999999999999	0.004	No	3.227	-0.004	2.0	NoResponse	0	0.225	n/a	6	76	ButtonPress	Neutral	True
722.521	1.45	Control	0.6103999999999999	n/a	No	3.227	n/a	5.0	NoResponse	0	0.041	721.562	6	76	Feedback	Neutral	True
723.976	3.227	Control	0.6103999999999999	n/a	No	3.227	n/a	n/a	NoResponse	0	0.0	n/a	6	76	ISIslide	Neutral	True
727.219	0.25	Lose2	0.6154	0.0	Yes	2.581	0.019	n/a	GoodResponse	0	n/a	n/a	6	77	Cue	AvoidedLoss	True
727.469	3.95	Lose2	0.6154	0.0	Yes	2.581	0.0	n/a	GoodResponse	0	n/a	n/a	6	77	Fixation	AvoidedLoss	True
731.415	0.22	Lose2	0.6154	0.004	Yes	2.581	-0.004	2.0	GoodResponse	0	0.202	730.617	6	77	Target	AvoidedLoss	True
731.617	0.3	Lose2	0.6154	0.004	Yes	2.581	-0.004	2.0	GoodResponse	0	0.202	n/a	6	77	ButtonPress	AvoidedLoss	True
731.649	0.48	Lose2	0.6154	n/a	Yes	2.581	n/a	n/a	GoodResponse	0	n/a	n/a	6	77	Blank	AvoidedLoss	True
732.117	1.45	Lose2	0.6154	n/a	Yes	2.581	n/a	5.0	GoodResponse	0	0.007	731.124	6	77	Feedback	AvoidedLoss	True
733.571	2.581	Lose2	0.6154	n/a	Yes	2.581	n/a	n/a	GoodResponse	0	0.0	n/a	6	77	ISIslide	AvoidedLoss	True
