onset	duration	cue_type	current_mean_accuracy	duration_error	is_hit	isi_adjusted	onset_delay	response	response_type	reward	rt	rt_time	total_reward	trial_number	trial_phase	trial_type	one_press
11.101	0.25	Control	1.0	0.0	Yes	2.949	0.001	n/a	GoodResponse	0	n/a	n/a	0	0	Cue	Neutral	True
11.351	3.85	Control	1.0	0.0	Yes	2.949	0.0	n/a	GoodResponse	0	n/a	n/a	0	0	Fixation	Neutral	True
15.2	0.4	Control	1.0	0.001	Yes	2.949	-0.001	2.0	GoodResponse	0	0.217	14.417	0	0	Target	Neutral	True
15.417	0.3	Control	1.0	0.001	Yes	2.949	-0.001	2.0	GoodResponse	0	0.217	n/a	0	0	ButtonPress	Neutral	True
15.6	0.3	Control	1.0	n/a	Yes	2.949	n/a	n/a	GoodResponse	0	n/a	n/a	0	0	Blank	Neutral	True
15.9	1.45	Control	1.0	n/a	Yes	2.949	n/a	5.0	GoodResponse	0	0.026	14.926	0	0	Feedback	Neutral	True
17.349	2.949	Control	1.0	n/a	Yes	2.949	n/a	n/a	GoodResponse	0	0.0	n/a	0	0	ISIslide	Neutral	True
20.315	0.25	Lose2	0.5	0.0	No	2.785	0.015	n/a	NoResponse	-1	n/a	n/a	-1	1	Cue	Loss	True
20.565	4.0	Lose2	0.5	0.0	No	2.785	0.0	2.0	NoResponse	-1	3.969	23.534	-1	1	Fixation	Loss	True
24.534	0.3	Lose2	0.5	0.0	No	2.785	0.0	2.0	NoResponse	-1	3.969	n/a	-1	1	ButtonPress	Loss	True
24.563	0.39	Lose2	0.5	0.002	No	2.785	-0.002	n/a	NoResponse	-1	n/a	n/a	-1	1	Target	Loss	True
24.963	0.31	Lose2	0.5	n/a	No	2.785	n/a	n/a	NoResponse	-1	n/a	n/a	-1	1	Blank	Loss	True
25.263	1.45	Lose2	0.5	n/a	No	2.785	n/a	5.0	NoResponse	-1	0.029	24.292	-1	1	Feedback	Loss	True
26.712	2.785	Lose2	0.5	n/a	No	2.785	n/a	n/a	NoResponse	-1	0.0	n/a	-1	1	ISIslide	Loss	True
29.511	0.25	Control	0.6667000000000001	0.001	Yes	2.589	0.011	n/a	GoodResponse	0	n/a	n/a	-1	2	Cue	Neutral	True
29.761	4.1	Control	0.6667000000000001	0.0	Yes	2.589	0.0	n/a	GoodResponse	0	n/a	n/a	-1	2	Fixation	Neutral	True
33.86	0.4	Control	0.6667000000000001	0.001	Yes	2.589	-0.001	2.0	GoodResponse	0	0.392	33.252	-1	2	Target	Neutral	True
34.252	0.3	Control	0.6667000000000001	0.001	Yes	2.589	-0.001	2.0	GoodResponse	0	0.392	n/a	-1	2	ButtonPress	Neutral	True
34.26	0.3	Control	0.6667000000000001	n/a	Yes	2.589	n/a	n/a	GoodResponse	0	n/a	n/a	-1	2	Blank	Neutral	True
34.56	1.45	Control	0.6667000000000001	n/a	Yes	2.589	n/a	5.0	GoodResponse	0	0.0	33.56	-1	2	Feedback	Neutral	True
36.009	2.589	Control	0.6667000000000001	n/a	Yes	2.589	n/a	n/a	GoodResponse	0	0.0	n/a	-1	2	ISIslide	Neutral	True
38.625	0.25	Win2	0.75	0.0	Yes	2.825	0.025	n/a	GoodResponse	1	n/a	n/a	0	3	Cue	Win	True
38.875	3.95	Win2	0.75	0.0	Yes	2.825	0.0	n/a	GoodResponse	1	n/a	n/a	0	3	Fixation	Win	True
42.823	0.39	Win2	0.75	0.002	Yes	2.825	-0.002	2.0	GoodResponse	1	0.212	42.035	0	3	Target	Win	True
43.035	0.3	Win2	0.75	0.002	Yes	2.825	-0.002	2.0	GoodResponse	1	0.212	n/a	0	3	ButtonPress	Win	True
43.223	0.31	Win2	0.75	n/a	Yes	2.825	n/a	n/a	GoodResponse	1	n/a	n/a	0	3	Blank	Win	True
43.523	1.45	Win2	0.75	n/a	Yes	2.825	n/a	5.0	GoodResponse	1	0.012	42.535	0	3	Feedback	Win	True
44.973	2.825	Win2	0.75	n/a	Yes	2.825	n/a	n/a	GoodResponse	1	0.0	n/a	0	3	ISIslide	Win	True
47.822	0.25	Win2	0.8	0.0	Yes	3.278	0.022	n/a	GoodResponse	1	n/a	n/a	1	4	Cue	Win	True
48.072	4.0	Win2	0.8	0.0	Yes	3.278	0.0	n/a	GoodResponse	1	n/a	n/a	1	4	Fixation	Win	True
52.07	0.38	Win2	0.8	0.002	Yes	3.278	-0.002	2.0	GoodResponse	1	0.264	51.334	1	4	Target	Win	True
52.334	0.3	Win2	0.8	0.002	Yes	3.278	-0.002	2.0	GoodResponse	1	0.264	n/a	1	4	ButtonPress	Win	True
52.453	0.32	Win2	0.8	n/a	Yes	3.278	n/a	n/a	GoodResponse	1	n/a	n/a	1	4	Blank	Win	True
52.77	1.45	Win2	0.8	n/a	Yes	3.278	n/a	5.0	GoodResponse	1	0.034	51.804	1	4	Feedback	Win	True
54.219	3.278	Win2	0.8	n/a	Yes	3.278	n/a	n/a	GoodResponse	1	0.0	n/a	1	4	ISIslide	Win	True
57.518	0.25	Win2	0.8332999999999999	0.0	Yes	2.782	0.018	n/a	GoodResponse	1	n/a	n/a	2	5	Cue	Win	True
57.768	4.0	Win2	0.8332999999999999	0.0	Yes	2.782	0.0	n/a	GoodResponse	1	n/a	n/a	2	5	Fixation	Win	True
61.767	0.37	Win2	0.8332999999999999	0.001	Yes	2.782	-0.001	2.0	GoodResponse	1	0.229	60.996	2	5	Target	Win	True
61.996	0.3	Win2	0.8332999999999999	0.001	Yes	2.782	-0.001	2.0	GoodResponse	1	0.229	n/a	2	5	ButtonPress	Win	True
62.15	0.33	Win2	0.8332999999999999	n/a	Yes	2.782	n/a	n/a	GoodResponse	1	n/a	n/a	2	5	Blank	Win	True
62.466	1.45	Win2	0.8332999999999999	n/a	Yes	2.782	n/a	5.0	GoodResponse	1	0.045	61.511	2	5	Feedback	Win	True
63.916	2.782	Win2	0.8332999999999999	n/a	Yes	2.782	n/a	n/a	GoodResponse	1	0.0	n/a	2	5	ISIslide	Win	True
66.732	0.25	Lose2	0.8571	0.0	Yes	2.718	0.032	n/a	GoodResponse	0	n/a	n/a	2	6	Cue	AvoidedLoss	True
66.982	3.95	Lose2	0.8571	0.0	Yes	2.718	0.0	n/a	GoodResponse	0	n/a	n/a	2	6	Fixation	AvoidedLoss	True
70.93	0.36	Lose2	0.8571	0.002	Yes	2.718	-0.002	2.0	GoodResponse	0	0.273	70.203	2	6	Target	AvoidedLoss	True
71.203	0.3	Lose2	0.8571	0.002	Yes	2.718	-0.002	2.0	GoodResponse	0	0.273	n/a	2	6	ButtonPress	AvoidedLoss	True
71.297	0.34	Lose2	0.8571	n/a	Yes	2.718	n/a	n/a	GoodResponse	0	n/a	n/a	2	6	Blank	AvoidedLoss	True
71.63	1.45	Lose2	0.8571	n/a	Yes	2.718	n/a	5.0	GoodResponse	0	0.006	70.636	2	6	Feedback	AvoidedLoss	True
73.079	2.718	Lose2	0.8571	n/a	Yes	2.718	n/a	n/a	GoodResponse	0	0.0	n/a	2	6	ISIslide	AvoidedLoss	True
75.828	0.25	Lose2	0.875	0.001	Yes	4.022	0.028	n/a	GoodResponse	0	n/a	n/a	2	7	Cue	AvoidedLoss	True
76.078	4.05	Lose2	0.875	0.0	Yes	4.022	0.0	n/a	GoodResponse	0	n/a	n/a	2	7	Fixation	AvoidedLoss	True
80.127	0.35	Lose2	0.875	0.001	Yes	4.022	-0.001	2.0	GoodResponse	0	0.223	79.35	2	7	Target	AvoidedLoss	True
80.35	0.3	Lose2	0.875	0.001	Yes	4.022	-0.001	2.0	GoodResponse	0	0.223	n/a	2	7	ButtonPress	AvoidedLoss	True
80.477	0.35	Lose2	0.875	n/a	Yes	4.022	n/a	n/a	GoodResponse	0	n/a	n/a	2	7	Blank	AvoidedLoss	True
80.827	1.45	Lose2	0.875	n/a	Yes	4.022	n/a	5.0	GoodResponse	0	0.025	79.852	2	7	Feedback	AvoidedLoss	True
82.276	4.022	Lose2	0.875	n/a	Yes	4.022	n/a	n/a	GoodResponse	0	0.0	n/a	2	7	ISIslide	AvoidedLoss	True
86.325	0.25	Lose2	0.8889	0.0	Yes	3.025	0.025	n/a	GoodResponse	0	n/a	n/a	2	8	Cue	AvoidedLoss	True
86.575	3.95	Lose2	0.8889	0.0	Yes	3.025	0.0	n/a	GoodResponse	0	n/a	n/a	2	8	Fixation	AvoidedLoss	True
90.523	0.34	Lose2	0.8889	0.002	Yes	3.025	-0.002	2.0	GoodResponse	0	0.209	89.732	2	8	Target	AvoidedLoss	True
90.732	0.3	Lose2	0.8889	0.002	Yes	3.025	-0.002	2.0	GoodResponse	0	0.209	n/a	2	8	ButtonPress	AvoidedLoss	True
90.873	0.36	Lose2	0.8889	n/a	Yes	3.025	n/a	n/a	GoodResponse	0	n/a	n/a	2	8	Blank	AvoidedLoss	True
91.223	1.45	Lose2	0.8889	n/a	Yes	3.025	n/a	5.0	GoodResponse	0	0.019	90.242	2	8	Feedback	AvoidedLoss	True
92.673	3.025	Lose2	0.8889	n/a	Yes	3.025	n/a	n/a	GoodResponse	0	0.0	n/a	2	8	ISIslide	AvoidedLoss	True
95.721	0.25	Lose2	0.9	0.001	Yes	3.129	0.021	n/a	GoodResponse	0	n/a	n/a	2	9	Cue	AvoidedLoss	True
95.971	3.95	Lose2	0.9	0.0	Yes	3.129	0.0	n/a	GoodResponse	0	n/a	n/a	2	9	Fixation	AvoidedLoss	True
99.92	0.33	Lose2	0.9	0.001	Yes	3.129	-0.001	2.0	GoodResponse	0	0.276	99.196	2	9	Target	AvoidedLoss	True
100.196	0.3	Lose2	0.9	0.001	Yes	3.129	-0.001	2.0	GoodResponse	0	0.276	n/a	2	9	ButtonPress	AvoidedLoss	True
100.253	0.37	Lose2	0.9	n/a	Yes	3.129	n/a	n/a	GoodResponse	0	n/a	n/a	2	9	Blank	AvoidedLoss	True
100.62	1.45	Lose2	0.9	n/a	Yes	3.129	n/a	5.0	GoodResponse	0	0.037	99.657	2	9	Feedback	AvoidedLoss	True
102.069	3.129	Lose2	0.9	n/a	Yes	3.129	n/a	n/a	GoodResponse	0	0.0	n/a	2	9	ISIslide	AvoidedLoss	True
105.218	0.25	Control	0.9091	0.0	Yes	3.282	0.018	n/a	GoodResponse	0	n/a	n/a	2	10	Cue	Neutral	True
105.468	4.0	Control	0.9091	0.0	Yes	3.282	0.0	n/a	GoodResponse	0	n/a	n/a	2	10	Fixation	Neutral	True
109.467	0.32	Control	0.9091	0.001	Yes	3.282	-0.001	2.0	GoodResponse	0	0.252	108.719	2	10	Target	Neutral	True
109.719	0.3	Control	0.9091	0.001	Yes	3.282	-0.001	2.0	GoodResponse	0	0.252	n/a	2	10	ButtonPress	Neutral	True
109.8	0.38	Control	0.9091	n/a	Yes	3.282	n/a	n/a	GoodResponse	0	n/a	n/a	2	10	Blank	Neutral	True
110.166	1.45	Control	0.9091	n/a	Yes	3.282	n/a	5.0	GoodResponse	0	0.006	109.172	2	10	Feedback	Neutral	True
111.616	3.282	Control	0.9091	n/a	Yes	3.282	n/a	n/a	GoodResponse	0	0.0	n/a	2	10	ISIslide	Neutral	True
114.915	0.25	Lose2	0.9167000000000001	0.0	Yes	2.735	0.015	n/a	GoodResponse	0	n/a	n/a	2	11	Cue	AvoidedLoss	True
115.165	4.05	Lose2	0.9167000000000001	0.0	Yes	2.735	0.0	n/a	GoodResponse	0	n/a	n/a	2	11	Fixation	AvoidedLoss	True
119.213	0.31	Lose2	0.9167000000000001	0.002	Yes	2.735	-0.002	2.0	GoodResponse	0	0.29	118.503	2	11	Target	AvoidedLoss	True
119.503	0.3	Lose2	0.9167000000000001	0.002	Yes	2.735	-0.002	2.0	GoodResponse	0	0.29	n/a	2	11	ButtonPress	AvoidedLoss	True
119.53	0.39	Lose2	0.9167000000000001	n/a	Yes	2.735	n/a	n/a	GoodResponse	0	n/a	n/a	2	11	Blank	AvoidedLoss	True
119.913	1.45	Lose2	0.9167000000000001	n/a	Yes	2.735	n/a	5.0	GoodResponse	0	0.012	118.925	2	11	Feedback	AvoidedLoss	True
121.362	2.735	Lose2	0.9167000000000001	n/a	Yes	2.735	n/a	n/a	GoodResponse	0	0.0	n/a	2	11	ISIslide	AvoidedLoss	True
124.111	0.25	Control	0.9231	0.001	Yes	2.989	0.011	n/a	GoodResponse	0	n/a	n/a	2	12	Cue	Neutral	True
124.361	3.9	Control	0.9231	0.0	Yes	2.989	0.0	n/a	GoodResponse	0	n/a	n/a	2	12	Fixation	Neutral	True
128.26	0.3	Control	0.9231	0.001	Yes	2.989	-0.001	2.0	GoodResponse	0	0.226	127.486	2	12	Target	Neutral	True
128.486	0.3	Control	0.9231	0.001	Yes	2.989	-0.001	2.0	GoodResponse	0	0.226	n/a	2	12	ButtonPress	Neutral	True
128.56	0.4	Control	0.9231	n/a	Yes	2.989	n/a	n/a	GoodResponse	0	n/a	n/a	2	12	Blank	Neutral	True
128.96	1.45	Control	0.9231	n/a	Yes	2.989	n/a	5.0	GoodResponse	0	0.038	127.998	2	12	Feedback	Neutral	True
130.409	2.989	Control	0.9231	n/a	Yes	2.989	n/a	n/a	GoodResponse	0	0.0	n/a	2	12	ISIslide	Neutral	True
133.425	0.25	Control	0.8571	0.0	No	2.775	0.025	n/a	NoResponse	0	n/a	n/a	2	13	Cue	Neutral	True
133.675	4.0	Control	0.8571	0.0	No	2.775	0.0	n/a	NoResponse	0	n/a	n/a	2	13	Fixation	Neutral	True
137.673	0.29	Control	0.8571	0.002	No	2.775	-0.002	2.0	NoResponse	0	0.372	137.045	2	13	Target	Neutral	True
137.973	0.41	Control	0.8571	n/a	No	2.775	n/a	n/a	NoResponse	0	n/a	n/a	2	13	Blank	Neutral	True
138.045	0.3	Control	0.8571	0.002	No	2.775	-0.002	2.0	NoResponse	0	0.372	n/a	2	13	ButtonPress	Neutral	True
138.373	1.45	Control	0.8571	n/a	No	2.775	n/a	5.0	NoResponse	0	0.04	137.413	2	13	Feedback	Neutral	True
139.823	2.775	Control	0.8571	n/a	No	2.775	n/a	n/a	NoResponse	0	0.0	n/a	2	13	ISIslide	Neutral	True
142.622	0.25	Win2	0.8667	0.0	Yes	2.678	0.022	n/a	GoodResponse	1	n/a	n/a	3	14	Cue	Win	True
142.872	4.1	Win2	0.8667	0.0	Yes	2.678	0.0	n/a	GoodResponse	1	n/a	n/a	3	14	Fixation	Win	True
146.97	0.28	Win2	0.8667	0.002	Yes	2.678	-0.002	2.0	GoodResponse	1	0.21	146.18	3	14	Target	Win	True
147.18	0.3	Win2	0.8667	0.002	Yes	2.678	-0.002	2.0	GoodResponse	1	0.21	n/a	3	14	ButtonPress	Win	True
147.253	0.42	Win2	0.8667	n/a	Yes	2.678	n/a	n/a	GoodResponse	1	n/a	n/a	3	14	Blank	Win	True
147.67	1.45	Win2	0.8667	n/a	Yes	2.678	n/a	5.0	GoodResponse	1	0.011	146.681	3	14	Feedback	Win	True
149.119	2.678	Win2	0.8667	n/a	Yes	2.678	n/a	n/a	GoodResponse	1	0.0	n/a	3	14	ISIslide	Win	True
151.818	0.25	Control	0.875	0.0	Yes	2.982	0.018	n/a	GoodResponse	0	n/a	n/a	3	15	Cue	Neutral	True
152.068	4.0	Control	0.875	0.0	Yes	2.982	0.0	n/a	GoodResponse	0	n/a	n/a	3	15	Fixation	Neutral	True
156.067	0.27	Control	0.875	0.001	Yes	2.982	-0.001	2.0	GoodResponse	0	0.234	155.301	3	15	Target	Neutral	True
156.301	0.3	Control	0.875	0.001	Yes	2.982	-0.001	2.0	GoodResponse	0	0.234	n/a	3	15	ButtonPress	Neutral	True
156.333	0.43	Control	0.875	n/a	Yes	2.982	n/a	n/a	GoodResponse	0	n/a	n/a	3	15	Blank	Neutral	True
156.767	1.45	Control	0.875	n/a	Yes	2.982	n/a	5.0	GoodResponse	0	0.036	155.803	3	15	Feedback	Neutral	True
158.216	2.982	Control	0.875	n/a	Yes	2.982	n/a	n/a	GoodResponse	0	0.0	n/a	3	15	ISIslide	Neutral	True
161.232	0.25	Win2	0.8824	0.0	Yes	2.868	0.032	n/a	GoodResponse	1	n/a	n/a	4	16	Cue	Win	True
161.482	4.0	Win2	0.8824	0.0	Yes	2.868	0.0	n/a	GoodResponse	1	n/a	n/a	4	16	Fixation	Win	True
165.48	0.26	Win2	0.8824	0.002	Yes	2.868	-0.002	2.0	GoodResponse	1	0.204	164.684	4	16	Target	Win	True
165.684	0.3	Win2	0.8824	0.002	Yes	2.868	-0.002	2.0	GoodResponse	1	0.204	n/a	4	16	ButtonPress	Win	True
165.747	0.44	Win2	0.8824	n/a	Yes	2.868	n/a	n/a	GoodResponse	1	n/a	n/a	4	16	Blank	Win	True
166.18	1.45	Win2	0.8824	n/a	Yes	2.868	n/a	5.0	GoodResponse	1	0.037	165.217	4	16	Feedback	Win	True
167.629	2.868	Win2	0.8824	n/a	Yes	2.868	n/a	n/a	GoodResponse	1	0.0	n/a	4	16	ISIslide	Win	True
170.512	0.25	Lose2	0.8332999999999999	0.0	No	2.738	0.012	n/a	NoResponse	-1	n/a	n/a	3	17	Cue	Loss	True
170.762	3.95	Lose2	0.8332999999999999	0.0	No	2.738	0.0	n/a	NoResponse	-1	n/a	n/a	3	17	Fixation	Loss	True
174.71	0.25	Lose2	0.8332999999999999	0.002	No	2.738	-0.002	2.0	NoResponse	-1	0.575	174.285	3	17	Target	Loss	True
174.96	0.45	Lose2	0.8332999999999999	n/a	No	2.738	n/a	n/a	NoResponse	-1	n/a	n/a	3	17	Blank	Loss	True
175.285	0.3	Lose2	0.8332999999999999	0.002	No	2.738	-0.002	2.0	NoResponse	-1	0.575	n/a	3	17	ButtonPress	Loss	True
175.41	1.45	Lose2	0.8332999999999999	n/a	No	2.738	n/a	5.0	NoResponse	-1	0.026	174.436	3	17	Feedback	Loss	True
176.86	2.738	Lose2	0.8332999999999999	n/a	No	2.738	n/a	n/a	NoResponse	-1	0.0	n/a	3	17	ISIslide	Loss	True
179.625	0.25	Lose2	0.8421	0.0	Yes	2.725	0.025	n/a	GoodResponse	0	n/a	n/a	3	18	Cue	AvoidedLoss	True
179.875	4.05	Lose2	0.8421	0.0	Yes	2.725	0.0	n/a	GoodResponse	0	n/a	n/a	3	18	Fixation	AvoidedLoss	True
183.924	0.24	Lose2	0.8421	0.001	Yes	2.725	-0.001	2.0	GoodResponse	0	0.232	183.156	3	18	Target	AvoidedLoss	True
184.156	0.3	Lose2	0.8421	0.001	Yes	2.725	-0.001	2.0	GoodResponse	0	0.232	n/a	3	18	ButtonPress	AvoidedLoss	True
184.174	0.46	Lose2	0.8421	n/a	Yes	2.725	n/a	n/a	GoodResponse	0	n/a	n/a	3	18	Blank	AvoidedLoss	True
184.623	1.45	Lose2	0.8421	n/a	Yes	2.725	n/a	5.0	GoodResponse	0	0.033	183.656	3	18	Feedback	AvoidedLoss	True
186.073	2.725	Lose2	0.8421	n/a	Yes	2.725	n/a	n/a	GoodResponse	0	0.0	n/a	3	18	ISIslide	AvoidedLoss	True
188.822	0.25	Control	0.8	0.0	No	2.928	0.022	n/a	NoResponse	0	n/a	n/a	3	19	Cue	Neutral	True
189.072	3.95	Control	0.8	0.0	No	2.928	0.0	n/a	NoResponse	0	n/a	n/a	3	19	Fixation	Neutral	True
193.02	0.23	Control	0.8	0.002	No	2.928	-0.002	2.0	NoResponse	0	0.564	192.584	3	19	Target	Neutral	True
193.254	0.47	Control	0.8	n/a	No	2.928	n/a	n/a	NoResponse	0	n/a	n/a	3	19	Blank	Neutral	True
193.584	0.3	Control	0.8	0.002	No	2.928	-0.002	2.0	NoResponse	0	0.564	n/a	3	19	ButtonPress	Neutral	True
193.72	1.45	Control	0.8	n/a	No	2.928	n/a	5.0	NoResponse	0	0.009	192.729	3	19	Feedback	Neutral	True
195.17	2.928	Control	0.8	n/a	No	2.928	n/a	n/a	NoResponse	0	0.0	n/a	3	19	ISIslide	Neutral	True
198.119	0.25	Control	0.7619	0.0	No	2.631	0.019	n/a	LatePress	0	n/a	n/a	3	20	Cue	Neutral	True
198.369	4.05	Control	0.7619	0.0	No	2.631	0.0	n/a	LatePress	0	n/a	n/a	3	20	Fixation	Neutral	True
202.417	0.22	Control	0.7619	0.002	No	2.631	-0.002	2.0	LatePress	0	0.223	201.64	3	20	Target	Neutral	True
202.64	0.3	Control	0.7619	0.002	No	2.631	-0.002	2.0	LatePress	0	0.223	n/a	3	20	ButtonPress	Neutral	True
202.65	0.48	Control	0.7619	n/a	No	2.631	n/a	n/a	LatePress	0	n/a	n/a	3	20	Blank	Neutral	True
203.117	1.45	Control	0.7619	n/a	No	2.631	n/a	5.0	LatePress	0	0.026	202.143	3	20	Feedback	Neutral	True
204.566	2.631	Control	0.7619	n/a	No	2.631	n/a	n/a	LatePress	0	0.0	n/a	3	20	ISIslide	Neutral	True
207.215	0.25	Control	0.7273000000000001	0.001	No	2.785	0.015	n/a	NoResponse	0	n/a	n/a	3	21	Cue	Neutral	True
207.465	4.1	Control	0.7273000000000001	0.0	No	2.785	0.0	n/a	NoResponse	0	n/a	n/a	3	21	Fixation	Neutral	True
211.564	0.21	Control	0.7273000000000001	0.001	No	2.785	-0.001	2.0	NoResponse	0	0.223	210.787	3	21	Target	Neutral	True
211.781	0.49	Control	0.7273000000000001	n/a	No	2.785	n/a	n/a	NoResponse	0	n/a	n/a	3	21	Blank	Neutral	True
211.787	0.3	Control	0.7273000000000001	0.001	No	2.785	-0.001	2.0	NoResponse	0	0.223	n/a	3	21	ButtonPress	Neutral	True
212.264	1.45	Control	0.7273000000000001	n/a	No	2.785	n/a	5.0	NoResponse	0	0.001	211.265	3	21	Feedback	Neutral	True
213.713	2.785	Control	0.7273000000000001	n/a	No	2.785	n/a	n/a	NoResponse	0	0.0	n/a	3	21	ISIslide	Neutral	True
216.512	0.25	Control	0.6957	0.0	No	2.788	0.012	n/a	NoResponse	0	n/a	n/a	3	22	Cue	Neutral	True
216.762	4.0	Control	0.6957	0.0	No	2.788	0.0	n/a	NoResponse	0	n/a	n/a	3	22	Fixation	Neutral	True
220.761	0.2	Control	0.6957	0.001	No	2.788	-0.001	2.0	NoResponse	0	0.211	219.972	3	22	Target	Neutral	True
220.961	0.5	Control	0.6957	n/a	No	2.788	n/a	n/a	NoResponse	0	n/a	n/a	3	22	Blank	Neutral	True
220.972	0.3	Control	0.6957	0.001	No	2.788	-0.001	2.0	NoResponse	0	0.211	n/a	3	22	ButtonPress	Neutral	True
221.46	1.45	Control	0.6957	n/a	No	2.788	n/a	5.0	NoResponse	0	0.025	220.485	3	22	Feedback	Neutral	True
222.91	2.788	Control	0.6957	n/a	No	2.788	n/a	n/a	NoResponse	0	0.0	n/a	3	22	ISIslide	Neutral	True
225.726	0.25	Control	0.6667000000000001	0.0	No	2.774	0.026	n/a	NoResponse	0	n/a	n/a	3	23	Cue	Neutral	True
225.976	3.9	Control	0.6667000000000001	0.0	No	2.774	0.0	n/a	NoResponse	0	n/a	n/a	3	23	Fixation	Neutral	True
229.874	0.19	Control	0.6667000000000001	0.002	No	2.774	-0.002	2.0	NoResponse	0	0.251	229.125	3	23	Target	Neutral	True
230.074	0.51	Control	0.6667000000000001	n/a	No	2.774	n/a	n/a	NoResponse	0	n/a	n/a	3	23	Blank	Neutral	True
230.125	0.3	Control	0.6667000000000001	0.002	No	2.774	-0.002	2.0	NoResponse	0	0.251	n/a	3	23	ButtonPress	Neutral	True
230.574	1.45	Control	0.6667000000000001	n/a	No	2.774	n/a	5.0	NoResponse	0	0.033	229.607	3	23	Feedback	Neutral	True
232.023	2.774	Control	0.6667000000000001	n/a	No	2.774	n/a	n/a	NoResponse	0	0.0	n/a	3	23	ISIslide	Neutral	True
234.822	0.25	Win2	0.64	0.001	No	3.128	0.022	n/a	NoResponse	0	n/a	n/a	3	24	Cue	MissedWin	True
235.072	3.95	Win2	0.64	0.0	No	3.128	0.0	n/a	NoResponse	0	n/a	n/a	3	24	Fixation	MissedWin	True
239.021	0.18	Win2	0.64	0.001	No	3.128	-0.001	2.0	NoResponse	0	0.196	238.217	3	24	Target	MissedWin	True
239.204	0.52	Win2	0.64	n/a	No	3.128	n/a	n/a	NoResponse	0	n/a	n/a	3	24	Blank	MissedWin	True
239.217	0.3	Win2	0.64	0.001	No	3.128	-0.001	2.0	NoResponse	0	0.196	n/a	3	24	ButtonPress	MissedWin	True
239.721	1.45	Win2	0.64	n/a	No	3.128	n/a	5.0	NoResponse	0	0.008	238.729	3	24	Feedback	MissedWin	True
241.17	3.128	Win2	0.64	n/a	No	3.128	n/a	n/a	NoResponse	0	0.0	n/a	3	24	ISIslide	MissedWin	True
244.319	0.25	Win2	0.6154	0.0	No	3.081	0.019	n/a	NoResponse	0	n/a	n/a	3	25	Cue	MissedWin	True
244.569	4.0	Win2	0.6154	0.0	No	3.081	0.0	n/a	NoResponse	0	n/a	n/a	3	25	Fixation	MissedWin	True
248.568	0.19	Win2	0.6154	0.001	No	3.081	-0.001	2.0	NoResponse	0	0.247	247.815	3	25	Target	MissedWin	True
248.768	0.51	Win2	0.6154	n/a	No	3.081	n/a	n/a	NoResponse	0	n/a	n/a	3	25	Blank	MissedWin	True
248.815	0.3	Win2	0.6154	0.001	No	3.081	-0.001	2.0	NoResponse	0	0.247	n/a	3	25	ButtonPress	MissedWin	True
249.267	1.45	Win2	0.6154	n/a	No	3.081	n/a	5.0	NoResponse	0	0.022	248.289	3	25	Feedback	MissedWin	True
250.717	3.081	Win2	0.6154	n/a	No	3.081	n/a	n/a	NoResponse	0	0.0	n/a	3	25	ISIslide	MissedWin	True
253.816	0.25	Win2	0.5926	0.0	No	2.934	0.016	n/a	NoResponse	0	n/a	n/a	3	26	Cue	MissedWin	True
254.066	3.95	Win2	0.5926	0.0	No	2.934	0.0	2.0	NoResponse	0	3.319	256.385	3	26	Fixation	MissedWin	True
257.385	0.3	Win2	0.5926	0.0	No	2.934	0.0	2.0	NoResponse	0	3.319	n/a	3	26	ButtonPress	MissedWin	True
258.014	0.2	Win2	0.5926	0.002	No	2.934	-0.002	n/a	NoResponse	0	n/a	n/a	3	26	Target	MissedWin	True
258.214	0.5	Win2	0.5926	n/a	No	2.934	n/a	n/a	NoResponse	0	n/a	n/a	3	26	Blank	MissedWin	True
258.714	1.45	Win2	0.5926	n/a	No	2.934	n/a	5.0	NoResponse	0	0.039	257.753	3	26	Feedback	MissedWin	True
260.164	2.934	Win2	0.5926	n/a	No	2.934	n/a	n/a	NoResponse	0	0.0	n/a	3	26	ISIslide	MissedWin	True
263.112	0.25	Lose2	0.5714	0.001	No	2.838	0.012	n/a	NoResponse	-1	n/a	n/a	2	27	Cue	Loss	True
263.362	4.05	Lose2	0.5714	0.001	No	2.838	0.0	n/a	NoResponse	-1	n/a	n/a	2	27	Fixation	Loss	True
267.411	0.21	Lose2	0.5714	0.001	No	2.838	-0.001	2.0	NoResponse	-1	0.223	266.634	2	27	Target	Loss	True
267.628	0.49	Lose2	0.5714	n/a	No	2.838	n/a	n/a	NoResponse	-1	n/a	n/a	2	27	Blank	Loss	True
267.634	0.3	Lose2	0.5714	0.001	No	2.838	-0.001	2.0	NoResponse	-1	0.223	n/a	2	27	ButtonPress	Loss	True
268.111	1.45	Lose2	0.5714	n/a	No	2.838	n/a	5.0	NoResponse	-1	0.008	267.119	2	27	Feedback	Loss	True
269.56	2.838	Lose2	0.5714	n/a	No	2.838	n/a	n/a	NoResponse	-1	0.0	n/a	2	27	ISIslide	Loss	True
272.426	0.25	Control	0.5517	0.0	No	2.824	0.026	n/a	NoResponse	0	n/a	n/a	2	28	Cue	Neutral	False
272.676	4.05	Control	0.5517	0.0	No	2.824	0.0	n/a	NoResponse	0	n/a	n/a	2	28	Fixation	Neutral	False
276.724	0.22	Control	0.5517	0.002	No	2.824	-0.002	n/a	NoResponse	0	n/a	n/a	2	28	Target	Neutral	False
276.958	0.48	Control	0.5517	n/a	No	2.824	n/a	n/a	NoResponse	0	n/a	n/a	2	28	Blank	Neutral	False
277.424	1.45	Control	0.5517	n/a	No	2.824	n/a	5.0	NoResponse	0	0.012	276.436	2	28	Feedback	Neutral	False
278.874	2.824	Control	0.5517	n/a	No	2.824	n/a	n/a	NoResponse	0	0.0	n/a	2	28	ISIslide	Neutral	False
281.723	0.25	Lose2	0.5333	0.0	No	2.827	0.023	n/a	NoResponse	-1	n/a	n/a	1	29	Cue	Loss	True
281.973	3.95	Lose2	0.5333	0.0	No	2.827	0.0	n/a	NoResponse	-1	n/a	n/a	1	29	Fixation	Loss	True
285.921	0.23	Lose2	0.5333	0.002	No	2.827	-0.002	2.0	NoResponse	-1	0.257	285.178	1	29	Target	Loss	True
286.154	0.47	Lose2	0.5333	n/a	No	2.827	n/a	n/a	NoResponse	-1	n/a	n/a	1	29	Blank	Loss	True
286.178	0.3	Lose2	0.5333	0.002	No	2.827	-0.002	2.0	NoResponse	-1	0.257	n/a	1	29	ButtonPress	Loss	True
286.621	1.45	Lose2	0.5333	n/a	No	2.827	n/a	5.0	NoResponse	-1	0.033	285.654	1	29	Feedback	Loss	True
288.07	2.827	Lose2	0.5333	n/a	No	2.827	n/a	n/a	NoResponse	-1	0.0	n/a	1	29	ISIslide	Loss	True
290.919	0.25	Win2	0.5484	0.0	Yes	2.781	0.019	n/a	GoodResponse	1	n/a	n/a	2	30	Cue	Win	True
291.169	3.9	Win2	0.5484	0.0	Yes	2.781	0.0	n/a	GoodResponse	1	n/a	n/a	2	30	Fixation	Win	True
295.068	0.24	Win2	0.5484	0.001	Yes	2.781	-0.001	2.0	GoodResponse	1	0.193	294.261	2	30	Target	Win	True
295.261	0.3	Win2	0.5484	0.001	Yes	2.781	-0.001	2.0	GoodResponse	1	0.193	n/a	2	30	ButtonPress	Win	True
295.318	0.46	Win2	0.5484	n/a	Yes	2.781	n/a	n/a	GoodResponse	1	n/a	n/a	2	30	Blank	Win	True
295.768	1.45	Win2	0.5484	n/a	Yes	2.781	n/a	5.0	GoodResponse	1	0.009	294.777	2	30	Feedback	Win	True
297.217	2.781	Win2	0.5484	n/a	Yes	2.781	n/a	n/a	GoodResponse	1	0.0	n/a	2	30	ISIslide	Win	True
300.016	0.25	Lose2	0.5625	0.0	Yes	2.834	0.016	n/a	GoodResponse	0	n/a	n/a	2	31	Cue	AvoidedLoss	True
300.266	4.05	Lose2	0.5625	0.0	Yes	2.834	0.0	n/a	GoodResponse	0	n/a	n/a	2	31	Fixation	AvoidedLoss	True
304.315	0.25	Lose2	0.5625	0.001	Yes	2.834	-0.001	2.0	GoodResponse	0	0.234	303.549	2	31	Target	AvoidedLoss	True
304.549	0.3	Lose2	0.5625	0.001	Yes	2.834	-0.001	2.0	GoodResponse	0	0.234	n/a	2	31	ButtonPress	AvoidedLoss	True
304.565	0.45	Lose2	0.5625	n/a	Yes	2.834	n/a	n/a	GoodResponse	0	n/a	n/a	2	31	Blank	AvoidedLoss	True
305.014	1.45	Lose2	0.5625	n/a	Yes	2.834	n/a	5.0	GoodResponse	0	0.031	304.045	2	31	Feedback	AvoidedLoss	True
306.464	2.834	Lose2	0.5625	n/a	Yes	2.834	n/a	n/a	GoodResponse	0	0.0	n/a	2	31	ISIslide	AvoidedLoss	True
309.33	0.25	Lose2	0.5758	0.0	Yes	2.62	0.03	n/a	GoodResponse	0	n/a	n/a	2	32	Cue	AvoidedLoss	True
309.579	4.15	Lose2	0.5758	0.001	Yes	2.62	-0.001	n/a	GoodResponse	0	n/a	n/a	2	32	Fixation	AvoidedLoss	True
313.728	0.26	Lose2	0.5758	0.002	Yes	2.62	-0.002	2.0	GoodResponse	0	0.229	312.957	2	32	Target	AvoidedLoss	True
313.957	0.3	Lose2	0.5758	0.002	Yes	2.62	-0.002	2.0	GoodResponse	0	0.229	n/a	2	32	ButtonPress	AvoidedLoss	True
313.995	0.44	Lose2	0.5758	n/a	Yes	2.62	n/a	n/a	GoodResponse	0	n/a	n/a	2	32	Blank	AvoidedLoss	True
314.428	1.45	Lose2	0.5758	n/a	Yes	2.62	n/a	5.0	GoodResponse	0	0.032	313.46	2	32	Feedback	AvoidedLoss	True
315.877	2.62	Lose2	0.5758	n/a	Yes	2.62	n/a	n/a	GoodResponse	0	0.0	n/a	2	32	ISIslide	AvoidedLoss	True
318.526	0.25	Win2	0.5882000000000001	0.0	Yes	2.674	0.026	n/a	GoodResponse	1	n/a	n/a	3	33	Cue	Win	True
318.776	4.0	Win2	0.5882000000000001	0.0	Yes	2.674	0.0	n/a	GoodResponse	1	n/a	n/a	3	33	Fixation	Win	True
322.775	0.27	Win2	0.5882000000000001	0.001	Yes	2.674	-0.001	2.0	GoodResponse	1	0.227	322.002	3	33	Target	Win	True
323.002	0.3	Win2	0.5882000000000001	0.001	Yes	2.674	-0.001	2.0	GoodResponse	1	0.227	n/a	3	33	ButtonPress	Win	True
323.041	0.43	Win2	0.5882000000000001	n/a	Yes	2.674	n/a	n/a	GoodResponse	1	n/a	n/a	3	33	Blank	Win	True
323.475	1.45	Win2	0.5882000000000001	n/a	Yes	2.674	n/a	5.0	GoodResponse	1	0.009	322.484	3	33	Feedback	Win	True
324.924	2.674	Win2	0.5882000000000001	n/a	Yes	2.674	n/a	n/a	GoodResponse	1	0.0	n/a	3	33	ISIslide	Win	True
327.623	0.25	Lose2	0.6	0.0	Yes	2.627	0.023	n/a	GoodResponse	0	n/a	n/a	3	34	Cue	AvoidedLoss	True
327.873	4.05	Lose2	0.6	0.0	Yes	2.627	0.0	n/a	GoodResponse	0	n/a	n/a	3	34	Fixation	AvoidedLoss	True
331.922	0.28	Lose2	0.6	0.001	Yes	2.627	-0.001	2.0	GoodResponse	0	0.227	331.149	3	34	Target	AvoidedLoss	True
332.149	0.3	Lose2	0.6	0.001	Yes	2.627	-0.001	2.0	GoodResponse	0	0.227	n/a	3	34	ButtonPress	AvoidedLoss	True
332.205	0.42	Lose2	0.6	n/a	Yes	2.627	n/a	n/a	GoodResponse	0	n/a	n/a	3	34	Blank	AvoidedLoss	True
332.621	1.45	Lose2	0.6	n/a	Yes	2.627	n/a	5.0	GoodResponse	0	0.033	331.654	3	34	Feedback	AvoidedLoss	True
334.071	2.627	Lose2	0.6	n/a	Yes	2.627	n/a	n/a	GoodResponse	0	0.0	n/a	3	34	ISIslide	AvoidedLoss	True
336.72	0.25	Lose2	0.6111	0.0	Yes	2.68	0.02	n/a	GoodResponse	0	n/a	n/a	3	35	Cue	AvoidedLoss	True
336.97	4.0	Lose2	0.6111	0.0	Yes	2.68	0.0	n/a	GoodResponse	0	n/a	n/a	3	35	Fixation	AvoidedLoss	True
340.968	0.29	Lose2	0.6111	0.002	Yes	2.68	-0.002	2.0	GoodResponse	0	0.202	340.17	3	35	Target	AvoidedLoss	True
341.17	0.3	Lose2	0.6111	0.002	Yes	2.68	-0.002	2.0	GoodResponse	0	0.202	n/a	3	35	ButtonPress	AvoidedLoss	True
341.268	0.41	Lose2	0.6111	n/a	Yes	2.68	n/a	n/a	GoodResponse	0	n/a	n/a	3	35	Blank	AvoidedLoss	True
341.668	1.45	Lose2	0.6111	n/a	Yes	2.68	n/a	5.0	GoodResponse	0	0.011	340.679	3	35	Feedback	AvoidedLoss	True
343.118	2.68	Lose2	0.6111	n/a	Yes	2.68	n/a	n/a	GoodResponse	0	0.0	n/a	3	35	ISIslide	AvoidedLoss	True
345.817	0.25	Control	0.6215999999999999	0.0	Yes	2.683	0.017	n/a	GoodResponse	0	n/a	n/a	3	36	Cue	Neutral	True
346.067	4.0	Control	0.6215999999999999	0.0	Yes	2.683	0.0	n/a	GoodResponse	0	n/a	n/a	3	36	Fixation	Neutral	True
350.065	0.3	Control	0.6215999999999999	0.002	Yes	2.683	-0.002	2.0	GoodResponse	0	0.247	349.312	3	36	Target	Neutral	True
350.312	0.3	Control	0.6215999999999999	0.002	Yes	2.683	-0.002	2.0	GoodResponse	0	0.247	n/a	3	36	ButtonPress	Neutral	True
350.365	0.4	Control	0.6215999999999999	n/a	Yes	2.683	n/a	n/a	GoodResponse	0	n/a	n/a	3	36	Blank	Neutral	True
350.765	1.45	Control	0.6215999999999999	n/a	Yes	2.683	n/a	5.0	GoodResponse	0	0.036	349.801	3	36	Feedback	Neutral	True
352.214	2.683	Control	0.6215999999999999	n/a	Yes	2.683	n/a	n/a	GoodResponse	0	0.0	n/a	3	36	ISIslide	Neutral	True
354.913	0.25	Win2	0.6315999999999999	0.001	Yes	2.887	0.013	n/a	GoodResponse	1	n/a	n/a	4	37	Cue	Win	True
355.163	4.0	Win2	0.6315999999999999	0.0	Yes	2.887	0.0	n/a	GoodResponse	1	n/a	n/a	4	37	Fixation	Win	True
359.162	0.31	Win2	0.6315999999999999	0.001	Yes	2.887	-0.001	2.0	GoodResponse	1	0.265	358.427	4	37	Target	Win	True
359.427	0.3	Win2	0.6315999999999999	0.001	Yes	2.887	-0.001	2.0	GoodResponse	1	0.265	n/a	4	37	ButtonPress	Win	True
359.479	0.39	Win2	0.6315999999999999	n/a	Yes	2.887	n/a	n/a	GoodResponse	1	n/a	n/a	4	37	Blank	Win	True
359.862	1.45	Win2	0.6315999999999999	n/a	Yes	2.887	n/a	5.0	GoodResponse	1	0.012	358.874	4	37	Feedback	Win	True
361.311	2.887	Win2	0.6315999999999999	n/a	Yes	2.887	n/a	n/a	GoodResponse	1	0.0	n/a	4	37	ISIslide	Win	True
364.227	0.25	Lose2	0.6409999999999999	0.0	Yes	2.823	0.027	n/a	GoodResponse	0	n/a	n/a	4	38	Cue	AvoidedLoss	True
364.477	3.95	Lose2	0.6409999999999999	0.0	Yes	2.823	0.0	n/a	GoodResponse	0	n/a	n/a	4	38	Fixation	AvoidedLoss	True
368.425	0.32	Lose2	0.6409999999999999	0.002	Yes	2.823	-0.002	2.0	GoodResponse	0	0.292	367.717	4	38	Target	AvoidedLoss	True
368.717	0.3	Lose2	0.6409999999999999	0.002	Yes	2.823	-0.002	2.0	GoodResponse	0	0.292	n/a	4	38	ButtonPress	AvoidedLoss	True
368.759	0.38	Lose2	0.6409999999999999	n/a	Yes	2.823	n/a	n/a	GoodResponse	0	n/a	n/a	4	38	Blank	AvoidedLoss	True
369.125	1.45	Lose2	0.6409999999999999	n/a	Yes	2.823	n/a	5.0	GoodResponse	0	0.017	368.142	4	38	Feedback	AvoidedLoss	True
370.575	2.823	Lose2	0.6409999999999999	n/a	Yes	2.823	n/a	n/a	GoodResponse	0	0.0	n/a	4	38	ISIslide	AvoidedLoss	True
373.424	0.25	Win2	0.65	0.0	Yes	2.976	0.024	n/a	GoodResponse	1	n/a	n/a	5	39	Cue	Win	True
373.674	4.1	Win2	0.65	0.0	Yes	2.976	0.0	n/a	GoodResponse	1	n/a	n/a	5	39	Fixation	Win	True
377.772	0.33	Win2	0.65	0.002	Yes	2.976	-0.002	2.0	GoodResponse	1	0.303	377.075	5	39	Target	Win	True
378.075	0.3	Win2	0.65	0.002	Yes	2.976	-0.002	2.0	GoodResponse	1	0.303	n/a	5	39	ButtonPress	Win	True
378.105	0.37	Win2	0.65	n/a	Yes	2.976	n/a	n/a	GoodResponse	1	n/a	n/a	5	39	Blank	Win	True
378.472	1.45	Win2	0.65	n/a	Yes	2.976	n/a	5.0	GoodResponse	1	0.035	377.507	5	39	Feedback	Win	True
379.921	2.976	Win2	0.65	n/a	Yes	2.976	n/a	n/a	GoodResponse	1	0.0	n/a	5	39	ISIslide	Win	True
382.92	0.25	Win2	0.6585	0.0	Yes	2.73	0.02	n/a	GoodResponse	1	n/a	n/a	6	40	Cue	Win	True
383.17	3.95	Win2	0.6585	0.0	Yes	2.73	0.0	n/a	GoodResponse	1	n/a	n/a	6	40	Fixation	Win	True
387.119	0.34	Win2	0.6585	0.001	Yes	2.73	-0.001	2.0	GoodResponse	1	0.221	386.34	6	40	Target	Win	True
387.34	0.3	Win2	0.6585	0.001	Yes	2.73	-0.001	2.0	GoodResponse	1	0.221	n/a	6	40	ButtonPress	Win	True
387.469	0.36	Win2	0.6585	n/a	Yes	2.73	n/a	n/a	GoodResponse	1	n/a	n/a	6	40	Blank	Win	True
387.819	1.45	Win2	0.6585	n/a	Yes	2.73	n/a	5.0	GoodResponse	1	0.006	386.825	6	40	Feedback	Win	True
389.268	2.73	Win2	0.6585	n/a	Yes	2.73	n/a	n/a	GoodResponse	1	0.0	n/a	6	40	ISIslide	Win	True
392.017	0.25	Win2	0.6667000000000001	0.0	Yes	2.783	0.017	n/a	GoodResponse	1	n/a	n/a	7	41	Cue	Win	True
392.267	3.9	Win2	0.6667000000000001	0.0	Yes	2.783	0.0	n/a	GoodResponse	1	n/a	n/a	7	41	Fixation	Win	True
396.166	0.34	Win2	0.6667000000000001	0.001	Yes	2.783	-0.001	2.0	GoodResponse	1	0.224	395.39	7	41	Target	Win	True
396.39	0.3	Win2	0.6667000000000001	0.001	Yes	2.783	-0.001	2.0	GoodResponse	1	0.224	n/a	7	41	ButtonPress	Win	True
396.515	0.36	Win2	0.6667000000000001	n/a	Yes	2.783	n/a	n/a	GoodResponse	1	n/a	n/a	7	41	Blank	Win	True
396.865	1.45	Win2	0.6667000000000001	n/a	Yes	2.783	n/a	5.0	GoodResponse	1	0.033	395.898	7	41	Feedback	Win	True
398.315	2.783	Win2	0.6667000000000001	n/a	Yes	2.783	n/a	n/a	GoodResponse	1	0.0	n/a	7	41	ISIslide	Win	True
401.114	0.25	Control	0.6512	0.0	No	2.936	0.014	n/a	NoResponse	0	n/a	n/a	7	42	Cue	Neutral	True
401.364	3.85	Control	0.6512	0.0	No	2.936	0.0	n/a	NoResponse	0	n/a	n/a	7	42	Fixation	Neutral	True
405.212	0.33	Control	0.6512	0.002	No	2.936	-0.002	2.0	NoResponse	0	0.382	404.594	7	42	Target	Neutral	True
405.546	0.37	Control	0.6512	n/a	No	2.936	n/a	n/a	NoResponse	0	n/a	n/a	7	42	Blank	Neutral	True
405.594	0.3	Control	0.6512	0.002	No	2.936	-0.002	2.0	NoResponse	0	0.382	n/a	7	42	ButtonPress	Neutral	True
405.912	1.45	Control	0.6512	n/a	No	2.936	n/a	5.0	NoResponse	0	0.01	404.922	7	42	Feedback	Neutral	True
407.362	2.936	Control	0.6512	n/a	No	2.936	n/a	n/a	NoResponse	0	0.0	n/a	7	42	ISIslide	Neutral	True
410.327	0.25	Win2	0.6591	0.0	Yes	3.173	0.027	n/a	GoodResponse	1	n/a	n/a	8	43	Cue	Win	True
410.577	4.0	Win2	0.6591	0.0	Yes	3.173	0.0	n/a	GoodResponse	1	n/a	n/a	8	43	Fixation	Win	True
414.576	0.34	Win2	0.6591	0.001	Yes	3.173	-0.001	2.0	GoodResponse	1	0.225	413.801	8	43	Target	Win	True
414.801	0.3	Win2	0.6591	0.001	Yes	3.173	-0.001	2.0	GoodResponse	1	0.225	n/a	8	43	ButtonPress	Win	True
414.926	0.36	Win2	0.6591	n/a	Yes	3.173	n/a	n/a	GoodResponse	1	n/a	n/a	8	43	Blank	Win	True
415.276	1.45	Win2	0.6591	n/a	Yes	3.173	n/a	5.0	GoodResponse	1	0.012	414.288	8	43	Feedback	Win	True
416.725	3.173	Win2	0.6591	n/a	Yes	3.173	n/a	n/a	GoodResponse	1	0.0	n/a	8	43	ISIslide	Win	True
419.924	0.25	Win2	0.6667000000000001	0.0	Yes	2.976	0.024	n/a	GoodResponse	1	n/a	n/a	9	44	Cue	Win	True
420.174	4.0	Win2	0.6667000000000001	0.0	Yes	2.976	0.0	n/a	GoodResponse	1	n/a	n/a	9	44	Fixation	Win	True
424.172	0.34	Win2	0.6667000000000001	0.002	Yes	2.976	-0.002	2.0	GoodResponse	1	0.25	423.422	9	44	Target	Win	True
424.422	0.3	Win2	0.6667000000000001	0.002	Yes	2.976	-0.002	2.0	GoodResponse	1	0.25	n/a	9	44	ButtonPress	Win	True
424.522	0.36	Win2	0.6667000000000001	n/a	Yes	2.976	n/a	n/a	GoodResponse	1	n/a	n/a	9	44	Blank	Win	True
424.872	1.45	Win2	0.6667000000000001	n/a	Yes	2.976	n/a	5.0	GoodResponse	1	0.025	423.897	9	44	Feedback	Win	True
426.322	2.976	Win2	0.6667000000000001	n/a	Yes	2.976	n/a	n/a	GoodResponse	1	0.0	n/a	9	44	ISIslide	Win	True
429.321	0.25	Control	0.6739	0.0	Yes	2.879	0.021	n/a	GoodResponse	0	n/a	n/a	9	45	Cue	Neutral	True
429.571	4.1	Control	0.6739	0.0	Yes	2.879	0.0	n/a	GoodResponse	0	n/a	n/a	9	45	Fixation	Neutral	True
433.669	0.33	Control	0.6739	0.002	Yes	2.879	-0.002	2.0	GoodResponse	0	0.182	432.851	9	45	Target	Neutral	True
433.851	0.3	Control	0.6739	0.002	Yes	2.879	-0.002	2.0	GoodResponse	0	0.182	n/a	9	45	ButtonPress	Neutral	True
434.002	0.37	Control	0.6739	n/a	Yes	2.879	n/a	n/a	GoodResponse	0	n/a	n/a	9	45	Blank	Neutral	True
434.369	1.45	Control	0.6739	n/a	Yes	2.879	n/a	5.0	GoodResponse	0	0.04	433.409	9	45	Feedback	Neutral	True
435.818	2.879	Control	0.6739	n/a	Yes	2.879	n/a	n/a	GoodResponse	0	0.0	n/a	9	45	ISIslide	Neutral	True
438.717	0.25	Lose2	0.6809000000000001	0.0	Yes	3.383	0.017	n/a	GoodResponse	0	n/a	n/a	9	46	Cue	AvoidedLoss	True
438.967	4.0	Lose2	0.6809000000000001	0.0	Yes	3.383	0.0	n/a	GoodResponse	0	n/a	n/a	9	46	Fixation	AvoidedLoss	True
442.966	0.32	Lose2	0.6809000000000001	0.001	Yes	3.383	-0.001	2.0	GoodResponse	0	0.214	442.18	9	46	Target	AvoidedLoss	True
443.18	0.3	Lose2	0.6809000000000001	0.001	Yes	3.383	-0.001	2.0	GoodResponse	0	0.214	n/a	9	46	ButtonPress	AvoidedLoss	True
443.299	0.38	Lose2	0.6809000000000001	n/a	Yes	3.383	n/a	n/a	GoodResponse	0	n/a	n/a	9	46	Blank	AvoidedLoss	True
443.666	1.45	Lose2	0.6809000000000001	n/a	Yes	3.383	n/a	5.0	GoodResponse	0	0.012	442.678	9	46	Feedback	AvoidedLoss	True
445.115	3.383	Lose2	0.6809000000000001	n/a	Yes	3.383	n/a	n/a	GoodResponse	0	0.0	n/a	9	46	ISIslide	AvoidedLoss	True
448.53	0.25	Lose2	0.6875	0.001	Yes	2.67	0.03	n/a	GoodResponse	0	n/a	n/a	9	47	Cue	AvoidedLoss	True
448.78	4.0	Lose2	0.6875	0.0	Yes	2.67	0.0	n/a	GoodResponse	0	n/a	n/a	9	47	Fixation	AvoidedLoss	True
452.779	0.31	Lose2	0.6875	0.001	Yes	2.67	-0.001	2.0	GoodResponse	0	0.216	451.995	9	47	Target	AvoidedLoss	True
452.995	0.3	Lose2	0.6875	0.001	Yes	2.67	-0.001	2.0	GoodResponse	0	0.216	n/a	9	47	ButtonPress	AvoidedLoss	True
453.096	0.39	Lose2	0.6875	n/a	Yes	2.67	n/a	n/a	GoodResponse	0	n/a	n/a	9	47	Blank	AvoidedLoss	True
453.479	1.45	Lose2	0.6875	n/a	Yes	2.67	n/a	5.0	GoodResponse	0	0.005	452.484	9	47	Feedback	AvoidedLoss	True
454.928	2.67	Lose2	0.6875	n/a	Yes	2.67	n/a	n/a	GoodResponse	0	0.0	n/a	9	47	ISIslide	AvoidedLoss	True
457.627	0.25	Lose2	0.6939	0.0	Yes	3.023	0.027	n/a	GoodResponse	0	n/a	n/a	9	48	Cue	AvoidedLoss	True
457.877	3.95	Lose2	0.6939	0.0	Yes	3.023	0.0	n/a	GoodResponse	0	n/a	n/a	9	48	Fixation	AvoidedLoss	True
461.826	0.3	Lose2	0.6939	0.001	Yes	3.023	-0.001	2.0	GoodResponse	0	0.258	461.084	9	48	Target	AvoidedLoss	True
462.084	0.3	Lose2	0.6939	0.001	Yes	3.023	-0.001	2.0	GoodResponse	0	0.258	n/a	9	48	ButtonPress	AvoidedLoss	True
462.126	0.4	Lose2	0.6939	n/a	Yes	3.023	n/a	n/a	GoodResponse	0	n/a	n/a	9	48	Blank	AvoidedLoss	True
462.526	1.45	Lose2	0.6939	n/a	Yes	3.023	n/a	5.0	GoodResponse	0	0.029	461.555	9	48	Feedback	AvoidedLoss	True
463.975	3.023	Lose2	0.6939	n/a	Yes	3.023	n/a	n/a	GoodResponse	0	0.0	n/a	9	48	ISIslide	AvoidedLoss	True
467.024	0.25	Control	0.68	0.0	No	2.876	0.024	n/a	LatePress	0	n/a	n/a	9	49	Cue	Neutral	True
467.274	4.0	Control	0.68	0.0	No	2.876	0.0	n/a	LatePress	0	n/a	n/a	9	49	Fixation	Neutral	True
471.272	0.29	Control	0.68	0.002	No	2.876	-0.002	2.0	LatePress	0	0.293	470.565	9	49	Target	Neutral	True
471.565	0.3	Control	0.68	0.002	No	2.876	-0.002	2.0	LatePress	0	0.293	n/a	9	49	ButtonPress	Neutral	True
471.572	0.41	Control	0.68	n/a	No	2.876	n/a	n/a	LatePress	0	n/a	n/a	9	49	Blank	Neutral	True
471.972	1.45	Control	0.68	n/a	No	2.876	n/a	5.0	LatePress	0	0.047	471.019	9	49	Feedback	Neutral	True
473.422	2.876	Control	0.68	n/a	No	2.876	n/a	n/a	LatePress	0	0.0	n/a	9	49	ISIslide	Neutral	True
476.321	0.25	Control	0.6862999999999999	0.0	Yes	2.779	0.021	n/a	GoodResponse	0	n/a	n/a	9	50	Cue	Neutral	True
476.571	4.0	Control	0.6862999999999999	0.0	Yes	2.779	0.0	n/a	GoodResponse	0	n/a	n/a	9	50	Fixation	Neutral	True
480.569	0.28	Control	0.6862999999999999	0.002	Yes	2.779	-0.002	2.0	GoodResponse	0	0.24	479.809	9	50	Target	Neutral	True
480.809	0.3	Control	0.6862999999999999	0.002	Yes	2.779	-0.002	2.0	GoodResponse	0	0.24	n/a	9	50	ButtonPress	Neutral	True
480.852	0.42	Control	0.6862999999999999	n/a	Yes	2.779	n/a	n/a	GoodResponse	0	n/a	n/a	9	50	Blank	Neutral	True
481.269	1.45	Control	0.6862999999999999	n/a	Yes	2.779	n/a	5.0	GoodResponse	0	0.018	480.287	9	50	Feedback	Neutral	True
482.718	2.779	Control	0.6862999999999999	n/a	Yes	2.779	n/a	n/a	GoodResponse	0	0.0	n/a	9	50	ISIslide	Neutral	True
485.517	0.25	Control	0.6731	0.001	No	2.733	0.017	n/a	NoResponse	0	n/a	n/a	9	51	Cue	Neutral	True
485.767	3.95	Control	0.6731	0.0	No	2.733	0.0	n/a	NoResponse	0	n/a	n/a	9	51	Fixation	Neutral	True
489.716	0.27	Control	0.6731	0.001	No	2.733	-0.001	2.0	NoResponse	0	0.463	489.179	9	51	Target	Neutral	True
489.983	0.43	Control	0.6731	n/a	No	2.733	n/a	n/a	NoResponse	0	n/a	n/a	9	51	Blank	Neutral	True
490.179	0.3	Control	0.6731	0.001	No	2.733	-0.001	2.0	NoResponse	0	0.463	n/a	9	51	ButtonPress	Neutral	True
490.416	1.45	Control	0.6731	n/a	No	2.733	n/a	5.0	NoResponse	0	0.042	489.458	9	51	Feedback	Neutral	True
491.865	2.733	Control	0.6731	n/a	No	2.733	n/a	n/a	NoResponse	0	0.0	n/a	9	51	ISIslide	Neutral	True
494.614	0.25	Control	0.6604000000000001	0.0	No	2.636	0.014	n/a	LatePress	0	n/a	n/a	9	52	Cue	Neutral	True
494.864	4.05	Control	0.6604000000000001	0.0	No	2.636	0.0	n/a	LatePress	0	n/a	n/a	9	52	Fixation	Neutral	True
498.913	0.26	Control	0.6604000000000001	0.001	No	2.636	-0.001	2.0	LatePress	0	0.267	498.18	9	52	Target	Neutral	True
499.179	0.44	Control	0.6604000000000001	n/a	No	2.636	n/a	n/a	LatePress	0	n/a	n/a	9	52	Blank	Neutral	True
499.18	0.3	Control	0.6604000000000001	0.001	No	2.636	-0.001	2.0	LatePress	0	0.267	n/a	9	52	ButtonPress	Neutral	True
499.612	1.45	Control	0.6604000000000001	n/a	No	2.636	n/a	5.0	LatePress	0	0.017	498.629	9	52	Feedback	Neutral	True
501.062	2.636	Control	0.6604000000000001	n/a	No	2.636	n/a	n/a	LatePress	0	0.0	n/a	9	52	ISIslide	Neutral	True
503.728	0.25	Win2	0.6667000000000001	0.0	Yes	2.922	0.028	n/a	GoodResponse	1	n/a	n/a	10	53	Cue	Win	True
503.978	4.05	Win2	0.6667000000000001	0.0	Yes	2.922	0.0	n/a	GoodResponse	1	n/a	n/a	10	53	Fixation	Win	True
508.026	0.26	Win2	0.6667000000000001	0.002	Yes	2.922	-0.002	2.0	GoodResponse	1	0.202	507.228	10	53	Target	Win	True
508.228	0.3	Win2	0.6667000000000001	0.002	Yes	2.922	-0.002	2.0	GoodResponse	1	0.202	n/a	10	53	ButtonPress	Win	True
508.293	0.44	Win2	0.6667000000000001	n/a	Yes	2.922	n/a	n/a	GoodResponse	1	n/a	n/a	10	53	Blank	Win	True
508.726	1.45	Win2	0.6667000000000001	n/a	Yes	2.922	n/a	5.0	GoodResponse	1	0.024	507.75	10	53	Feedback	Win	True
510.175	2.922	Win2	0.6667000000000001	n/a	Yes	2.922	n/a	n/a	GoodResponse	1	0.0	n/a	10	53	ISIslide	Win	True
513.124	0.25	Win2	0.6545000000000001	0.0	No	2.726	0.024	n/a	NoResponse	0	n/a	n/a	10	54	Cue	MissedWin	True
513.374	3.95	Win2	0.6545000000000001	0.0	No	2.726	0.0	n/a	NoResponse	0	n/a	n/a	10	54	Fixation	MissedWin	True
517.323	0.25	Win2	0.6545000000000001	0.001	No	2.726	-0.001	2.0	NoResponse	0	0.32	516.643	10	54	Target	MissedWin	True
517.573	0.45	Win2	0.6545000000000001	n/a	No	2.726	n/a	n/a	NoResponse	0	n/a	n/a	10	54	Blank	MissedWin	True
517.643	0.3	Win2	0.6545000000000001	0.001	No	2.726	-0.001	2.0	NoResponse	0	0.32	n/a	10	54	ButtonPress	MissedWin	True
518.023	1.45	Win2	0.6545000000000001	n/a	No	2.726	n/a	5.0	NoResponse	0	0.044	517.067	10	54	Feedback	MissedWin	True
519.472	2.726	Win2	0.6545000000000001	n/a	No	2.726	n/a	n/a	NoResponse	0	0.0	n/a	10	54	ISIslide	MissedWin	True
522.221	0.25	Control	0.6607	0.0	Yes	3.029	0.021	n/a	GoodResponse	0	n/a	n/a	10	55	Cue	Neutral	True
522.471	3.95	Control	0.6607	0.0	Yes	3.029	0.0	n/a	GoodResponse	0	n/a	n/a	10	55	Fixation	Neutral	True
526.42	0.26	Control	0.6607	0.001	Yes	3.029	-0.001	2.0	GoodResponse	0	0.219	525.639	10	55	Target	Neutral	True
526.639	0.3	Control	0.6607	0.001	Yes	3.029	-0.001	2.0	GoodResponse	0	0.219	n/a	10	55	ButtonPress	Neutral	True
526.686	0.44	Control	0.6607	n/a	Yes	3.029	n/a	n/a	GoodResponse	0	n/a	n/a	10	55	Blank	Neutral	True
527.119	1.45	Control	0.6607	n/a	Yes	3.029	n/a	5.0	GoodResponse	0	0.021	526.14	10	55	Feedback	Neutral	True
528.569	3.029	Control	0.6607	n/a	Yes	3.029	n/a	n/a	GoodResponse	0	0.0	n/a	10	55	ISIslide	Neutral	True
531.618	0.25	Control	0.6667000000000001	0.0	Yes	2.832	0.018	n/a	GoodResponse	0	n/a	n/a	10	56	Cue	Neutral	True
531.868	3.95	Control	0.6667000000000001	0.0	Yes	2.832	0.0	n/a	GoodResponse	0	n/a	n/a	10	56	Fixation	Neutral	True
535.816	0.26	Control	0.6667000000000001	0.002	Yes	2.832	-0.002	2.0	GoodResponse	0	0.229	535.045	10	56	Target	Neutral	True
536.045	0.3	Control	0.6667000000000001	0.002	Yes	2.832	-0.002	2.0	GoodResponse	0	0.229	n/a	10	56	ButtonPress	Neutral	True
536.083	0.44	Control	0.6667000000000001	n/a	Yes	2.832	n/a	n/a	GoodResponse	0	n/a	n/a	10	56	Blank	Neutral	True
536.516	1.45	Control	0.6667000000000001	n/a	Yes	2.832	n/a	5.0	GoodResponse	0	0.039	535.555	10	56	Feedback	Neutral	True
537.966	2.832	Control	0.6667000000000001	n/a	Yes	2.832	n/a	n/a	GoodResponse	0	0.0	n/a	10	56	ISIslide	Neutral	True
540.815	0.25	Control	0.6724	0.0	Yes	3.485	0.015	n/a	GoodResponse	0	n/a	n/a	10	57	Cue	Neutral	True
541.065	4.0	Control	0.6724	0.0	Yes	3.485	0.0	n/a	GoodResponse	0	n/a	n/a	10	57	Fixation	Neutral	True
545.063	0.25	Control	0.6724	0.002	Yes	3.485	-0.002	2.0	GoodResponse	0	0.237	544.3	10	57	Target	Neutral	True
545.3	0.3	Control	0.6724	0.002	Yes	3.485	-0.002	2.0	GoodResponse	0	0.237	n/a	10	57	ButtonPress	Neutral	True
545.313	0.45	Control	0.6724	n/a	Yes	3.485	n/a	n/a	GoodResponse	0	n/a	n/a	10	57	Blank	Neutral	True
545.763	1.45	Control	0.6724	n/a	Yes	3.485	n/a	5.0	GoodResponse	0	0.012	544.775	10	57	Feedback	Neutral	True
547.212	3.485	Control	0.6724	n/a	Yes	3.485	n/a	n/a	GoodResponse	0	0.0	n/a	10	57	ISIslide	Neutral	True
550.728	0.25	Win2	0.6609999999999999	0.0	No	2.722	0.028	n/a	NoResponse	0	n/a	n/a	10	58	Cue	MissedWin	True
550.978	4.05	Win2	0.6609999999999999	0.0	No	2.722	0.0	n/a	NoResponse	0	n/a	n/a	10	58	Fixation	MissedWin	True
555.026	0.24	Win2	0.6609999999999999	0.002	No	2.722	-0.002	2.0	NoResponse	0	0.375	554.401	10	58	Target	MissedWin	True
555.276	0.46	Win2	0.6609999999999999	n/a	No	2.722	n/a	n/a	NoResponse	0	n/a	n/a	10	58	Blank	MissedWin	True
555.401	0.3	Win2	0.6609999999999999	0.002	No	2.722	-0.002	2.0	NoResponse	0	0.375	n/a	10	58	ButtonPress	MissedWin	True
555.726	1.45	Win2	0.6609999999999999	n/a	No	2.722	n/a	5.0	NoResponse	0	0.048	554.774	10	58	Feedback	MissedWin	True
557.176	2.722	Win2	0.6609999999999999	n/a	No	2.722	n/a	n/a	NoResponse	0	0.0	n/a	10	58	ISIslide	MissedWin	True
559.925	0.25	Lose2	0.6667000000000001	0.0	Yes	2.675	0.025	n/a	GoodResponse	0	n/a	n/a	10	59	Cue	AvoidedLoss	True
560.174	4.0	Lose2	0.6667000000000001	0.001	Yes	2.675	-0.001	n/a	GoodResponse	0	n/a	n/a	10	59	Fixation	AvoidedLoss	True
564.173	0.24	Lose2	0.6667000000000001	0.002	Yes	2.675	-0.002	2.0	GoodResponse	0	0.212	563.385	10	59	Target	AvoidedLoss	True
564.385	0.3	Lose2	0.6667000000000001	0.002	Yes	2.675	-0.002	2.0	GoodResponse	0	0.212	n/a	10	59	ButtonPress	AvoidedLoss	True
564.423	0.46	Lose2	0.6667000000000001	n/a	Yes	2.675	n/a	n/a	GoodResponse	0	n/a	n/a	10	59	Blank	AvoidedLoss	True
564.873	1.45	Lose2	0.6667000000000001	n/a	Yes	2.675	n/a	5.0	GoodResponse	0	0.023	563.896	10	59	Feedback	AvoidedLoss	True
566.322	2.675	Lose2	0.6667000000000001	n/a	Yes	2.675	n/a	n/a	GoodResponse	0	0.0	n/a	10	59	ISIslide	AvoidedLoss	True
569.021	0.25	Control	0.6720999999999999	0.0	Yes	2.679	0.021	n/a	GoodResponse	0	n/a	n/a	10	60	Cue	Neutral	True
569.271	4.0	Control	0.6720999999999999	0.0	Yes	2.679	0.0	n/a	GoodResponse	0	n/a	n/a	10	60	Fixation	Neutral	True
573.27	0.23	Control	0.6720999999999999	0.001	Yes	2.679	-0.001	2.0	GoodResponse	0	0.2	572.47	10	60	Target	Neutral	True
573.47	0.3	Control	0.6720999999999999	0.001	Yes	2.679	-0.001	2.0	GoodResponse	0	0.2	n/a	10	60	ButtonPress	Neutral	True
573.503	0.47	Control	0.6720999999999999	n/a	Yes	2.679	n/a	n/a	GoodResponse	0	n/a	n/a	10	60	Blank	Neutral	True
573.97	1.45	Control	0.6720999999999999	n/a	Yes	2.679	n/a	5.0	GoodResponse	0	0.048	573.018	10	60	Feedback	Neutral	True
575.419	2.679	Control	0.6720999999999999	n/a	Yes	2.679	n/a	n/a	GoodResponse	0	0.0	n/a	10	60	ISIslide	Neutral	True
578.118	0.25	Lose2	0.6613	0.0	No	2.982	0.018	n/a	NoResponse	-1	n/a	n/a	9	61	Cue	Loss	True
578.368	4.0	Lose2	0.6613	0.0	No	2.982	0.0	n/a	NoResponse	-1	n/a	n/a	9	61	Fixation	Loss	True
582.367	0.22	Lose2	0.6613	0.001	No	2.982	-0.001	2.0	NoResponse	-1	0.247	581.614	9	61	Target	Loss	True
582.6	0.48	Lose2	0.6613	n/a	No	2.982	n/a	n/a	NoResponse	-1	n/a	n/a	9	61	Blank	Loss	True
582.614	0.3	Lose2	0.6613	0.001	No	2.982	-0.001	2.0	NoResponse	-1	0.247	n/a	9	61	ButtonPress	Loss	True
583.066	1.45	Lose2	0.6613	n/a	No	2.982	n/a	5.0	NoResponse	-1	0.025	582.091	9	61	Feedback	Loss	True
584.516	2.982	Lose2	0.6613	n/a	No	2.982	n/a	n/a	NoResponse	-1	0.0	n/a	9	61	ISIslide	Loss	True
587.515	0.25	Lose2	0.6507999999999999	0.0	No	2.885	0.015	n/a	NoResponse	-1	n/a	n/a	8	62	Cue	Loss	True
587.765	3.9	Lose2	0.6507999999999999	0.0	No	2.885	0.0	n/a	NoResponse	-1	n/a	n/a	8	62	Fixation	Loss	True
591.663	0.22	Lose2	0.6507999999999999	0.002	No	2.885	-0.002	2.0	NoResponse	-1	0.248	590.911	8	62	Target	Loss	True
591.897	0.48	Lose2	0.6507999999999999	n/a	No	2.885	n/a	n/a	NoResponse	-1	n/a	n/a	8	62	Blank	Loss	True
591.911	0.3	Lose2	0.6507999999999999	0.002	No	2.885	-0.002	2.0	NoResponse	-1	0.248	n/a	8	62	ButtonPress	Loss	True
592.363	1.45	Lose2	0.6507999999999999	n/a	No	2.885	n/a	5.0	NoResponse	-1	0.044	591.407	8	62	Feedback	Loss	True
593.813	2.885	Lose2	0.6507999999999999	n/a	No	2.885	n/a	n/a	NoResponse	-1	0.0	n/a	8	62	ISIslide	Loss	True
596.728	0.25	Lose2	0.6562	0.0	Yes	2.622	0.028	n/a	GoodResponse	0	n/a	n/a	8	63	Cue	AvoidedLoss	True
596.978	4.05	Lose2	0.6562	0.0	Yes	2.622	0.0	n/a	GoodResponse	0	n/a	n/a	8	63	Fixation	AvoidedLoss	True
601.027	0.23	Lose2	0.6562	0.001	Yes	2.622	-0.001	2.0	GoodResponse	0	0.225	600.252	8	63	Target	AvoidedLoss	True
601.252	0.3	Lose2	0.6562	0.001	Yes	2.622	-0.001	2.0	GoodResponse	0	0.225	n/a	8	63	ButtonPress	AvoidedLoss	True
601.26	0.47	Lose2	0.6562	n/a	Yes	2.622	n/a	n/a	GoodResponse	0	n/a	n/a	8	63	Blank	AvoidedLoss	True
601.727	1.45	Lose2	0.6562	n/a	Yes	2.622	n/a	5.0	GoodResponse	0	0.046	600.773	8	63	Feedback	AvoidedLoss	True
603.176	2.622	Lose2	0.6562	n/a	Yes	2.622	n/a	n/a	GoodResponse	0	0.0	n/a	8	63	ISIslide	AvoidedLoss	True
605.825	0.25	Win2	0.6615000000000001	0.0	Yes	3.125	0.025	n/a	GoodResponse	1	n/a	n/a	9	64	Cue	Win	True
606.075	4.15	Win2	0.6615000000000001	0.0	Yes	3.125	0.0	n/a	GoodResponse	1	n/a	n/a	9	64	Fixation	Win	True
610.224	0.23	Win2	0.6615000000000001	0.001	Yes	3.125	-0.001	2.0	GoodResponse	1	0.212	609.436	9	64	Target	Win	True
610.436	0.3	Win2	0.6615000000000001	0.001	Yes	3.125	-0.001	2.0	GoodResponse	1	0.212	n/a	9	64	ButtonPress	Win	True
610.457	0.47	Win2	0.6615000000000001	n/a	Yes	3.125	n/a	n/a	GoodResponse	1	n/a	n/a	9	64	Blank	Win	True
610.923	1.45	Win2	0.6615000000000001	n/a	Yes	3.125	n/a	5.0	GoodResponse	1	0.021	609.944	9	64	Feedback	Win	True
612.373	3.125	Win2	0.6615000000000001	n/a	Yes	3.125	n/a	n/a	GoodResponse	1	0.0	n/a	9	64	ISIslide	Win	True
615.522	0.25	Control	0.6515000000000001	0.0	No	2.778	0.022	n/a	NoResponse	0	n/a	n/a	9	65	Cue	Neutral	True
615.772	4.0	Control	0.6515000000000001	0.0	No	2.778	0.0	n/a	NoResponse	0	n/a	n/a	9	65	Fixation	Neutral	True
619.77	0.23	Control	0.6515000000000001	0.002	No	2.778	-0.002	2.0	NoResponse	0	0.539	619.309	9	65	Target	Neutral	True
620.003	0.47	Control	0.6515000000000001	n/a	No	2.778	n/a	n/a	NoResponse	0	n/a	n/a	9	65	Blank	Neutral	True
620.309	0.3	Control	0.6515000000000001	0.002	No	2.778	-0.002	2.0	NoResponse	0	0.539	n/a	9	65	ButtonPress	Neutral	True
620.47	1.45	Control	0.6515000000000001	n/a	No	2.778	n/a	5.0	NoResponse	0	0.035	619.505	9	65	Feedback	Neutral	True
621.919	2.778	Control	0.6515000000000001	n/a	No	2.778	n/a	n/a	NoResponse	0	0.0	n/a	9	65	ISIslide	Neutral	True
624.718	0.25	Win2	0.6567000000000001	0.0	Yes	2.782	0.018	n/a	GoodResponse	1	n/a	n/a	10	66	Cue	Win	True
624.968	3.9	Win2	0.6567000000000001	0.0	Yes	2.782	0.0	n/a	GoodResponse	1	n/a	n/a	10	66	Fixation	Win	True
628.867	0.24	Win2	0.6567000000000001	0.001	Yes	2.782	-0.001	2.0	GoodResponse	1	0.237	628.104	10	66	Target	Win	True
629.104	0.3	Win2	0.6567000000000001	0.001	Yes	2.782	-0.001	2.0	GoodResponse	1	0.237	n/a	10	66	ButtonPress	Win	True
629.117	0.46	Win2	0.6567000000000001	n/a	Yes	2.782	n/a	n/a	GoodResponse	1	n/a	n/a	10	66	Blank	Win	True
629.567	1.45	Win2	0.6567000000000001	n/a	Yes	2.782	n/a	5.0	GoodResponse	1	0.012	628.579	10	66	Feedback	Win	True
631.016	2.782	Win2	0.6567000000000001	n/a	Yes	2.782	n/a	n/a	GoodResponse	1	0.0	n/a	10	66	ISIslide	Win	True
633.815	0.25	Control	0.6470999999999999	0.0	No	2.735	0.015	n/a	NoResponse	0	n/a	n/a	10	67	Cue	Neutral	True
634.065	3.95	Control	0.6470999999999999	0.0	No	2.735	0.0	n/a	NoResponse	0	n/a	n/a	10	67	Fixation	Neutral	True
638.014	0.24	Control	0.6470999999999999	0.001	No	2.735	-0.001	2.0	NoResponse	0	0.357	637.371	10	67	Target	Neutral	True
638.264	0.46	Control	0.6470999999999999	n/a	No	2.735	n/a	n/a	NoResponse	0	n/a	n/a	10	67	Blank	Neutral	True
638.371	0.3	Control	0.6470999999999999	0.001	No	2.735	-0.001	2.0	NoResponse	0	0.357	n/a	10	67	ButtonPress	Neutral	True
638.713	1.45	Control	0.6470999999999999	n/a	No	2.735	n/a	5.0	NoResponse	0	0.036	637.749	10	67	Feedback	Neutral	True
640.163	2.735	Control	0.6470999999999999	n/a	No	2.735	n/a	n/a	NoResponse	0	0.0	n/a	10	67	ISIslide	Neutral	True
642.929	0.25	Win2	0.6522	0.0	Yes	3.071	0.029	n/a	GoodResponse	1	n/a	n/a	11	68	Cue	Win	True
643.179	4.0	Win2	0.6522	0.0	Yes	3.071	0.0	n/a	GoodResponse	1	n/a	n/a	11	68	Fixation	Win	True
647.177	0.25	Win2	0.6522	0.002	Yes	3.071	-0.002	2.0	GoodResponse	1	0.248	646.425	11	68	Target	Win	True
647.425	0.3	Win2	0.6522	0.002	Yes	3.071	-0.002	2.0	GoodResponse	1	0.248	n/a	11	68	ButtonPress	Win	True
647.427	0.45	Win2	0.6522	n/a	Yes	3.071	n/a	n/a	GoodResponse	1	n/a	n/a	11	68	Blank	Win	True
647.877	1.45	Win2	0.6522	n/a	Yes	3.071	n/a	5.0	GoodResponse	1	0.042	646.919	11	68	Feedback	Win	True
649.326	3.071	Win2	0.6522	n/a	Yes	3.071	n/a	n/a	GoodResponse	1	0.0	n/a	11	68	ISIslide	Win	True
652.425	0.25	Win2	0.6570999999999999	0.0	Yes	3.225	0.025	n/a	GoodResponse	1	n/a	n/a	12	69	Cue	Win	True
652.675	3.95	Win2	0.6570999999999999	0.0	Yes	3.225	0.0	n/a	GoodResponse	1	n/a	n/a	12	69	Fixation	Win	True
656.624	0.26	Win2	0.6570999999999999	0.001	Yes	3.225	-0.001	2.0	GoodResponse	1	0.239	655.863	12	69	Target	Win	True
656.863	0.3	Win2	0.6570999999999999	0.001	Yes	3.225	-0.001	2.0	GoodResponse	1	0.239	n/a	12	69	ButtonPress	Win	True
656.89	0.44	Win2	0.6570999999999999	n/a	Yes	3.225	n/a	n/a	GoodResponse	1	n/a	n/a	12	69	Blank	Win	True
657.324	1.45	Win2	0.6570999999999999	n/a	Yes	3.225	n/a	5.0	GoodResponse	1	0.01	656.334	12	69	Feedback	Win	True
658.773	3.225	Win2	0.6570999999999999	n/a	Yes	3.225	n/a	n/a	GoodResponse	1	0.0	n/a	12	69	ISIslide	Win	True
662.022	0.25	Lose2	0.662	0.0	Yes	3.028	0.022	n/a	GoodResponse	0	n/a	n/a	12	70	Cue	AvoidedLoss	True
662.272	4.05	Lose2	0.662	0.0	Yes	3.028	0.0	n/a	GoodResponse	0	n/a	n/a	12	70	Fixation	AvoidedLoss	True
666.32	0.26	Lose2	0.662	0.002	Yes	3.028	-0.002	2.0	GoodResponse	0	0.157	665.477	12	70	Target	AvoidedLoss	True
666.477	0.3	Lose2	0.662	0.002	Yes	3.028	-0.002	2.0	GoodResponse	0	0.157	n/a	12	70	ButtonPress	AvoidedLoss	True
666.587	0.44	Lose2	0.662	n/a	Yes	3.028	n/a	n/a	GoodResponse	0	n/a	n/a	12	70	Blank	AvoidedLoss	True
667.02	1.45	Lose2	0.662	n/a	Yes	3.028	n/a	5.0	GoodResponse	0	0.022	666.042	12	70	Feedback	AvoidedLoss	True
668.47	3.028	Lose2	0.662	n/a	Yes	3.028	n/a	n/a	GoodResponse	0	0.0	n/a	12	70	ISIslide	AvoidedLoss	True
671.519	0.25	Win2	0.6667000000000001	0.0	Yes	2.731	0.019	n/a	GoodResponse	1	n/a	n/a	13	71	Cue	Win	True
671.769	4.05	Win2	0.6667000000000001	0.0	Yes	2.731	0.0	n/a	GoodResponse	1	n/a	n/a	13	71	Fixation	Win	True
675.817	0.26	Win2	0.6667000000000001	0.002	Yes	2.731	-0.002	2.0	GoodResponse	1	0.184	675.001	13	71	Target	Win	True
676.001	0.3	Win2	0.6667000000000001	0.002	Yes	2.731	-0.002	2.0	GoodResponse	1	0.184	n/a	13	71	ButtonPress	Win	True
676.084	0.44	Win2	0.6667000000000001	n/a	Yes	2.731	n/a	n/a	GoodResponse	1	n/a	n/a	13	71	Blank	Win	True
676.517	1.45	Win2	0.6667000000000001	n/a	Yes	2.731	n/a	5.0	GoodResponse	1	0.036	675.553	13	71	Feedback	Win	True
677.966	2.731	Win2	0.6667000000000001	n/a	Yes	2.731	n/a	n/a	GoodResponse	1	0.0	n/a	13	71	ISIslide	Win	True
680.715	0.25	Win2	0.6575	0.0	No	2.785	0.015	n/a	NoResponse	0	n/a	n/a	13	72	Cue	MissedWin	True
680.965	4.1	Win2	0.6575	0.0	No	2.785	0.0	n/a	NoResponse	0	n/a	n/a	13	72	Fixation	MissedWin	True
685.064	0.25	Win2	0.6575	0.001	No	2.785	-0.001	2.0	NoResponse	0	0.4	684.464	13	72	Target	MissedWin	True
685.314	0.45	Win2	0.6575	n/a	No	2.785	n/a	n/a	NoResponse	0	n/a	n/a	13	72	Blank	MissedWin	True
685.464	0.3	Win2	0.6575	0.001	No	2.785	-0.001	2.0	NoResponse	0	0.4	n/a	13	72	ButtonPress	MissedWin	True
685.764	1.45	Win2	0.6575	n/a	No	2.785	n/a	5.0	NoResponse	0	0.008	684.772	13	72	Feedback	MissedWin	True
687.213	2.785	Win2	0.6575	n/a	No	2.785	n/a	n/a	NoResponse	0	0.0	n/a	13	72	ISIslide	MissedWin	True
690.029	0.25	Win2	0.6622	0.0	Yes	2.671	0.029	n/a	GoodResponse	1	n/a	n/a	14	73	Cue	Win	True
690.279	4.0	Win2	0.6622	0.0	Yes	2.671	0.0	n/a	GoodResponse	1	n/a	n/a	14	73	Fixation	Win	True
694.277	0.25	Win2	0.6622	0.002	Yes	2.671	-0.002	2.0	GoodResponse	1	0.2	693.477	14	73	Target	Win	True
694.477	0.3	Win2	0.6622	0.002	Yes	2.671	-0.002	2.0	GoodResponse	1	0.2	n/a	14	73	ButtonPress	Win	True
694.527	0.45	Win2	0.6622	n/a	Yes	2.671	n/a	n/a	GoodResponse	1	n/a	n/a	14	73	Blank	Win	True
694.977	1.45	Win2	0.6622	n/a	Yes	2.671	n/a	5.0	GoodResponse	1	0.015	693.992	14	73	Feedback	Win	True
696.426	2.671	Win2	0.6622	n/a	Yes	2.671	n/a	n/a	GoodResponse	1	0.0	n/a	14	73	ISIslide	Win	True
699.126	0.25	Lose2	0.6667000000000001	0.0	Yes	2.624	0.026	n/a	GoodResponse	0	n/a	n/a	14	74	Cue	AvoidedLoss	True
699.375	4.05	Lose2	0.6667000000000001	0.001	Yes	2.624	-0.001	n/a	GoodResponse	0	n/a	n/a	14	74	Fixation	AvoidedLoss	True
703.424	0.25	Lose2	0.6667000000000001	0.002	Yes	2.624	-0.002	2.0	GoodResponse	0	0.222	702.646	14	74	Target	AvoidedLoss	True
703.646	0.3	Lose2	0.6667000000000001	0.002	Yes	2.624	-0.002	2.0	GoodResponse	0	0.222	n/a	14	74	ButtonPress	AvoidedLoss	True
703.674	0.45	Lose2	0.6667000000000001	n/a	Yes	2.624	n/a	n/a	GoodResponse	0	n/a	n/a	14	74	Blank	AvoidedLoss	True
704.124	1.45	Lose2	0.6667000000000001	n/a	Yes	2.624	n/a	5.0	GoodResponse	0	0.039	703.163	14	74	Feedback	AvoidedLoss	True
705.573	2.624	Lose2	0.6667000000000001	n/a	Yes	2.624	n/a	n/a	GoodResponse	0	0.0	n/a	14	74	ISIslide	AvoidedLoss	True
708.222	0.25	Lose2	0.6579	0.0	No	2.928	0.022	n/a	NoResponse	-1	n/a	n/a	13	75	Cue	Loss	True
708.472	3.95	Lose2	0.6579	0.0	No	2.928	0.0	n/a	NoResponse	-1	n/a	n/a	13	75	Fixation	Loss	True
712.421	0.24	Lose2	0.6579	0.001	No	2.928	-0.001	2.0	NoResponse	-1	0.268	711.689	13	75	Target	Loss	True
712.671	0.46	Lose2	0.6579	n/a	No	2.928	n/a	n/a	NoResponse	-1	n/a	n/a	13	75	Blank	Loss	True
712.689	0.3	Lose2	0.6579	0.001	No	2.928	-0.001	2.0	NoResponse	-1	0.268	n/a	13	75	ButtonPress	Loss	True
713.121	1.45	Lose2	0.6579	n/a	No	2.928	n/a	5.0	NoResponse	-1	0.018	712.139	13	75	Feedback	Loss	True
714.57	2.928	Lose2	0.6579	n/a	No	2.928	n/a	n/a	NoResponse	-1	0.0	n/a	13	75	ISIslide	Loss	True
717.519	0.25	Control	0.6494	0.0	No	3.231	0.019	n/a	NoResponse	0	n/a	n/a	13	76	Cue	Neutral	True
717.769	4.05	Control	0.6494	0.0	No	3.231	0.0	n/a	NoResponse	0	n/a	n/a	13	76	Fixation	Neutral	True
721.818	0.24	Control	0.6494	0.001	No	3.231	-0.001	2.0	NoResponse	0	0.428	721.246	13	76	Target	Neutral	True
722.067	0.46	Control	0.6494	n/a	No	3.231	n/a	n/a	NoResponse	0	n/a	n/a	13	76	Blank	Neutral	True
722.246	0.3	Control	0.6494	0.001	No	3.231	-0.001	2.0	NoResponse	0	0.428	n/a	13	76	ButtonPress	Neutral	True
722.517	1.45	Control	0.6494	n/a	No	3.231	n/a	5.0	NoResponse	0	0.035	721.552	13	76	Feedback	Neutral	True
723.967	3.231	Control	0.6494	n/a	No	3.231	n/a	n/a	NoResponse	0	0.0	n/a	13	76	ISIslide	Neutral	True
727.216	0.25	Lose2	0.6409999999999999	0.0	No	2.584	0.016	n/a	NoResponse	-1	n/a	n/a	12	77	Cue	Loss	True
727.466	3.95	Lose2	0.6409999999999999	0.0	No	2.584	0.0	n/a	NoResponse	-1	n/a	n/a	12	77	Fixation	Loss	True
731.414	0.25	Lose2	0.6409999999999999	0.002	No	2.584	-0.002	2.0	NoResponse	-1	0.316	730.73	12	77	Target	Loss	True
731.664	0.45	Lose2	0.6409999999999999	n/a	No	2.584	n/a	n/a	NoResponse	-1	n/a	n/a	12	77	Blank	Loss	True
731.73	0.3	Lose2	0.6409999999999999	0.002	No	2.584	-0.002	2.0	NoResponse	-1	0.316	n/a	12	77	ButtonPress	Loss	True
732.114	1.45	Lose2	0.6409999999999999	n/a	No	2.584	n/a	5.0	NoResponse	-1	0.0	731.114	12	77	Feedback	Loss	True
733.563	2.584	Lose2	0.6409999999999999	n/a	No	2.584	n/a	n/a	NoResponse	-1	0.0	n/a	12	77	ISIslide	Loss	True
