onset	duration	cue_type	current_mean_accuracy	duration_error	is_hit	isi_adjusted	onset_delay	response	response_type	reward	rt	rt_time	total_reward	trial_number	trial_phase	trial_type	one_press
11.099	0.25	Control	1.0	0.0	Yes	2.951	-0.001	n/a	GoodResponse	0	n/a	n/a	0	0	Cue	Neutral	True
11.35	3.85	Control	1.0	0.0	Yes	2.951	0.001	n/a	GoodResponse	0	n/a	n/a	0	0	Fixation	Neutral	True
15.211	0.4	Control	1.0	0.0	Yes	2.951	0.012	2.0	GoodResponse	0	0.188	14.399	0	0	Target	Neutral	True
15.399	0.3	Control	1.0	0.0	Yes	2.951	0.012	2.0	GoodResponse	0	0.188	n/a	0	0	ButtonPress	Neutral	True
15.596	0.3	Control	1.0	n/a	Yes	2.951	n/a	n/a	GoodResponse	0	n/a	n/a	0	0	Blank	Neutral	True
15.896	1.45	Control	1.0	n/a	Yes	2.951	n/a	5.0	GoodResponse	0	0.031	14.927	0	0	Feedback	Neutral	True
17.351	2.951	Control	1.0	n/a	Yes	2.951	n/a	n/a	GoodResponse	0	0.0	n/a	0	0	ISIslide	Neutral	True
20.326	0.25	Lose2	1.0	0.0	Yes	2.774	0.026	n/a	GoodResponse	0	n/a	n/a	0	1	Cue	AvoidedLoss	True
20.577	4.0	Lose2	1.0	0.0	Yes	2.774	0.001	n/a	GoodResponse	0	n/a	n/a	0	1	Fixation	AvoidedLoss	True
24.572	0.39	Lose2	1.0	0.004	Yes	2.774	-0.004	2.0	GoodResponse	0	0.19	23.762	0	1	Target	AvoidedLoss	True
24.762	0.3	Lose2	1.0	0.004	Yes	2.774	-0.004	2.0	GoodResponse	0	0.19	n/a	0	1	ButtonPress	AvoidedLoss	True
24.974	0.31	Lose2	1.0	n/a	Yes	2.774	n/a	n/a	GoodResponse	0	n/a	n/a	0	1	Blank	AvoidedLoss	True
25.274	1.45	Lose2	1.0	n/a	Yes	2.774	n/a	5.0	GoodResponse	0	0.018	24.292	0	1	Feedback	AvoidedLoss	True
26.729	2.774	Lose2	1.0	n/a	Yes	2.774	n/a	n/a	GoodResponse	0	0.0	n/a	0	1	ISIslide	AvoidedLoss	True
29.521	0.25	Control	1.0	0.0	Yes	2.579	0.021	n/a	GoodResponse	0	n/a	n/a	0	2	Cue	Neutral	True
29.771	4.1	Control	1.0	0.0	Yes	2.579	0.0	n/a	GoodResponse	0	n/a	n/a	0	2	Fixation	Neutral	True
33.867	0.38	Control	1.0	0.004	Yes	2.579	-0.004	2.0	GoodResponse	0	0.181	33.048	0	2	Target	Neutral	True
34.048	0.3	Control	1.0	0.004	Yes	2.579	-0.004	2.0	GoodResponse	0	0.181	n/a	0	2	ButtonPress	Neutral	True
34.251	0.32	Control	1.0	n/a	Yes	2.579	n/a	n/a	GoodResponse	0	n/a	n/a	0	2	Blank	Neutral	True
34.569	1.45	Control	1.0	n/a	Yes	2.579	n/a	5.0	GoodResponse	0	0.04	33.609	0	2	Feedback	Neutral	True
36.023	2.579	Control	1.0	n/a	Yes	2.579	n/a	n/a	GoodResponse	0	0.0	n/a	0	2	ISIslide	Neutral	True
38.631	0.25	Win2	1.0	0.0	Yes	2.819	0.031	n/a	GoodResponse	1	n/a	n/a	1	3	Cue	Win	True
38.882	3.95	Win2	1.0	0.0	Yes	2.819	0.001	n/a	GoodResponse	1	n/a	n/a	1	3	Fixation	Win	True
42.827	0.37	Win2	1.0	0.004	Yes	2.819	-0.004	2.0	GoodResponse	1	0.213	42.04	1	3	Target	Win	True
43.04	0.3	Win2	1.0	0.004	Yes	2.819	-0.004	2.0	GoodResponse	1	0.213	n/a	1	3	ButtonPress	Win	True
43.211	0.33	Win2	1.0	n/a	Yes	2.819	n/a	n/a	GoodResponse	1	n/a	n/a	1	3	Blank	Win	True
43.529	1.45	Win2	1.0	n/a	Yes	2.819	n/a	5.0	GoodResponse	1	0.008	42.537	1	3	Feedback	Win	True
44.983	2.819	Win2	1.0	n/a	Yes	2.819	n/a	n/a	GoodResponse	1	0.0	n/a	1	3	ISIslide	Win	True
47.825	0.25	Win2	0.8	0.0	No	3.275	0.025	n/a	NoResponse	0	n/a	n/a	1	4	Cue	MissedWin	True
48.076	4.0	Win2	0.8	0.0	No	3.275	0.001	2.0	NoResponse	0	3.915	50.991	1	4	Fixation	MissedWin	True
51.991	0.3	Win2	0.8	0.0	No	3.275	0.001	2.0	NoResponse	0	3.915	n/a	1	4	ButtonPress	MissedWin	True
52.071	0.36	Win2	0.8	0.004	No	3.275	-0.004	n/a	NoResponse	0	n/a	n/a	1	4	Target	MissedWin	True
52.439	0.34	Win2	0.8	n/a	No	3.275	n/a	n/a	NoResponse	0	n/a	n/a	1	4	Blank	MissedWin	True
52.773	1.45	Win2	0.8	n/a	No	3.275	n/a	5.0	NoResponse	0	0.031	51.804	1	4	Feedback	MissedWin	True
54.228	3.275	Win2	0.8	n/a	No	3.275	n/a	n/a	NoResponse	0	0.0	n/a	1	4	ISIslide	MissedWin	True
57.521	0.25	Win2	0.8332999999999999	0.0	Yes	2.779	0.021	n/a	GoodResponse	1	n/a	n/a	2	5	Cue	Win	True
57.772	4.0	Win2	0.8332999999999999	0.0	Yes	2.779	0.001	n/a	GoodResponse	1	n/a	n/a	2	5	Fixation	Win	True
61.767	0.35	Win2	0.8332999999999999	0.004	Yes	2.779	-0.004	2.0	GoodResponse	1	0.18	60.947	2	5	Target	Win	True
61.947	0.3	Win2	0.8332999999999999	0.004	Yes	2.779	-0.004	2.0	GoodResponse	1	0.18	n/a	2	5	ButtonPress	Win	True
62.118	0.35	Win2	0.8332999999999999	n/a	Yes	2.779	n/a	n/a	GoodResponse	1	n/a	n/a	2	5	Blank	Win	True
62.469	1.45	Win2	0.8332999999999999	n/a	Yes	2.779	n/a	5.0	GoodResponse	1	0.043	61.512	2	5	Feedback	Win	True
63.923	2.779	Win2	0.8332999999999999	n/a	Yes	2.779	n/a	n/a	GoodResponse	1	0.0	n/a	2	5	ISIslide	Win	True
66.732	0.25	Lose2	0.8571	0.0	Yes	2.718	0.032	n/a	GoodResponse	0	n/a	n/a	2	6	Cue	AvoidedLoss	True
66.983	3.95	Lose2	0.8571	0.0	Yes	2.718	0.001	n/a	GoodResponse	0	n/a	n/a	2	6	Fixation	AvoidedLoss	True
70.928	0.34	Lose2	0.8571	0.004	Yes	2.718	-0.004	2.0	GoodResponse	0	0.177	70.105	2	6	Target	AvoidedLoss	True
71.105	0.3	Lose2	0.8571	0.004	Yes	2.718	-0.004	2.0	GoodResponse	0	0.177	n/a	2	6	ButtonPress	AvoidedLoss	True
71.279	0.36	Lose2	0.8571	n/a	Yes	2.718	n/a	n/a	GoodResponse	0	n/a	n/a	2	6	Blank	AvoidedLoss	True
71.63	1.45	Lose2	0.8571	n/a	Yes	2.718	n/a	5.0	GoodResponse	0	0.008	70.638	2	6	Feedback	AvoidedLoss	True
73.084	2.718	Lose2	0.8571	n/a	Yes	2.718	n/a	n/a	GoodResponse	0	0.0	n/a	2	6	ISIslide	AvoidedLoss	True
75.826	0.25	Lose2	0.875	0.0	Yes	4.024	0.026	n/a	GoodResponse	0	n/a	n/a	2	7	Cue	AvoidedLoss	True
76.076	4.05	Lose2	0.875	0.0	Yes	4.024	0.0	n/a	GoodResponse	0	n/a	n/a	2	7	Fixation	AvoidedLoss	True
80.122	0.33	Lose2	0.875	0.004	Yes	4.024	-0.004	2.0	GoodResponse	0	0.191	79.313	2	7	Target	AvoidedLoss	True
80.313	0.3	Lose2	0.875	0.004	Yes	4.024	-0.004	2.0	GoodResponse	0	0.191	n/a	2	7	ButtonPress	AvoidedLoss	True
80.456	0.37	Lose2	0.875	n/a	Yes	4.024	n/a	n/a	GoodResponse	0	n/a	n/a	2	7	Blank	AvoidedLoss	True
80.824	1.45	Lose2	0.875	n/a	Yes	4.024	n/a	5.0	GoodResponse	0	0.028	79.852	2	7	Feedback	AvoidedLoss	True
82.278	4.024	Lose2	0.875	n/a	Yes	4.024	n/a	n/a	GoodResponse	0	0.0	n/a	2	7	ISIslide	AvoidedLoss	True
86.324	0.25	Lose2	0.8889	0.0	Yes	3.026	0.024	n/a	GoodResponse	0	n/a	n/a	2	8	Cue	AvoidedLoss	True
86.574	3.95	Lose2	0.8889	0.001	Yes	3.026	0.0	n/a	GoodResponse	0	n/a	n/a	2	8	Fixation	AvoidedLoss	True
90.52	0.32	Lose2	0.8889	0.004	Yes	3.026	-0.004	2.0	GoodResponse	0	0.207	89.727	2	8	Target	AvoidedLoss	True
90.727	0.3	Lose2	0.8889	0.004	Yes	3.026	-0.004	2.0	GoodResponse	0	0.207	n/a	2	8	ButtonPress	AvoidedLoss	True
90.854	0.38	Lose2	0.8889	n/a	Yes	3.026	n/a	n/a	GoodResponse	0	n/a	n/a	2	8	Blank	AvoidedLoss	True
91.222	1.45	Lose2	0.8889	n/a	Yes	3.026	n/a	5.0	GoodResponse	0	0.021	90.243	2	8	Feedback	AvoidedLoss	True
92.676	3.026	Lose2	0.8889	n/a	Yes	3.026	n/a	n/a	GoodResponse	0	0.0	n/a	2	8	ISIslide	AvoidedLoss	True
95.718	0.25	Lose2	0.9	0.001	Yes	3.132	0.018	n/a	GoodResponse	0	n/a	n/a	2	9	Cue	AvoidedLoss	True
95.969	3.95	Lose2	0.9	0.0	Yes	3.132	0.001	n/a	GoodResponse	0	n/a	n/a	2	9	Fixation	AvoidedLoss	True
99.914	0.31	Lose2	0.9	0.004	Yes	3.132	-0.004	2.0	GoodResponse	0	0.201	99.115	2	9	Target	AvoidedLoss	True
100.115	0.3	Lose2	0.9	0.004	Yes	3.132	-0.004	2.0	GoodResponse	0	0.201	n/a	2	9	ButtonPress	AvoidedLoss	True
100.232	0.39	Lose2	0.9	n/a	Yes	3.132	n/a	n/a	GoodResponse	0	n/a	n/a	2	9	Blank	AvoidedLoss	True
100.616	1.45	Lose2	0.9	n/a	Yes	3.132	n/a	5.0	GoodResponse	0	0.041	99.657	2	9	Feedback	AvoidedLoss	True
102.071	3.132	Lose2	0.9	n/a	Yes	3.132	n/a	n/a	GoodResponse	0	0.0	n/a	2	9	ISIslide	AvoidedLoss	True
105.23	0.25	Control	0.8181999999999999	0.0	No	3.27	0.03	n/a	NoResponse	0	n/a	n/a	2	10	Cue	Neutral	False
105.481	4.0	Control	0.8181999999999999	0.0	No	3.27	0.001	2.0	NoResponse	0	3.459	107.94	2	10	Fixation	Neutral	False
108.94	0.3	Control	0.8181999999999999	0.0	No	3.27	0.001	2.0	NoResponse	0	3.459	n/a	2	10	ButtonPress	Neutral	False
109.476	0.3	Control	0.8181999999999999	0.004	No	3.27	-0.004	2.0	NoResponse	0	0.416	108.892	2	10	Target	Neutral	False
109.777	0.4	Control	0.8181999999999999	n/a	No	3.27	n/a	n/a	NoResponse	0	n/a	n/a	2	10	Blank	Neutral	False
109.892	0.3	Control	0.8181999999999999	0.004	No	3.27	-0.004	2.0	NoResponse	0	0.416	n/a	2	10	ButtonPress	Neutral	False
110.178	1.45	Control	0.8181999999999999	n/a	No	3.27	n/a	5.0	NoResponse	0	0.039	109.217	2	10	Feedback	Neutral	False
111.633	3.27	Control	0.8181999999999999	n/a	No	3.27	n/a	n/a	NoResponse	0	0.0	n/a	2	10	ISIslide	Neutral	False
114.926	0.25	Lose2	0.8332999999999999	0.0	Yes	2.724	0.026	n/a	GoodResponse	0	n/a	n/a	2	11	Cue	AvoidedLoss	True
115.177	4.05	Lose2	0.8332999999999999	0.0	Yes	2.724	0.001	n/a	GoodResponse	0	n/a	n/a	2	11	Fixation	AvoidedLoss	True
119.222	0.29	Lose2	0.8332999999999999	0.004	Yes	2.724	-0.004	2.0	GoodResponse	0	0.208	118.43	2	11	Target	AvoidedLoss	True
119.43	0.3	Lose2	0.8332999999999999	0.004	Yes	2.724	-0.004	2.0	GoodResponse	0	0.208	n/a	2	11	ButtonPress	AvoidedLoss	True
119.523	0.41	Lose2	0.8332999999999999	n/a	Yes	2.724	n/a	n/a	GoodResponse	0	n/a	n/a	2	11	Blank	AvoidedLoss	True
119.924	1.45	Lose2	0.8332999999999999	n/a	Yes	2.724	n/a	5.0	GoodResponse	0	0.001	118.925	2	11	Feedback	AvoidedLoss	True
121.379	2.724	Lose2	0.8332999999999999	n/a	Yes	2.724	n/a	n/a	GoodResponse	0	0.0	n/a	2	11	ISIslide	AvoidedLoss	True
124.12	0.25	Control	0.8462000000000001	0.0	Yes	2.98	0.02	n/a	GoodResponse	0	n/a	n/a	2	12	Cue	Neutral	True
124.371	3.9	Control	0.8462000000000001	0.0	Yes	2.98	0.001	n/a	GoodResponse	0	n/a	n/a	2	12	Fixation	Neutral	True
128.266	0.28	Control	0.8462000000000001	0.004	Yes	2.98	-0.004	2.0	GoodResponse	0	0.173	127.439	2	12	Target	Neutral	True
128.439	0.3	Control	0.8462000000000001	0.004	Yes	2.98	-0.004	2.0	GoodResponse	0	0.173	n/a	2	12	ButtonPress	Neutral	True
128.55	0.42	Control	0.8462000000000001	n/a	Yes	2.98	n/a	n/a	GoodResponse	0	n/a	n/a	2	12	Blank	Neutral	True
128.968	1.45	Control	0.8462000000000001	n/a	Yes	2.98	n/a	5.0	GoodResponse	0	0.03	127.998	2	12	Feedback	Neutral	True
130.422	2.98	Control	0.8462000000000001	n/a	Yes	2.98	n/a	n/a	GoodResponse	0	0.0	n/a	2	12	ISIslide	Neutral	True
133.414	0.25	Control	0.8571	0.001	Yes	2.786	0.014	n/a	GoodResponse	0	n/a	n/a	2	13	Cue	Neutral	True
133.665	4.0	Control	0.8571	0.0	Yes	2.786	0.001	n/a	GoodResponse	0	n/a	n/a	2	13	Fixation	Neutral	True
137.661	0.27	Control	0.8571	0.003	Yes	2.786	-0.003	2.0	GoodResponse	0	0.187	136.848	2	13	Target	Neutral	True
137.848	0.3	Control	0.8571	0.003	Yes	2.786	-0.003	2.0	GoodResponse	0	0.187	n/a	2	13	ButtonPress	Neutral	True
137.945	0.43	Control	0.8571	n/a	Yes	2.786	n/a	n/a	GoodResponse	0	n/a	n/a	2	13	Blank	Neutral	True
138.363	1.45	Control	0.8571	n/a	Yes	2.786	n/a	5.0	GoodResponse	0	0.001	137.364	2	13	Feedback	Neutral	True
139.817	2.786	Control	0.8571	n/a	Yes	2.786	n/a	n/a	GoodResponse	0	0.0	n/a	2	13	ISIslide	Neutral	True
142.625	0.25	Win2	0.8667	0.0	Yes	2.675	0.025	n/a	GoodResponse	1	n/a	n/a	3	14	Cue	Win	True
142.876	4.1	Win2	0.8667	0.0	Yes	2.675	0.001	n/a	GoodResponse	1	n/a	n/a	3	14	Fixation	Win	True
146.972	0.26	Win2	0.8667	0.003	Yes	2.675	-0.003	2.0	GoodResponse	1	0.189	146.161	3	14	Target	Win	True
147.161	0.3	Win2	0.8667	0.003	Yes	2.675	-0.003	2.0	GoodResponse	1	0.189	n/a	3	14	ButtonPress	Win	True
147.239	0.44	Win2	0.8667	n/a	Yes	2.675	n/a	n/a	GoodResponse	1	n/a	n/a	3	14	Blank	Win	True
147.674	1.45	Win2	0.8667	n/a	Yes	2.675	n/a	5.0	GoodResponse	1	0.007	146.681	3	14	Feedback	Win	True
149.128	2.675	Win2	0.8667	n/a	Yes	2.675	n/a	n/a	GoodResponse	1	0.0	n/a	3	14	ISIslide	Win	True
151.82	0.25	Control	0.875	0.0	Yes	2.98	0.02	n/a	GoodResponse	0	n/a	n/a	3	15	Cue	Neutral	False
152.07	4.0	Control	0.875	0.0	Yes	2.98	0.0	2.0	GoodResponse	0	3.723	154.793	3	15	Fixation	Neutral	False
155.793	0.3	Control	0.875	0.0	Yes	2.98	0.0	2.0	GoodResponse	0	3.723	n/a	3	15	ButtonPress	Neutral	False
156.066	0.25	Control	0.875	0.004	Yes	2.98	-0.004	2.0	GoodResponse	0	0.13	155.196	3	15	Target	Neutral	False
156.196	0.3	Control	0.875	0.004	Yes	2.98	-0.004	2.0	GoodResponse	0	0.13	n/a	3	15	ButtonPress	Neutral	False
156.316	0.45	Control	0.875	n/a	Yes	2.98	n/a	n/a	GoodResponse	0	n/a	n/a	3	15	Blank	Neutral	False
156.768	1.45	Control	0.875	n/a	Yes	2.98	n/a	5.0	GoodResponse	0	0.034	155.802	3	15	Feedback	Neutral	False
158.222	2.98	Control	0.875	n/a	Yes	2.98	n/a	n/a	GoodResponse	0	0.0	n/a	3	15	ISIslide	Neutral	False
161.231	0.25	Win2	0.8824	0.0	Yes	2.869	0.031	n/a	GoodResponse	1	n/a	n/a	4	16	Cue	Win	True
161.482	4.0	Win2	0.8824	0.0	Yes	2.869	0.001	n/a	GoodResponse	1	n/a	n/a	4	16	Fixation	Win	True
165.477	0.24	Win2	0.8824	0.004	Yes	2.869	-0.004	2.0	GoodResponse	1	0.201	164.678	4	16	Target	Win	True
165.678	0.3	Win2	0.8824	0.004	Yes	2.869	-0.004	2.0	GoodResponse	1	0.201	n/a	4	16	ButtonPress	Win	True
165.728	0.46	Win2	0.8824	n/a	Yes	2.869	n/a	n/a	GoodResponse	1	n/a	n/a	4	16	Blank	Win	True
166.179	1.45	Win2	0.8824	n/a	Yes	2.869	n/a	5.0	GoodResponse	1	0.038	165.217	4	16	Feedback	Win	True
167.633	2.869	Win2	0.8824	n/a	Yes	2.869	n/a	n/a	GoodResponse	1	0.0	n/a	4	16	ISIslide	Win	True
170.525	0.25	Lose2	0.8889	0.001	Yes	2.725	0.025	n/a	GoodResponse	0	n/a	n/a	4	17	Cue	AvoidedLoss	True
170.776	3.95	Lose2	0.8889	0.0	Yes	2.725	0.001	n/a	GoodResponse	0	n/a	n/a	4	17	Fixation	AvoidedLoss	True
174.721	0.23	Lose2	0.8889	0.004	Yes	2.725	-0.004	2.0	GoodResponse	0	0.19	173.911	4	17	Target	AvoidedLoss	True
174.911	0.3	Lose2	0.8889	0.004	Yes	2.725	-0.004	2.0	GoodResponse	0	0.19	n/a	4	17	ButtonPress	AvoidedLoss	True
174.955	0.47	Lose2	0.8889	n/a	Yes	2.725	n/a	n/a	GoodResponse	0	n/a	n/a	4	17	Blank	AvoidedLoss	True
175.423	1.45	Lose2	0.8889	n/a	Yes	2.725	n/a	5.0	GoodResponse	0	0.014	174.437	4	17	Feedback	AvoidedLoss	True
176.878	2.725	Lose2	0.8889	n/a	Yes	2.725	n/a	n/a	GoodResponse	0	0.0	n/a	4	17	ISIslide	AvoidedLoss	True
179.619	0.25	Lose2	0.8946999999999999	0.0	Yes	2.731	0.019	n/a	GoodResponse	0	n/a	n/a	4	18	Cue	AvoidedLoss	True
179.87	4.05	Lose2	0.8946999999999999	0.0	Yes	2.731	0.001	n/a	GoodResponse	0	n/a	n/a	4	18	Fixation	AvoidedLoss	True
183.915	0.22	Lose2	0.8946999999999999	0.004	Yes	2.731	-0.004	2.0	GoodResponse	0	0.172	183.087	4	18	Target	AvoidedLoss	True
184.087	0.3	Lose2	0.8946999999999999	0.004	Yes	2.731	-0.004	2.0	GoodResponse	0	0.172	n/a	4	18	ButtonPress	AvoidedLoss	True
184.15	0.48	Lose2	0.8946999999999999	n/a	Yes	2.731	n/a	n/a	GoodResponse	0	n/a	n/a	4	18	Blank	AvoidedLoss	True
184.618	1.45	Lose2	0.8946999999999999	n/a	Yes	2.731	n/a	5.0	GoodResponse	0	0.038	183.656	4	18	Feedback	AvoidedLoss	True
186.072	2.731	Lose2	0.8946999999999999	n/a	Yes	2.731	n/a	n/a	GoodResponse	0	0.0	n/a	4	18	ISIslide	AvoidedLoss	True
188.83	0.25	Control	0.9	0.0	Yes	2.92	0.03	n/a	GoodResponse	0	n/a	n/a	4	19	Cue	Neutral	True
189.081	3.95	Control	0.9	0.0	Yes	2.92	0.001	n/a	GoodResponse	0	n/a	n/a	4	19	Fixation	Neutral	True
193.026	0.21	Control	0.9	0.004	Yes	2.92	-0.004	2.0	GoodResponse	0	0.161	192.187	4	19	Target	Neutral	True
193.187	0.3	Control	0.9	0.004	Yes	2.92	-0.004	2.0	GoodResponse	0	0.161	n/a	4	19	ButtonPress	Neutral	True
193.243	0.49	Control	0.9	n/a	Yes	2.92	n/a	n/a	GoodResponse	0	n/a	n/a	4	19	Blank	Neutral	True
193.728	1.45	Control	0.9	n/a	Yes	2.92	n/a	5.0	GoodResponse	0	0.001	192.729	4	19	Feedback	Neutral	True
195.183	2.92	Control	0.9	n/a	Yes	2.92	n/a	n/a	GoodResponse	0	0.0	n/a	4	19	ISIslide	Neutral	True
198.125	0.25	Control	0.8571	0.0	No	2.625	0.025	n/a	LatePress	0	n/a	n/a	4	20	Cue	Neutral	False
198.375	4.05	Control	0.8571	0.0	No	2.625	0.0	2.0	LatePress	0	3.968	201.343	4	20	Fixation	Neutral	False
202.343	0.3	Control	0.8571	0.0	No	2.625	0.0	2.0	LatePress	0	3.968	n/a	4	20	ButtonPress	Neutral	False
202.421	0.2	Control	0.8571	0.004	No	2.625	-0.004	2.0	LatePress	0	0.203	201.624	4	20	Target	Neutral	False
202.621	0.5	Control	0.8571	n/a	No	2.625	n/a	n/a	LatePress	0	n/a	n/a	4	20	Blank	Neutral	False
202.624	0.3	Control	0.8571	0.004	No	2.625	-0.004	2.0	LatePress	0	0.203	n/a	4	20	ButtonPress	Neutral	False
203.123	1.45	Control	0.8571	n/a	No	2.625	n/a	5.0	LatePress	0	0.02	202.143	4	20	Feedback	Neutral	False
204.577	2.625	Control	0.8571	n/a	No	2.625	n/a	n/a	LatePress	0	0.0	n/a	4	20	ISIslide	Neutral	False
207.218	0.25	Control	0.8181999999999999	0.001	No	2.782	0.018	n/a	LatePress	0	n/a	n/a	4	21	Cue	Neutral	True
207.469	4.1	Control	0.8181999999999999	0.0	No	2.782	0.001	n/a	LatePress	0	n/a	n/a	4	21	Fixation	Neutral	True
211.565	0.19	Control	0.8181999999999999	0.003	No	2.782	-0.003	2.0	LatePress	0	0.19	210.755	4	21	Target	Neutral	True
211.755	0.3	Control	0.8181999999999999	0.003	No	2.782	-0.003	2.0	LatePress	0	0.19	n/a	4	21	ButtonPress	Neutral	True
211.765	0.51	Control	0.8181999999999999	n/a	No	2.782	n/a	n/a	LatePress	0	n/a	n/a	4	21	Blank	Neutral	True
212.267	1.45	Control	0.8181999999999999	n/a	No	2.782	n/a	5.0	LatePress	0	0.047	211.314	4	21	Feedback	Neutral	True
213.721	2.782	Control	0.8181999999999999	n/a	No	2.782	n/a	n/a	LatePress	0	0.0	n/a	4	21	ISIslide	Neutral	True
216.53	0.25	Control	0.7826000000000001	0.0	No	2.77	0.03	n/a	NoResponse	0	n/a	n/a	4	22	Cue	Neutral	True
216.78	4.0	Control	0.7826000000000001	0.001	No	2.77	0.0	n/a	NoResponse	0	n/a	n/a	4	22	Fixation	Neutral	True
220.776	0.18	Control	0.7826000000000001	0.004	No	2.77	-0.004	2.0	NoResponse	0	0.195	219.971	4	22	Target	Neutral	True
220.96	0.52	Control	0.7826000000000001	n/a	No	2.77	n/a	n/a	NoResponse	0	n/a	n/a	4	22	Blank	Neutral	True
220.971	0.3	Control	0.7826000000000001	0.004	No	2.77	-0.004	2.0	NoResponse	0	0.195	n/a	4	22	ButtonPress	Neutral	True
221.478	1.45	Control	0.7826000000000001	n/a	No	2.77	n/a	5.0	NoResponse	0	0.007	220.485	4	22	Feedback	Neutral	True
222.932	2.77	Control	0.7826000000000001	n/a	No	2.77	n/a	n/a	NoResponse	0	0.0	n/a	4	22	ISIslide	Neutral	True
225.724	0.25	Control	0.75	0.0	No	2.776	0.024	n/a	NoResponse	0	n/a	n/a	4	23	Cue	Neutral	True
225.975	3.9	Control	0.75	0.0	No	2.776	0.001	n/a	NoResponse	0	n/a	n/a	4	23	Fixation	Neutral	True
229.87	0.17	Control	0.75	0.004	No	2.776	-0.004	2.0	NoResponse	0	0.191	229.061	4	23	Target	Neutral	True
230.053	0.53	Control	0.75	n/a	No	2.776	n/a	n/a	NoResponse	0	n/a	n/a	4	23	Blank	Neutral	True
230.061	0.3	Control	0.75	0.004	No	2.776	-0.004	2.0	NoResponse	0	0.191	n/a	4	23	ButtonPress	Neutral	True
230.572	1.45	Control	0.75	n/a	No	2.776	n/a	5.0	NoResponse	0	0.035	229.607	4	23	Feedback	Neutral	True
232.026	2.776	Control	0.75	n/a	No	2.776	n/a	n/a	NoResponse	0	0.0	n/a	4	23	ISIslide	Neutral	True
234.818	0.25	Win2	0.72	0.0	No	3.132	0.018	n/a	NoResponse	0	n/a	n/a	4	24	Cue	MissedWin	True
235.068	3.95	Win2	0.72	0.001	No	3.132	0.0	n/a	NoResponse	0	n/a	n/a	4	24	Fixation	MissedWin	True
239.014	0.16	Win2	0.72	0.004	No	3.132	-0.004	2.0	NoResponse	0	0.174	238.188	4	24	Target	MissedWin	True
239.181	0.54	Win2	0.72	n/a	No	3.132	n/a	n/a	NoResponse	0	n/a	n/a	4	24	Blank	MissedWin	True
239.188	0.3	Win2	0.72	0.004	No	3.132	-0.004	2.0	NoResponse	0	0.174	n/a	4	24	ButtonPress	MissedWin	True
239.716	1.45	Win2	0.72	n/a	No	3.132	n/a	5.0	NoResponse	0	0.012	238.728	4	24	Feedback	MissedWin	True
241.17	3.132	Win2	0.72	n/a	No	3.132	n/a	n/a	NoResponse	0	0.0	n/a	4	24	ISIslide	MissedWin	True
244.329	0.25	Win2	0.6923	0.001	No	3.071	0.029	n/a	PrematurePress	0	n/a	n/a	4	25	Cue	MissedWin	True
244.58	4.0	Win2	0.6923	0.0	No	3.071	0.001	n/a	PrematurePress	0	n/a	n/a	4	25	Fixation	MissedWin	True
248.575	0.15	Win2	0.6923	0.004	No	3.071	-0.004	2.0	PrematurePress	0	0.079	247.654	4	25	Target	MissedWin	True
248.654	0.3	Win2	0.6923	0.004	No	3.071	-0.004	2.0	PrematurePress	0	0.079	n/a	4	25	ButtonPress	MissedWin	True
248.726	0.55	Win2	0.6923	n/a	No	3.071	n/a	n/a	PrematurePress	0	n/a	n/a	4	25	Blank	MissedWin	True
249.278	1.45	Win2	0.6923	n/a	No	3.071	n/a	5.0	PrematurePress	0	0.011	248.289	4	25	Feedback	MissedWin	True
250.732	3.071	Win2	0.6923	n/a	No	3.071	n/a	n/a	PrematurePress	0	0.0	n/a	4	25	ISIslide	MissedWin	True
253.825	0.25	Win2	0.6667000000000001	0.0	No	2.925	0.025	n/a	NoResponse	0	n/a	n/a	4	26	Cue	MissedWin	True
254.075	3.95	Win2	0.6667000000000001	0.0	No	2.925	0.0	n/a	NoResponse	0	n/a	n/a	4	26	Fixation	MissedWin	True
258.037	0.15	Win2	0.6667000000000001	0.0	No	2.925	0.012	2.0	NoResponse	0	0.384	257.421	4	26	Target	MissedWin	True
258.171	0.55	Win2	0.6667000000000001	n/a	No	2.925	n/a	n/a	NoResponse	0	n/a	n/a	4	26	Blank	MissedWin	True
258.421	0.3	Win2	0.6667000000000001	0.0	No	2.925	0.012	2.0	NoResponse	0	0.384	n/a	4	26	ButtonPress	MissedWin	True
258.722	1.45	Win2	0.6667000000000001	n/a	No	2.925	n/a	5.0	NoResponse	0	0.031	257.753	4	26	Feedback	MissedWin	True
260.177	2.925	Win2	0.6667000000000001	n/a	No	2.925	n/a	n/a	NoResponse	0	0.0	n/a	4	26	ISIslide	MissedWin	True
263.119	0.25	Lose2	0.6429	0.0	No	2.831	0.019	n/a	NoResponse	-1	n/a	n/a	3	27	Cue	Loss	True
263.37	4.05	Lose2	0.6429	0.0	No	2.831	0.001	n/a	NoResponse	-1	n/a	n/a	3	27	Fixation	Loss	True
267.415	0.15	Lose2	0.6429	0.004	No	2.831	-0.004	2.0	NoResponse	-1	0.181	266.596	3	27	Target	Loss	True
267.566	0.55	Lose2	0.6429	n/a	No	2.831	n/a	n/a	NoResponse	-1	n/a	n/a	3	27	Blank	Loss	True
267.596	0.3	Lose2	0.6429	0.004	No	2.831	-0.004	2.0	NoResponse	-1	0.181	n/a	3	27	ButtonPress	Loss	True
268.117	1.45	Lose2	0.6429	n/a	No	2.831	n/a	5.0	NoResponse	-1	0.001	267.118	3	27	Feedback	Loss	True
269.572	2.831	Lose2	0.6429	n/a	No	2.831	n/a	n/a	NoResponse	-1	0.0	n/a	3	27	ISIslide	Loss	True
272.43	0.25	Control	0.6207	0.0	No	2.82	0.03	n/a	NoResponse	0	n/a	n/a	3	28	Cue	Neutral	False
272.681	4.05	Control	0.6207	0.0	No	2.82	0.001	2.0	NoResponse	0	3.958	275.639	3	28	Fixation	Neutral	False
276.639	0.3	Control	0.6207	0.0	No	2.82	0.001	2.0	NoResponse	0	3.958	n/a	3	28	ButtonPress	Neutral	False
276.726	0.16	Control	0.6207	0.004	No	2.82	-0.004	2.0	NoResponse	0	0.175	275.901	3	28	Target	Neutral	False
276.893	0.54	Control	0.6207	n/a	No	2.82	n/a	n/a	NoResponse	0	n/a	n/a	3	28	Blank	Neutral	False
276.901	0.3	Control	0.6207	0.004	No	2.82	-0.004	2.0	NoResponse	0	0.175	n/a	3	28	ButtonPress	Neutral	False
277.428	1.45	Control	0.6207	n/a	No	2.82	n/a	5.0	NoResponse	0	0.008	276.436	3	28	Feedback	Neutral	False
278.883	2.82	Control	0.6207	n/a	No	2.82	n/a	n/a	NoResponse	0	0.0	n/a	3	28	ISIslide	Neutral	False
281.725	0.25	Lose2	0.6	0.0	No	2.825	0.025	n/a	NoResponse	-1	n/a	n/a	2	29	Cue	Loss	True
281.975	3.95	Lose2	0.6	0.0	No	2.825	0.0	n/a	NoResponse	-1	n/a	n/a	2	29	Fixation	Loss	True
285.937	0.17	Lose2	0.6	0.0	No	2.825	0.012	2.0	NoResponse	-1	0.184	285.121	2	29	Target	Loss	True
286.104	0.53	Lose2	0.6	n/a	No	2.825	n/a	n/a	NoResponse	-1	n/a	n/a	2	29	Blank	Loss	True
286.121	0.3	Lose2	0.6	0.0	No	2.825	0.012	2.0	NoResponse	-1	0.184	n/a	2	29	ButtonPress	Loss	True
286.623	1.45	Lose2	0.6	n/a	No	2.825	n/a	5.0	NoResponse	-1	0.031	285.654	2	29	Feedback	Loss	True
288.077	2.825	Lose2	0.6	n/a	No	2.825	n/a	n/a	NoResponse	-1	0.0	n/a	2	29	ISIslide	Loss	True
290.919	0.25	Win2	0.5806	0.0	No	2.781	0.019	n/a	NoResponse	0	n/a	n/a	2	30	Cue	MissedWin	True
291.17	3.9	Win2	0.5806	0.0	No	2.781	0.001	n/a	NoResponse	0	n/a	n/a	2	30	Fixation	MissedWin	True
295.064	0.18	Win2	0.5806	0.005	No	2.781	-0.005	2.0	NoResponse	0	0.221	294.285	2	30	Target	MissedWin	True
295.248	0.52	Win2	0.5806	n/a	No	2.781	n/a	n/a	NoResponse	0	n/a	n/a	2	30	Blank	MissedWin	True
295.285	0.3	Win2	0.5806	0.005	No	2.781	-0.005	2.0	NoResponse	0	0.221	n/a	2	30	ButtonPress	MissedWin	True
295.767	1.45	Win2	0.5806	n/a	No	2.781	n/a	5.0	NoResponse	0	0.009	294.776	2	30	Feedback	MissedWin	True
297.221	2.781	Win2	0.5806	n/a	No	2.781	n/a	n/a	NoResponse	0	0.0	n/a	2	30	ISIslide	MissedWin	True
300.029	0.25	Lose2	0.5625	0.0	No	2.821	0.029	n/a	NoResponse	-1	n/a	n/a	1	31	Cue	Loss	False
300.28	4.05	Lose2	0.5625	0.0	No	2.821	0.001	2.0	NoResponse	-1	3.997	303.277	1	31	Fixation	Loss	False
304.277	0.3	Lose2	0.5625	0.0	No	2.821	0.001	2.0	NoResponse	-1	3.997	n/a	1	31	ButtonPress	Loss	False
304.325	0.19	Lose2	0.5625	0.004	No	2.821	-0.004	2.0	NoResponse	-1	0.257	303.582	1	31	Target	Loss	False
304.526	0.51	Lose2	0.5625	n/a	No	2.821	n/a	n/a	NoResponse	-1	n/a	n/a	1	31	Blank	Loss	False
304.582	0.3	Lose2	0.5625	0.004	No	2.821	-0.004	2.0	NoResponse	-1	0.257	n/a	1	31	ButtonPress	Loss	False
305.028	1.45	Lose2	0.5625	n/a	No	2.821	n/a	5.0	NoResponse	-1	0.017	304.045	1	31	Feedback	Loss	False
306.482	2.821	Lose2	0.5625	n/a	No	2.821	n/a	n/a	NoResponse	-1	0.0	n/a	1	31	ISIslide	Loss	False
309.324	0.25	Lose2	0.5758	0.0	Yes	2.626	0.024	3.0	GoodResponse	0	0.124	308.448	1	32	Cue	AvoidedLoss	False
309.448	0.3	Lose2	0.5758	0.0	Yes	2.626	0.024	3.0	GoodResponse	0	0.124	n/a	1	32	ButtonPress	AvoidedLoss	False
309.575	4.15	Lose2	0.5758	0.0	Yes	2.626	0.001	n/a	GoodResponse	0	n/a	n/a	1	32	Fixation	AvoidedLoss	False
313.72	0.2	Lose2	0.5758	0.004	Yes	2.626	-0.004	2.0	GoodResponse	0	0.16	312.88	1	32	Target	AvoidedLoss	False
313.88	0.3	Lose2	0.5758	0.004	Yes	2.626	-0.004	2.0	GoodResponse	0	0.16	n/a	1	32	ButtonPress	AvoidedLoss	False
313.921	0.5	Lose2	0.5758	n/a	Yes	2.626	n/a	n/a	GoodResponse	0	n/a	n/a	1	32	Blank	AvoidedLoss	False
314.422	1.45	Lose2	0.5758	n/a	Yes	2.626	n/a	5.0	GoodResponse	0	0.037	313.459	1	32	Feedback	AvoidedLoss	False
315.877	2.626	Lose2	0.5758	n/a	Yes	2.626	n/a	n/a	GoodResponse	0	0.0	n/a	1	32	ISIslide	AvoidedLoss	False
318.518	0.25	Win2	0.5882000000000001	0.0	Yes	2.682	0.018	n/a	GoodResponse	1	n/a	n/a	2	33	Cue	Win	True
318.769	4.0	Win2	0.5882000000000001	0.0	Yes	2.682	0.001	n/a	GoodResponse	1	n/a	n/a	2	33	Fixation	Win	True
322.764	0.21	Win2	0.5882000000000001	0.004	Yes	2.682	-0.004	2.0	GoodResponse	1	0.183	321.947	2	33	Target	Win	True
322.947	0.3	Win2	0.5882000000000001	0.004	Yes	2.682	-0.004	2.0	GoodResponse	1	0.183	n/a	2	33	ButtonPress	Win	True
322.981	0.49	Win2	0.5882000000000001	n/a	Yes	2.682	n/a	n/a	GoodResponse	1	n/a	n/a	2	33	Blank	Win	True
323.466	1.45	Win2	0.5882000000000001	n/a	Yes	2.682	n/a	5.0	GoodResponse	1	0.018	322.484	2	33	Feedback	Win	True
324.92	2.682	Win2	0.5882000000000001	n/a	Yes	2.682	n/a	n/a	GoodResponse	1	0.0	n/a	2	33	ISIslide	Win	True
327.629	0.25	Lose2	0.6	0.0	Yes	2.621	0.029	n/a	GoodResponse	0	n/a	n/a	2	34	Cue	AvoidedLoss	True
327.879	4.05	Lose2	0.6	0.0	Yes	2.621	0.0	n/a	GoodResponse	0	n/a	n/a	2	34	Fixation	AvoidedLoss	True
331.925	0.22	Lose2	0.6	0.004	Yes	2.621	-0.004	2.0	GoodResponse	0	0.114	331.039	2	34	Target	AvoidedLoss	True
332.039	0.3	Lose2	0.6	0.004	Yes	2.621	-0.004	2.0	GoodResponse	0	0.114	n/a	2	34	ButtonPress	AvoidedLoss	True
332.159	0.48	Lose2	0.6	n/a	Yes	2.621	n/a	n/a	GoodResponse	0	n/a	n/a	2	34	Blank	AvoidedLoss	True
332.627	1.45	Lose2	0.6	n/a	Yes	2.621	n/a	5.0	GoodResponse	0	0.027	331.654	2	34	Feedback	AvoidedLoss	True
334.081	2.621	Lose2	0.6	n/a	Yes	2.621	n/a	n/a	GoodResponse	0	0.0	n/a	2	34	ISIslide	AvoidedLoss	True
336.722	0.25	Lose2	0.6111	0.0	Yes	2.678	0.022	n/a	GoodResponse	0	n/a	n/a	2	35	Cue	AvoidedLoss	True
336.973	4.0	Lose2	0.6111	0.0	Yes	2.678	0.001	n/a	GoodResponse	0	n/a	n/a	2	35	Fixation	AvoidedLoss	True
340.968	0.23	Lose2	0.6111	0.004	Yes	2.678	-0.004	2.0	GoodResponse	0	0.195	340.163	2	35	Target	AvoidedLoss	True
341.163	0.3	Lose2	0.6111	0.004	Yes	2.678	-0.004	2.0	GoodResponse	0	0.195	n/a	2	35	ButtonPress	AvoidedLoss	True
341.202	0.47	Lose2	0.6111	n/a	Yes	2.678	n/a	n/a	GoodResponse	0	n/a	n/a	2	35	Blank	AvoidedLoss	True
341.67	1.45	Lose2	0.6111	n/a	Yes	2.678	n/a	5.0	GoodResponse	0	0.008	340.678	2	35	Feedback	AvoidedLoss	True
343.125	2.678	Lose2	0.6111	n/a	Yes	2.678	n/a	n/a	GoodResponse	0	0.0	n/a	2	35	ISIslide	AvoidedLoss	True
345.816	0.25	Control	0.6215999999999999	0.0	Yes	2.684	0.016	n/a	GoodResponse	0	n/a	n/a	2	36	Cue	Neutral	True
346.067	4.0	Control	0.6215999999999999	0.0	Yes	2.684	0.001	n/a	GoodResponse	0	n/a	n/a	2	36	Fixation	Neutral	True
350.062	0.24	Control	0.6215999999999999	0.004	Yes	2.684	-0.004	2.0	GoodResponse	0	0.188	349.25	2	36	Target	Neutral	True
350.25	0.3	Control	0.6215999999999999	0.004	Yes	2.684	-0.004	2.0	GoodResponse	0	0.188	n/a	2	36	ButtonPress	Neutral	True
350.313	0.46	Control	0.6215999999999999	n/a	Yes	2.684	n/a	n/a	GoodResponse	0	n/a	n/a	2	36	Blank	Neutral	True
350.764	1.45	Control	0.6215999999999999	n/a	Yes	2.684	n/a	5.0	GoodResponse	0	0.036	349.8	2	36	Feedback	Neutral	True
352.219	2.684	Control	0.6215999999999999	n/a	Yes	2.684	n/a	n/a	GoodResponse	0	0.0	n/a	2	36	ISIslide	Neutral	True
354.927	0.25	Win2	0.6315999999999999	0.0	Yes	2.873	0.027	n/a	GoodResponse	1	n/a	n/a	3	37	Cue	Win	True
355.178	4.0	Win2	0.6315999999999999	0.0	Yes	2.873	0.001	n/a	GoodResponse	1	n/a	n/a	3	37	Fixation	Win	True
359.173	0.25	Win2	0.6315999999999999	0.004	Yes	2.873	-0.004	2.0	GoodResponse	1	0.167	358.34	3	37	Target	Win	True
359.34	0.3	Win2	0.6315999999999999	0.004	Yes	2.873	-0.004	2.0	GoodResponse	1	0.167	n/a	3	37	ButtonPress	Win	True
359.424	0.45	Win2	0.6315999999999999	n/a	Yes	2.873	n/a	n/a	GoodResponse	1	n/a	n/a	3	37	Blank	Win	True
359.875	1.45	Win2	0.6315999999999999	n/a	Yes	2.873	n/a	5.0	GoodResponse	1	0.047	358.922	3	37	Feedback	Win	True
361.329	2.873	Win2	0.6315999999999999	n/a	Yes	2.873	n/a	n/a	GoodResponse	1	0.0	n/a	3	37	ISIslide	Win	True
364.221	0.25	Lose2	0.6409999999999999	0.0	Yes	2.829	0.021	n/a	GoodResponse	0	n/a	n/a	3	38	Cue	AvoidedLoss	True
364.472	3.95	Lose2	0.6409999999999999	0.0	Yes	2.829	0.001	n/a	GoodResponse	0	n/a	n/a	3	38	Fixation	AvoidedLoss	True
368.417	0.26	Lose2	0.6409999999999999	0.004	Yes	2.829	-0.004	2.0	GoodResponse	0	0.196	367.613	3	38	Target	AvoidedLoss	True
368.613	0.3	Lose2	0.6409999999999999	0.004	Yes	2.829	-0.004	2.0	GoodResponse	0	0.196	n/a	3	38	ButtonPress	AvoidedLoss	True
368.685	0.44	Lose2	0.6409999999999999	n/a	Yes	2.829	n/a	n/a	GoodResponse	0	n/a	n/a	3	38	Blank	AvoidedLoss	True
369.119	1.45	Lose2	0.6409999999999999	n/a	Yes	2.829	n/a	5.0	GoodResponse	0	0.022	368.141	3	38	Feedback	AvoidedLoss	True
370.574	2.829	Lose2	0.6409999999999999	n/a	Yes	2.829	n/a	n/a	GoodResponse	0	0.0	n/a	3	38	ISIslide	AvoidedLoss	True
373.415	0.25	Win2	0.625	0.001	No	2.985	0.015	n/a	NoResponse	0	n/a	n/a	3	39	Cue	MissedWin	True
373.666	4.1	Win2	0.625	0.0	No	2.985	0.001	2.0	NoResponse	0	3.414	376.08	3	39	Fixation	MissedWin	True
377.08	0.3	Win2	0.625	0.0	No	2.985	0.001	2.0	NoResponse	0	3.414	n/a	3	39	ButtonPress	MissedWin	True
377.762	0.27	Win2	0.625	0.003	No	2.985	-0.003	n/a	NoResponse	0	n/a	n/a	3	39	Target	MissedWin	True
378.046	0.43	Win2	0.625	n/a	No	2.985	n/a	n/a	NoResponse	0	n/a	n/a	3	39	Blank	MissedWin	True
378.464	1.45	Win2	0.625	n/a	No	2.985	n/a	5.0	NoResponse	0	0.043	377.507	3	39	Feedback	MissedWin	True
379.918	2.985	Win2	0.625	n/a	No	2.985	n/a	n/a	NoResponse	0	0.0	n/a	3	39	ISIslide	MissedWin	True
382.927	0.25	Win2	0.6341	0.0	Yes	2.723	0.027	n/a	GoodResponse	1	n/a	n/a	4	40	Cue	Win	True
383.178	3.95	Win2	0.6341	0.0	Yes	2.723	0.001	n/a	GoodResponse	1	n/a	n/a	4	40	Fixation	Win	True
387.123	0.28	Win2	0.6341	0.004	Yes	2.723	-0.004	2.0	GoodResponse	1	0.183	386.306	4	40	Target	Win	True
387.306	0.3	Win2	0.6341	0.004	Yes	2.723	-0.004	2.0	GoodResponse	1	0.183	n/a	4	40	ButtonPress	Win	True
387.407	0.42	Win2	0.6341	n/a	Yes	2.723	n/a	n/a	GoodResponse	1	n/a	n/a	4	40	Blank	Win	True
387.825	1.45	Win2	0.6341	n/a	Yes	2.723	n/a	5.0	GoodResponse	1	0.048	386.873	4	40	Feedback	Win	True
389.28	2.723	Win2	0.6341	n/a	Yes	2.723	n/a	n/a	GoodResponse	1	0.0	n/a	4	40	ISIslide	Win	True
392.021	0.25	Win2	0.6429	0.0	Yes	2.779	0.021	n/a	GoodResponse	1	n/a	n/a	5	41	Cue	Win	True
392.272	3.9	Win2	0.6429	0.0	Yes	2.779	0.001	n/a	GoodResponse	1	n/a	n/a	5	41	Fixation	Win	True
396.167	0.29	Win2	0.6429	0.004	Yes	2.779	-0.004	2.0	GoodResponse	1	0.277	395.444	5	41	Target	Win	True
396.444	0.3	Win2	0.6429	0.004	Yes	2.779	-0.004	2.0	GoodResponse	1	0.277	n/a	5	41	ButtonPress	Win	True
396.468	0.41	Win2	0.6429	n/a	Yes	2.779	n/a	n/a	GoodResponse	1	n/a	n/a	5	41	Blank	Win	True
396.869	1.45	Win2	0.6429	n/a	Yes	2.779	n/a	5.0	GoodResponse	1	0.028	395.897	5	41	Feedback	Win	True
398.323	2.779	Win2	0.6429	n/a	Yes	2.779	n/a	n/a	GoodResponse	1	0.0	n/a	5	41	ISIslide	Win	True
401.115	0.25	Control	0.6512	0.0	Yes	2.935	0.015	n/a	GoodResponse	0	n/a	n/a	5	42	Cue	Neutral	True
401.366	3.85	Control	0.6512	0.0	Yes	2.935	0.001	n/a	GoodResponse	0	n/a	n/a	5	42	Fixation	Neutral	True
405.227	0.3	Control	0.6512	0.0	Yes	2.935	0.012	2.0	GoodResponse	0	0.261	404.488	5	42	Target	Neutral	True
405.488	0.3	Control	0.6512	0.0	Yes	2.935	0.012	2.0	GoodResponse	0	0.261	n/a	5	42	ButtonPress	Neutral	True
405.511	0.4	Control	0.6512	n/a	Yes	2.935	n/a	n/a	GoodResponse	0	n/a	n/a	5	42	Blank	Neutral	True
405.913	1.45	Control	0.6512	n/a	Yes	2.935	n/a	5.0	GoodResponse	0	0.009	404.922	5	42	Feedback	Neutral	True
407.367	2.935	Control	0.6512	n/a	Yes	2.935	n/a	n/a	GoodResponse	0	0.0	n/a	5	42	ISIslide	Neutral	True
410.326	0.25	Win2	0.6364	0.0	No	3.174	0.026	n/a	NoResponse	0	n/a	n/a	5	43	Cue	MissedWin	False
410.577	4.0	Win2	0.6364	0.0	No	3.174	0.001	2.0	NoResponse	0	3.663	413.24	5	43	Fixation	MissedWin	False
414.24	0.3	Win2	0.6364	0.0	No	3.174	0.001	2.0	NoResponse	0	3.663	n/a	5	43	ButtonPress	MissedWin	False
414.572	0.31	Win2	0.6364	0.004	No	3.174	-0.004	2.0	NoResponse	0	0.366	413.938	5	43	Target	MissedWin	False
414.889	0.39	Win2	0.6364	n/a	No	3.174	n/a	n/a	NoResponse	0	n/a	n/a	5	43	Blank	MissedWin	False
414.938	0.3	Win2	0.6364	0.004	No	3.174	-0.004	2.0	NoResponse	0	0.366	n/a	5	43	ButtonPress	MissedWin	False
415.274	1.45	Win2	0.6364	n/a	No	3.174	n/a	5.0	NoResponse	0	0.013	414.287	5	43	Feedback	MissedWin	False
416.728	3.174	Win2	0.6364	n/a	No	3.174	n/a	n/a	NoResponse	0	0.0	n/a	5	43	ISIslide	MissedWin	False
419.921	0.25	Win2	0.6444	0.0	Yes	2.979	0.021	n/a	GoodResponse	1	n/a	n/a	6	44	Cue	Win	True
420.172	4.0	Win2	0.6444	0.0	Yes	2.979	0.001	n/a	GoodResponse	1	n/a	n/a	6	44	Fixation	Win	True
424.167	0.32	Win2	0.6444	0.004	Yes	2.979	-0.004	2.0	GoodResponse	1	0.202	423.369	6	44	Target	Win	True
424.369	0.3	Win2	0.6444	0.004	Yes	2.979	-0.004	2.0	GoodResponse	1	0.202	n/a	6	44	ButtonPress	Win	True
424.501	0.38	Win2	0.6444	n/a	Yes	2.979	n/a	n/a	GoodResponse	1	n/a	n/a	6	44	Blank	Win	True
424.869	1.45	Win2	0.6444	n/a	Yes	2.979	n/a	5.0	GoodResponse	1	0.028	423.897	6	44	Feedback	Win	True
426.324	2.979	Win2	0.6444	n/a	Yes	2.979	n/a	n/a	GoodResponse	1	0.0	n/a	6	44	ISIslide	Win	True
429.316	0.25	Control	0.6522	0.0	Yes	2.884	0.016	n/a	GoodResponse	0	n/a	n/a	6	45	Cue	Neutral	True
429.567	4.1	Control	0.6522	0.0	Yes	2.884	0.001	n/a	GoodResponse	0	n/a	n/a	6	45	Fixation	Neutral	True
433.662	0.33	Control	0.6522	0.004	Yes	2.884	-0.004	2.0	GoodResponse	0	0.237	432.899	6	45	Target	Neutral	True
433.899	0.3	Control	0.6522	0.004	Yes	2.884	-0.004	2.0	GoodResponse	0	0.237	n/a	6	45	ButtonPress	Neutral	True
433.997	0.37	Control	0.6522	n/a	Yes	2.884	n/a	n/a	GoodResponse	0	n/a	n/a	6	45	Blank	Neutral	True
434.364	1.45	Control	0.6522	n/a	Yes	2.884	n/a	5.0	GoodResponse	0	0.045	433.409	6	45	Feedback	Neutral	True
435.819	2.884	Control	0.6522	n/a	Yes	2.884	n/a	n/a	GoodResponse	0	0.0	n/a	6	45	ISIslide	Neutral	True
438.727	0.25	Lose2	0.6596	0.0	Yes	3.373	0.027	n/a	GoodResponse	0	n/a	n/a	6	46	Cue	AvoidedLoss	True
438.978	4.0	Lose2	0.6596	0.0	Yes	3.373	0.001	n/a	GoodResponse	0	n/a	n/a	6	46	Fixation	AvoidedLoss	True
442.973	0.34	Lose2	0.6596	0.004	Yes	3.373	-0.004	2.0	GoodResponse	0	0.315	442.288	6	46	Target	AvoidedLoss	True
443.288	0.3	Lose2	0.6596	0.004	Yes	3.373	-0.004	2.0	GoodResponse	0	0.315	n/a	6	46	ButtonPress	AvoidedLoss	True
443.324	0.36	Lose2	0.6596	n/a	Yes	3.373	n/a	n/a	GoodResponse	0	n/a	n/a	6	46	Blank	AvoidedLoss	True
443.675	1.45	Lose2	0.6596	n/a	Yes	3.373	n/a	5.0	GoodResponse	0	0.002	442.677	6	46	Feedback	AvoidedLoss	True
445.13	3.373	Lose2	0.6596	n/a	Yes	3.373	n/a	n/a	GoodResponse	0	0.0	n/a	6	46	ISIslide	AvoidedLoss	True
448.523	0.25	Lose2	0.6667000000000001	0.0	Yes	2.677	0.023	n/a	GoodResponse	0	n/a	n/a	6	47	Cue	AvoidedLoss	True
448.774	4.0	Lose2	0.6667000000000001	0.0	Yes	2.677	0.001	n/a	GoodResponse	0	n/a	n/a	6	47	Fixation	AvoidedLoss	True
452.769	0.34	Lose2	0.6667000000000001	0.004	Yes	2.677	-0.004	2.0	GoodResponse	0	0.212	451.981	6	47	Target	AvoidedLoss	True
452.981	0.3	Lose2	0.6667000000000001	0.004	Yes	2.677	-0.004	2.0	GoodResponse	0	0.212	n/a	6	47	ButtonPress	AvoidedLoss	True
453.12	0.36	Lose2	0.6667000000000001	n/a	Yes	2.677	n/a	n/a	GoodResponse	0	n/a	n/a	6	47	Blank	AvoidedLoss	True
453.471	1.45	Lose2	0.6667000000000001	n/a	Yes	2.677	n/a	5.0	GoodResponse	0	0.01	452.481	6	47	Feedback	AvoidedLoss	True
454.926	2.677	Lose2	0.6667000000000001	n/a	Yes	2.677	n/a	n/a	GoodResponse	0	0.0	n/a	6	47	ISIslide	AvoidedLoss	True
457.617	0.25	Lose2	0.6735	0.0	Yes	3.033	0.017	n/a	GoodResponse	0	n/a	n/a	6	48	Cue	AvoidedLoss	True
457.868	3.95	Lose2	0.6735	0.0	Yes	3.033	0.001	n/a	GoodResponse	0	n/a	n/a	6	48	Fixation	AvoidedLoss	True
461.813	0.33	Lose2	0.6735	0.004	Yes	3.033	-0.004	2.0	GoodResponse	0	0.233	461.046	6	48	Target	AvoidedLoss	True
462.046	0.3	Lose2	0.6735	0.004	Yes	3.033	-0.004	2.0	GoodResponse	0	0.233	n/a	6	48	ButtonPress	AvoidedLoss	True
462.147	0.37	Lose2	0.6735	n/a	Yes	3.033	n/a	n/a	GoodResponse	0	n/a	n/a	6	48	Blank	AvoidedLoss	True
462.515	1.45	Lose2	0.6735	n/a	Yes	3.033	n/a	5.0	GoodResponse	0	0.04	461.555	6	48	Feedback	AvoidedLoss	True
463.969	3.033	Lose2	0.6735	n/a	Yes	3.033	n/a	n/a	GoodResponse	0	0.0	n/a	6	48	ISIslide	AvoidedLoss	True
467.029	0.25	Control	0.68	0.0	Yes	2.871	0.029	n/a	GoodResponse	0	n/a	n/a	6	49	Cue	Neutral	True
467.279	4.0	Control	0.68	0.0	Yes	2.871	0.0	n/a	GoodResponse	0	n/a	n/a	6	49	Fixation	Neutral	True
471.275	0.32	Control	0.68	0.004	Yes	2.871	-0.004	2.0	GoodResponse	0	0.21	470.485	6	49	Target	Neutral	True
471.485	0.3	Control	0.68	0.004	Yes	2.871	-0.004	2.0	GoodResponse	0	0.21	n/a	6	49	ButtonPress	Neutral	True
471.609	0.38	Control	0.68	n/a	Yes	2.871	n/a	n/a	GoodResponse	0	n/a	n/a	6	49	Blank	Neutral	True
471.977	1.45	Control	0.68	n/a	Yes	2.871	n/a	5.0	GoodResponse	0	0.041	471.018	6	49	Feedback	Neutral	True
473.431	2.871	Control	0.68	n/a	Yes	2.871	n/a	n/a	GoodResponse	0	0.0	n/a	6	49	ISIslide	Neutral	True
476.323	0.25	Control	0.6862999999999999	0.0	Yes	2.777	0.023	n/a	GoodResponse	0	n/a	n/a	6	50	Cue	Neutral	False
476.574	4.0	Control	0.6862999999999999	0.0	Yes	2.777	0.001	2.0	GoodResponse	0	3.917	479.491	6	50	Fixation	Neutral	False
480.491	0.3	Control	0.6862999999999999	0.0	Yes	2.777	0.001	2.0	GoodResponse	0	3.917	n/a	6	50	ButtonPress	Neutral	False
480.569	0.31	Control	0.6862999999999999	0.004	Yes	2.777	-0.004	2.0	GoodResponse	0	0.298	479.867	6	50	Target	Neutral	False
480.867	0.3	Control	0.6862999999999999	0.004	Yes	2.777	-0.004	2.0	GoodResponse	0	0.298	n/a	6	50	ButtonPress	Neutral	False
480.887	0.39	Control	0.6862999999999999	n/a	Yes	2.777	n/a	n/a	GoodResponse	0	n/a	n/a	6	50	Blank	Neutral	False
481.271	1.45	Control	0.6862999999999999	n/a	Yes	2.777	n/a	5.0	GoodResponse	0	0.015	480.286	6	50	Feedback	Neutral	False
482.726	2.777	Control	0.6862999999999999	n/a	Yes	2.777	n/a	n/a	GoodResponse	0	0.0	n/a	6	50	ISIslide	Neutral	False
485.517	0.25	Control	0.6923	0.0	Yes	2.733	0.017	n/a	GoodResponse	0	n/a	n/a	6	51	Cue	Neutral	True
485.768	3.95	Control	0.6923	0.0	Yes	2.733	0.001	n/a	GoodResponse	0	n/a	n/a	6	51	Fixation	Neutral	True
489.713	0.3	Control	0.6923	0.004	Yes	2.733	-0.004	2.0	GoodResponse	0	0.205	488.918	6	51	Target	Neutral	True
489.918	0.3	Control	0.6923	0.004	Yes	2.733	-0.004	2.0	GoodResponse	0	0.205	n/a	6	51	ButtonPress	Neutral	True
490.014	0.4	Control	0.6923	n/a	Yes	2.733	n/a	n/a	GoodResponse	0	n/a	n/a	6	51	Blank	Neutral	True
490.415	1.45	Control	0.6923	n/a	Yes	2.733	n/a	5.0	GoodResponse	0	0.042	489.457	6	51	Feedback	Neutral	True
491.87	2.733	Control	0.6923	n/a	Yes	2.733	n/a	n/a	GoodResponse	0	0.0	n/a	6	51	ISIslide	Neutral	True
494.628	0.25	Control	0.6981	0.0	Yes	2.622	0.028	n/a	GoodResponse	0	n/a	n/a	6	52	Cue	Neutral	True
494.879	4.05	Control	0.6981	0.0	Yes	2.622	0.001	n/a	GoodResponse	0	n/a	n/a	6	52	Fixation	Neutral	True
498.924	0.29	Control	0.6981	0.004	Yes	2.622	-0.004	2.0	GoodResponse	0	0.209	498.133	6	52	Target	Neutral	True
499.133	0.3	Control	0.6981	0.004	Yes	2.622	-0.004	2.0	GoodResponse	0	0.209	n/a	6	52	ButtonPress	Neutral	True
499.225	0.41	Control	0.6981	n/a	Yes	2.622	n/a	n/a	GoodResponse	0	n/a	n/a	6	52	Blank	Neutral	True
499.626	1.45	Control	0.6981	n/a	Yes	2.622	n/a	5.0	GoodResponse	0	0.001	498.627	6	52	Feedback	Neutral	True
501.08	2.622	Control	0.6981	n/a	Yes	2.622	n/a	n/a	GoodResponse	0	0.0	n/a	6	52	ISIslide	Neutral	True
503.722	0.25	Win2	0.7037	0.0	Yes	2.928	0.022	n/a	GoodResponse	1	n/a	n/a	7	53	Cue	Win	True
503.972	4.05	Win2	0.7037	0.001	Yes	2.928	0.0	n/a	GoodResponse	1	n/a	n/a	7	53	Fixation	Win	True
508.018	0.28	Win2	0.7037	0.004	Yes	2.928	-0.004	2.0	GoodResponse	1	0.221	507.239	7	53	Target	Win	True
508.239	0.3	Win2	0.7037	0.004	Yes	2.928	-0.004	2.0	GoodResponse	1	0.221	n/a	7	53	ButtonPress	Win	True
508.302	0.42	Win2	0.7037	n/a	Yes	2.928	n/a	n/a	GoodResponse	1	n/a	n/a	7	53	Blank	Win	True
508.72	1.45	Win2	0.7037	n/a	Yes	2.928	n/a	5.0	GoodResponse	1	0.029	507.749	7	53	Feedback	Win	True
510.174	2.928	Win2	0.7037	n/a	Yes	2.928	n/a	n/a	GoodResponse	1	0.0	n/a	7	53	ISIslide	Win	True
513.116	0.25	Win2	0.6909000000000001	0.001	No	2.734	0.016	n/a	LatePress	0	n/a	n/a	7	54	Cue	MissedWin	True
513.367	3.95	Win2	0.6909000000000001	0.0	No	2.734	0.001	n/a	LatePress	0	n/a	n/a	7	54	Fixation	MissedWin	True
517.312	0.27	Win2	0.6909000000000001	0.004	No	2.734	-0.004	2.0	LatePress	0	0.278	516.59	7	54	Target	MissedWin	True
517.59	0.3	Win2	0.6909000000000001	0.004	No	2.734	-0.004	2.0	LatePress	0	0.278	n/a	7	54	ButtonPress	MissedWin	True
517.596	0.43	Win2	0.6909000000000001	n/a	No	2.734	n/a	n/a	LatePress	0	n/a	n/a	7	54	Blank	MissedWin	True
518.014	1.45	Win2	0.6909000000000001	n/a	No	2.734	n/a	5.0	LatePress	0	0.005	517.019	7	54	Feedback	MissedWin	True
519.469	2.734	Win2	0.6909000000000001	n/a	No	2.734	n/a	n/a	LatePress	0	0.0	n/a	7	54	ISIslide	MissedWin	True
522.227	0.25	Control	0.6964	0.0	Yes	3.023	0.027	n/a	GoodResponse	0	n/a	n/a	7	55	Cue	Neutral	True
522.478	3.95	Control	0.6964	0.0	Yes	3.023	0.001	n/a	GoodResponse	0	n/a	n/a	7	55	Fixation	Neutral	True
526.423	0.26	Control	0.6964	0.004	Yes	3.023	-0.004	2.0	GoodResponse	0	0.195	525.618	7	55	Target	Neutral	True
526.618	0.3	Control	0.6964	0.004	Yes	3.023	-0.004	2.0	GoodResponse	0	0.195	n/a	7	55	ButtonPress	Neutral	True
526.69	0.44	Control	0.6964	n/a	Yes	3.023	n/a	n/a	GoodResponse	0	n/a	n/a	7	55	Blank	Neutral	True
527.125	1.45	Control	0.6964	n/a	Yes	3.023	n/a	5.0	GoodResponse	0	0.015	526.14	7	55	Feedback	Neutral	True
528.579	3.023	Control	0.6964	n/a	Yes	3.023	n/a	n/a	GoodResponse	0	0.0	n/a	7	55	ISIslide	Neutral	True
531.622	0.25	Control	0.7018000000000001	0.0	Yes	2.828	0.022	n/a	GoodResponse	0	n/a	n/a	7	56	Cue	Neutral	True
531.873	3.95	Control	0.7018000000000001	0.0	Yes	2.828	0.001	n/a	GoodResponse	0	n/a	n/a	7	56	Fixation	Neutral	True
535.818	0.25	Control	0.7018000000000001	0.004	Yes	2.828	-0.004	2.0	GoodResponse	0	0.195	535.013	7	56	Target	Neutral	True
536.013	0.3	Control	0.7018000000000001	0.004	Yes	2.828	-0.004	2.0	GoodResponse	0	0.195	n/a	7	56	ButtonPress	Neutral	True
536.068	0.45	Control	0.7018000000000001	n/a	Yes	2.828	n/a	n/a	GoodResponse	0	n/a	n/a	7	56	Blank	Neutral	True
536.52	1.45	Control	0.7018000000000001	n/a	Yes	2.828	n/a	5.0	GoodResponse	0	0.034	535.554	7	56	Feedback	Neutral	True
537.974	2.828	Control	0.7018000000000001	n/a	Yes	2.828	n/a	n/a	GoodResponse	0	0.0	n/a	7	56	ISIslide	Neutral	True
540.816	0.25	Control	0.6897	0.0	No	3.484	0.016	n/a	NoResponse	0	n/a	n/a	7	57	Cue	Neutral	True
541.067	4.0	Control	0.6897	0.0	No	3.484	0.001	n/a	NoResponse	0	n/a	n/a	7	57	Fixation	Neutral	True
545.062	0.24	Control	0.6897	0.004	No	3.484	-0.004	2.0	NoResponse	0	0.256	544.318	7	57	Target	Neutral	True
545.313	0.46	Control	0.6897	n/a	No	3.484	n/a	n/a	NoResponse	0	n/a	n/a	7	57	Blank	Neutral	True
545.318	0.3	Control	0.6897	0.004	No	3.484	-0.004	2.0	NoResponse	0	0.256	n/a	7	57	ButtonPress	Neutral	True
545.764	1.45	Control	0.6897	n/a	No	3.484	n/a	5.0	NoResponse	0	0.009	544.773	7	57	Feedback	Neutral	True
547.218	3.484	Control	0.6897	n/a	No	3.484	n/a	n/a	NoResponse	0	0.0	n/a	7	57	ISIslide	Neutral	True
550.729	0.25	Win2	0.6949	0.0	Yes	2.721	0.029	n/a	GoodResponse	1	n/a	n/a	8	58	Cue	Win	True
550.98	4.05	Win2	0.6949	0.0	Yes	2.721	0.001	n/a	GoodResponse	1	n/a	n/a	8	58	Fixation	Win	True
555.025	0.23	Win2	0.6949	0.004	Yes	2.721	-0.004	2.0	GoodResponse	1	0.213	554.238	8	58	Target	Win	True
555.238	0.3	Win2	0.6949	0.004	Yes	2.721	-0.004	2.0	GoodResponse	1	0.213	n/a	8	58	ButtonPress	Win	True
555.259	0.47	Win2	0.6949	n/a	Yes	2.721	n/a	n/a	GoodResponse	1	n/a	n/a	8	58	Blank	Win	True
555.727	1.45	Win2	0.6949	n/a	Yes	2.721	n/a	5.0	GoodResponse	1	0.046	554.773	8	58	Feedback	Win	True
557.182	2.721	Win2	0.6949	n/a	Yes	2.721	n/a	n/a	GoodResponse	1	0.0	n/a	8	58	ISIslide	Win	True
559.923	0.25	Lose2	0.7	0.0	Yes	2.677	0.023	n/a	GoodResponse	0	n/a	n/a	8	59	Cue	AvoidedLoss	True
560.174	4.0	Lose2	0.7	0.0	Yes	2.677	0.001	n/a	GoodResponse	0	n/a	n/a	8	59	Fixation	AvoidedLoss	True
564.169	0.22	Lose2	0.7	0.004	Yes	2.677	-0.004	2.0	GoodResponse	0	0.195	563.364	8	59	Target	AvoidedLoss	True
564.364	0.3	Lose2	0.7	0.004	Yes	2.677	-0.004	2.0	GoodResponse	0	0.195	n/a	8	59	ButtonPress	AvoidedLoss	True
564.403	0.48	Lose2	0.7	n/a	Yes	2.677	n/a	n/a	GoodResponse	0	n/a	n/a	8	59	Blank	AvoidedLoss	True
564.871	1.45	Lose2	0.7	n/a	Yes	2.677	n/a	5.0	GoodResponse	0	0.024	563.895	8	59	Feedback	AvoidedLoss	True
566.326	2.677	Lose2	0.7	n/a	Yes	2.677	n/a	n/a	GoodResponse	0	0.0	n/a	8	59	ISIslide	AvoidedLoss	True
569.017	0.25	Control	0.6884999999999999	0.0	No	2.683	0.017	n/a	NoResponse	0	n/a	n/a	8	60	Cue	Neutral	False
569.268	4.0	Control	0.6884999999999999	0.0	No	2.683	0.001	2.0	NoResponse	0	3.99	572.258	8	60	Fixation	Neutral	False
573.258	0.3	Control	0.6884999999999999	0.0	No	2.683	0.001	2.0	NoResponse	0	3.99	n/a	8	60	ButtonPress	Neutral	False
573.263	0.21	Control	0.6884999999999999	0.004	No	2.683	-0.004	2.0	NoResponse	0	0.33	572.593	8	60	Target	Neutral	False
573.48	0.49	Control	0.6884999999999999	n/a	No	2.683	n/a	n/a	NoResponse	0	n/a	n/a	8	60	Blank	Neutral	False
573.593	0.3	Control	0.6884999999999999	0.004	No	2.683	-0.004	2.0	NoResponse	0	0.33	n/a	8	60	ButtonPress	Neutral	False
573.965	1.45	Control	0.6884999999999999	n/a	No	2.683	n/a	5.0	NoResponse	0	0.005	572.97	8	60	Feedback	Neutral	False
575.419	2.683	Control	0.6884999999999999	n/a	No	2.683	n/a	n/a	NoResponse	0	0.0	n/a	8	60	ISIslide	Neutral	False
578.127	0.25	Lose2	0.6934999999999999	0.001	Yes	2.973	0.027	n/a	GoodResponse	0	n/a	n/a	8	61	Cue	AvoidedLoss	True
578.378	4.0	Lose2	0.6934999999999999	0.0	Yes	2.973	0.001	n/a	GoodResponse	0	n/a	n/a	8	61	Fixation	AvoidedLoss	True
582.374	0.2	Lose2	0.6934999999999999	0.003	Yes	2.973	-0.003	2.0	GoodResponse	0	0.198	581.572	8	61	Target	AvoidedLoss	True
582.572	0.3	Lose2	0.6934999999999999	0.003	Yes	2.973	-0.003	2.0	GoodResponse	0	0.198	n/a	8	61	ButtonPress	AvoidedLoss	True
582.574	0.5	Lose2	0.6934999999999999	n/a	Yes	2.973	n/a	n/a	GoodResponse	0	n/a	n/a	8	61	Blank	AvoidedLoss	True
583.076	1.45	Lose2	0.6934999999999999	n/a	Yes	2.973	n/a	5.0	GoodResponse	0	0.013	582.089	8	61	Feedback	AvoidedLoss	True
584.53	2.973	Lose2	0.6934999999999999	n/a	Yes	2.973	n/a	n/a	GoodResponse	0	0.0	n/a	8	61	ISIslide	AvoidedLoss	True
587.522	0.25	Lose2	0.6825	0.0	No	2.878	0.022	n/a	NoResponse	-1	n/a	n/a	7	62	Cue	Loss	True
587.773	3.9	Lose2	0.6825	0.0	No	2.878	0.001	n/a	NoResponse	-1	n/a	n/a	7	62	Fixation	Loss	True
591.668	0.19	Lose2	0.6825	0.004	No	2.878	-0.004	2.0	NoResponse	-1	0.202	590.87	7	62	Target	Loss	True
591.869	0.51	Lose2	0.6825	n/a	No	2.878	n/a	n/a	NoResponse	-1	n/a	n/a	7	62	Blank	Loss	True
591.87	0.3	Lose2	0.6825	0.004	No	2.878	-0.004	2.0	NoResponse	-1	0.202	n/a	7	62	ButtonPress	Loss	True
592.37	1.45	Lose2	0.6825	n/a	No	2.878	n/a	5.0	NoResponse	-1	0.037	591.407	7	62	Feedback	Loss	True
593.824	2.878	Lose2	0.6825	n/a	No	2.878	n/a	n/a	NoResponse	-1	0.0	n/a	7	62	ISIslide	Loss	True
596.716	0.25	Lose2	0.6875	0.0	Yes	2.634	0.016	n/a	GoodResponse	0	n/a	n/a	7	63	Cue	AvoidedLoss	True
596.967	4.05	Lose2	0.6875	0.0	Yes	2.634	0.001	n/a	GoodResponse	0	n/a	n/a	7	63	Fixation	AvoidedLoss	True
601.013	0.18	Lose2	0.6875	0.003	Yes	2.634	-0.003	2.0	GoodResponse	0	0.175	600.188	7	63	Target	AvoidedLoss	True
601.188	0.3	Lose2	0.6875	0.003	Yes	2.634	-0.003	2.0	GoodResponse	0	0.175	n/a	7	63	ButtonPress	AvoidedLoss	True
601.196	0.52	Lose2	0.6875	n/a	Yes	2.634	n/a	n/a	GoodResponse	0	n/a	n/a	7	63	Blank	AvoidedLoss	True
601.715	1.45	Lose2	0.6875	n/a	Yes	2.634	n/a	5.0	GoodResponse	0	0.009	600.724	7	63	Feedback	AvoidedLoss	True
603.169	2.634	Lose2	0.6875	n/a	Yes	2.634	n/a	n/a	GoodResponse	0	0.0	n/a	7	63	ISIslide	AvoidedLoss	True
605.827	0.25	Win2	0.6769	0.0	No	3.123	0.027	n/a	NoResponse	0	n/a	n/a	7	64	Cue	MissedWin	True
606.078	4.15	Win2	0.6769	0.0	No	3.123	0.001	n/a	NoResponse	0	n/a	n/a	7	64	Fixation	MissedWin	True
610.223	0.17	Win2	0.6769	0.004	No	3.123	-0.004	2.0	NoResponse	0	0.198	609.421	7	64	Target	MissedWin	True
610.407	0.53	Win2	0.6769	n/a	No	3.123	n/a	n/a	NoResponse	0	n/a	n/a	7	64	Blank	MissedWin	True
610.421	0.3	Win2	0.6769	0.004	No	3.123	-0.004	2.0	NoResponse	0	0.198	n/a	7	64	ButtonPress	MissedWin	True
610.926	1.45	Win2	0.6769	n/a	No	3.123	n/a	5.0	NoResponse	0	0.017	609.943	7	64	Feedback	MissedWin	True
612.38	3.123	Win2	0.6769	n/a	No	3.123	n/a	n/a	NoResponse	0	0.0	n/a	7	64	ISIslide	MissedWin	True
615.523	0.25	Control	0.6667000000000001	0.0	No	2.777	0.023	n/a	NoResponse	0	n/a	n/a	7	65	Cue	Neutral	True
615.773	4.0	Control	0.6667000000000001	0.0	No	2.777	0.0	n/a	NoResponse	0	n/a	n/a	7	65	Fixation	Neutral	True
619.769	0.16	Control	0.6667000000000001	0.004	No	2.777	-0.004	2.0	NoResponse	0	0.205	618.974	7	65	Target	Neutral	True
619.936	0.54	Control	0.6667000000000001	n/a	No	2.777	n/a	n/a	NoResponse	0	n/a	n/a	7	65	Blank	Neutral	True
619.974	0.3	Control	0.6667000000000001	0.004	No	2.777	-0.004	2.0	NoResponse	0	0.205	n/a	7	65	ButtonPress	Neutral	True
620.471	1.45	Control	0.6667000000000001	n/a	No	2.777	n/a	5.0	NoResponse	0	0.033	619.504	7	65	Feedback	Neutral	True
621.925	2.777	Control	0.6667000000000001	n/a	No	2.777	n/a	n/a	NoResponse	0	0.0	n/a	7	65	ISIslide	Neutral	True
624.717	0.25	Win2	0.6567000000000001	0.0	No	2.783	0.017	n/a	NoResponse	0	n/a	n/a	7	66	Cue	MissedWin	True
624.968	3.9	Win2	0.6567000000000001	0.0	No	2.783	0.001	n/a	NoResponse	0	n/a	n/a	7	66	Fixation	MissedWin	True
628.863	0.15	Win2	0.6567000000000001	0.004	No	2.783	-0.004	2.0	NoResponse	0	0.194	628.057	7	66	Target	MissedWin	True
629.013	0.55	Win2	0.6567000000000001	n/a	No	2.783	n/a	n/a	NoResponse	0	n/a	n/a	7	66	Blank	MissedWin	True
629.057	0.3	Win2	0.6567000000000001	0.004	No	2.783	-0.004	2.0	NoResponse	0	0.194	n/a	7	66	ButtonPress	MissedWin	True
629.565	1.45	Win2	0.6567000000000001	n/a	No	2.783	n/a	5.0	NoResponse	0	0.012	628.577	7	66	Feedback	MissedWin	True
631.019	2.783	Win2	0.6567000000000001	n/a	No	2.783	n/a	n/a	NoResponse	0	0.0	n/a	7	66	ISIslide	MissedWin	True
633.827	0.25	Control	0.6470999999999999	0.0	No	2.723	0.027	n/a	NoResponse	0	n/a	n/a	7	67	Cue	Neutral	True
634.078	3.95	Control	0.6470999999999999	0.0	No	2.723	0.001	n/a	NoResponse	0	n/a	n/a	7	67	Fixation	Neutral	True
638.023	0.15	Control	0.6470999999999999	0.004	No	2.723	-0.004	2.0	NoResponse	0	0.164	637.187	7	67	Target	Neutral	True
638.174	0.55	Control	0.6470999999999999	n/a	No	2.723	n/a	n/a	NoResponse	0	n/a	n/a	7	67	Blank	Neutral	True
638.187	0.3	Control	0.6470999999999999	0.004	No	2.723	-0.004	2.0	NoResponse	0	0.164	n/a	7	67	ButtonPress	Neutral	True
638.725	1.45	Control	0.6470999999999999	n/a	No	2.723	n/a	5.0	NoResponse	0	0.022	637.747	7	67	Feedback	Neutral	True
640.18	2.723	Control	0.6470999999999999	n/a	No	2.723	n/a	n/a	NoResponse	0	0.0	n/a	7	67	ISIslide	Neutral	True
642.921	0.25	Win2	0.6377	0.0	No	3.079	0.021	n/a	NoResponse	0	n/a	n/a	7	68	Cue	MissedWin	True
643.172	4.0	Win2	0.6377	0.0	No	3.079	0.001	n/a	NoResponse	0	n/a	n/a	7	68	Fixation	MissedWin	True
647.167	0.16	Win2	0.6377	0.004	No	3.079	-0.004	2.0	NoResponse	0	0.173	646.34	7	68	Target	MissedWin	True
647.334	0.54	Win2	0.6377	n/a	No	3.079	n/a	n/a	NoResponse	0	n/a	n/a	7	68	Blank	MissedWin	True
647.34	0.3	Win2	0.6377	0.004	No	3.079	-0.004	2.0	NoResponse	0	0.173	n/a	7	68	ButtonPress	MissedWin	True
647.869	1.45	Win2	0.6377	n/a	No	3.079	n/a	5.0	NoResponse	0	0.001	646.87	7	68	Feedback	MissedWin	True
649.324	3.079	Win2	0.6377	n/a	No	3.079	n/a	n/a	NoResponse	0	0.0	n/a	7	68	ISIslide	MissedWin	True
652.416	0.25	Win2	0.6286	0.0	No	3.234	0.016	n/a	LatePress	0	n/a	n/a	7	69	Cue	MissedWin	True
652.667	3.95	Win2	0.6286	0.0	No	3.234	0.001	n/a	LatePress	0	n/a	n/a	7	69	Fixation	MissedWin	True
656.612	0.17	Win2	0.6286	0.004	No	3.234	-0.004	2.0	LatePress	0	0.174	655.786	7	69	Target	MissedWin	True
656.786	0.3	Win2	0.6286	0.004	No	3.234	-0.004	2.0	LatePress	0	0.174	n/a	7	69	ButtonPress	MissedWin	True
656.796	0.53	Win2	0.6286	n/a	No	3.234	n/a	n/a	LatePress	0	n/a	n/a	7	69	Blank	MissedWin	True
657.314	1.45	Win2	0.6286	n/a	No	3.234	n/a	5.0	LatePress	0	0.019	656.333	7	69	Feedback	MissedWin	True
658.769	3.234	Win2	0.6286	n/a	No	3.234	n/a	n/a	LatePress	0	0.0	n/a	7	69	ISIslide	MissedWin	True
662.028	0.25	Lose2	0.6197	0.0	No	3.022	0.028	n/a	NoResponse	-1	n/a	n/a	6	70	Cue	Loss	True
662.279	4.05	Lose2	0.6197	0.0	No	3.022	0.001	n/a	NoResponse	-1	n/a	n/a	6	70	Fixation	Loss	True
666.325	0.18	Lose2	0.6197	0.003	No	3.022	-0.003	2.0	NoResponse	-1	0.189	665.514	6	70	Target	Loss	True
666.508	0.52	Lose2	0.6197	n/a	No	3.022	n/a	n/a	NoResponse	-1	n/a	n/a	6	70	Blank	Loss	True
666.514	0.3	Lose2	0.6197	0.003	No	3.022	-0.003	2.0	NoResponse	-1	0.189	n/a	6	70	ButtonPress	Loss	True
667.027	1.45	Lose2	0.6197	n/a	No	3.022	n/a	5.0	NoResponse	-1	0.013	666.04	6	70	Feedback	Loss	True
668.481	3.022	Lose2	0.6197	n/a	No	3.022	n/a	n/a	NoResponse	-1	0.0	n/a	6	70	ISIslide	Loss	True
671.523	0.25	Win2	0.625	0.0	Yes	2.727	0.023	n/a	GoodResponse	1	n/a	n/a	7	71	Cue	Win	True
671.774	4.05	Win2	0.625	0.0	Yes	2.727	0.001	n/a	GoodResponse	1	n/a	n/a	7	71	Fixation	Win	True
675.82	0.19	Win2	0.625	0.003	Yes	2.727	-0.003	2.0	GoodResponse	1	0.185	675.005	7	71	Target	Win	True
676.005	0.3	Win2	0.625	0.003	Yes	2.727	-0.003	2.0	GoodResponse	1	0.185	n/a	7	71	ButtonPress	Win	True
676.02	0.51	Win2	0.625	n/a	Yes	2.727	n/a	n/a	GoodResponse	1	n/a	n/a	7	71	Blank	Win	True
676.522	1.45	Win2	0.625	n/a	Yes	2.727	n/a	5.0	GoodResponse	1	0.03	675.552	7	71	Feedback	Win	True
677.976	2.727	Win2	0.625	n/a	Yes	2.727	n/a	n/a	GoodResponse	1	0.0	n/a	7	71	ISIslide	Win	True
680.718	0.25	Win2	0.6301	0.0	Yes	2.782	0.018	n/a	GoodResponse	1	n/a	n/a	8	72	Cue	Win	True
680.968	4.1	Win2	0.6301	0.0	Yes	2.782	0.0	n/a	GoodResponse	1	n/a	n/a	8	72	Fixation	Win	True
685.064	0.2	Win2	0.6301	0.004	Yes	2.782	-0.004	2.0	GoodResponse	1	0.158	684.222	8	72	Target	Win	True
685.222	0.3	Win2	0.6301	0.004	Yes	2.782	-0.004	2.0	GoodResponse	1	0.158	n/a	8	72	ButtonPress	Win	True
685.264	0.5	Win2	0.6301	n/a	Yes	2.782	n/a	n/a	GoodResponse	1	n/a	n/a	8	72	Blank	Win	True
685.766	1.45	Win2	0.6301	n/a	Yes	2.782	n/a	5.0	GoodResponse	1	0.005	684.771	8	72	Feedback	Win	True
687.22	2.782	Win2	0.6301	n/a	Yes	2.782	n/a	n/a	GoodResponse	1	0.0	n/a	8	72	ISIslide	Win	True
690.029	0.25	Win2	0.6215999999999999	0.0	No	2.671	0.029	n/a	NoResponse	0	n/a	n/a	8	73	Cue	MissedWin	False
690.279	4.0	Win2	0.6215999999999999	0.001	No	2.671	0.0	2.0	NoResponse	0	3.973	693.252	8	73	Fixation	MissedWin	False
694.252	0.3	Win2	0.6215999999999999	0.001	No	2.671	0.0	2.0	NoResponse	0	3.973	n/a	8	73	ButtonPress	MissedWin	False
694.275	0.21	Win2	0.6215999999999999	0.004	No	2.671	-0.004	2.0	NoResponse	0	0.304	693.579	8	73	Target	MissedWin	False
694.492	0.49	Win2	0.6215999999999999	n/a	No	2.671	n/a	n/a	NoResponse	0	n/a	n/a	8	73	Blank	MissedWin	False
694.579	0.3	Win2	0.6215999999999999	0.004	No	2.671	-0.004	2.0	NoResponse	0	0.304	n/a	8	73	ButtonPress	MissedWin	False
694.977	1.45	Win2	0.6215999999999999	n/a	No	2.671	n/a	5.0	NoResponse	0	0.014	693.991	8	73	Feedback	MissedWin	False
696.431	2.671	Win2	0.6215999999999999	n/a	No	2.671	n/a	n/a	NoResponse	0	0.0	n/a	8	73	ISIslide	MissedWin	False
699.123	0.25	Lose2	0.6267	0.0	Yes	2.627	0.023	n/a	GoodResponse	0	n/a	n/a	8	74	Cue	AvoidedLoss	True
699.373	4.05	Lose2	0.6267	0.0	Yes	2.627	0.0	n/a	GoodResponse	0	n/a	n/a	8	74	Fixation	AvoidedLoss	True
703.419	0.22	Lose2	0.6267	0.004	Yes	2.627	-0.004	2.0	GoodResponse	0	0.212	702.631	8	74	Target	AvoidedLoss	True
703.631	0.3	Lose2	0.6267	0.004	Yes	2.627	-0.004	2.0	GoodResponse	0	0.212	n/a	8	74	ButtonPress	AvoidedLoss	True
703.653	0.48	Lose2	0.6267	n/a	Yes	2.627	n/a	n/a	GoodResponse	0	n/a	n/a	8	74	Blank	AvoidedLoss	True
704.121	1.45	Lose2	0.6267	n/a	Yes	2.627	n/a	5.0	GoodResponse	0	0.041	703.162	8	74	Feedback	AvoidedLoss	True
705.575	2.627	Lose2	0.6267	n/a	Yes	2.627	n/a	n/a	GoodResponse	0	0.0	n/a	8	74	ISIslide	AvoidedLoss	True
708.216	0.25	Lose2	0.6315999999999999	0.001	Yes	2.934	0.016	n/a	GoodResponse	0	n/a	n/a	8	75	Cue	AvoidedLoss	True
708.467	3.95	Lose2	0.6315999999999999	0.0	Yes	2.934	0.001	n/a	GoodResponse	0	n/a	n/a	8	75	Fixation	AvoidedLoss	True
712.412	0.23	Lose2	0.6315999999999999	0.004	Yes	2.934	-0.004	2.0	GoodResponse	0	0.204	711.616	8	75	Target	AvoidedLoss	True
712.616	0.3	Lose2	0.6315999999999999	0.004	Yes	2.934	-0.004	2.0	GoodResponse	0	0.204	n/a	8	75	ButtonPress	AvoidedLoss	True
712.646	0.47	Lose2	0.6315999999999999	n/a	Yes	2.934	n/a	n/a	GoodResponse	0	n/a	n/a	8	75	Blank	AvoidedLoss	True
713.114	1.45	Lose2	0.6315999999999999	n/a	Yes	2.934	n/a	5.0	GoodResponse	0	0.022	712.136	8	75	Feedback	AvoidedLoss	True
714.569	2.934	Lose2	0.6315999999999999	n/a	Yes	2.934	n/a	n/a	GoodResponse	0	0.0	n/a	8	75	ISIslide	AvoidedLoss	True
717.528	0.25	Control	0.6364	0.0	Yes	3.222	0.028	n/a	GoodResponse	0	n/a	n/a	8	76	Cue	Neutral	True
717.778	4.05	Control	0.6364	0.0	Yes	3.222	0.0	n/a	GoodResponse	0	n/a	n/a	8	76	Fixation	Neutral	True
721.824	0.24	Control	0.6364	0.004	Yes	3.222	-0.004	2.0	GoodResponse	0	0.212	721.036	8	76	Target	Neutral	True
722.036	0.3	Control	0.6364	0.004	Yes	3.222	-0.004	2.0	GoodResponse	0	0.212	n/a	8	76	ButtonPress	Neutral	True
722.075	0.46	Control	0.6364	n/a	Yes	3.222	n/a	n/a	GoodResponse	0	n/a	n/a	8	76	Blank	Neutral	True
722.526	1.45	Control	0.6364	n/a	Yes	3.222	n/a	5.0	GoodResponse	0	0.025	721.551	8	76	Feedback	Neutral	True
723.98	3.222	Control	0.6364	n/a	Yes	3.222	n/a	n/a	GoodResponse	0	0.0	n/a	8	76	ISIslide	Neutral	True
727.223	0.25	Lose2	0.6282	0.0	No	2.577	0.023	n/a	NoResponse	-1	n/a	n/a	7	77	Cue	Loss	True
727.474	3.95	Lose2	0.6282	0.0	No	2.577	0.001	n/a	NoResponse	-1	n/a	n/a	7	77	Fixation	Loss	True
731.419	0.25	Lose2	0.6282	0.004	No	2.577	-0.004	2.0	NoResponse	-1	0.457	730.876	7	77	Target	Loss	True
731.67	0.45	Lose2	0.6282	n/a	No	2.577	n/a	n/a	NoResponse	-1	n/a	n/a	7	77	Blank	Loss	True
731.876	0.3	Lose2	0.6282	0.004	No	2.577	-0.004	2.0	NoResponse	-1	0.457	n/a	7	77	ButtonPress	Loss	True
732.121	1.45	Lose2	0.6282	n/a	No	2.577	n/a	5.0	NoResponse	-1	0.04	731.161	7	77	Feedback	Loss	True
733.576	2.577	Lose2	0.6282	n/a	No	2.577	n/a	n/a	NoResponse	-1	0.0	n/a	7	77	ISIslide	Loss	True
