onset	duration	cue_type	current_mean_accuracy	duration_error	is_hit	isi_adjusted	onset_delay	response	response_type	reward	rt	rt_time	total_reward	trial_number	trial_phase	trial_type	one_press
11.1	0.25	Control	1.0	0.0	Yes	2.95	0.0	n/a	GoodResponse	0	n/a	n/a	0	0	Cue	Neutral	True
11.35	3.85	Control	1.0	0.0	Yes	2.95	0.0	n/a	GoodResponse	0	n/a	n/a	0	0	Fixation	Neutral	True
15.199	0.4	Control	1.0	0.001	Yes	2.95	-0.001	2.0	GoodResponse	0	0.216	14.415	0	0	Target	Neutral	True
15.415	0.3	Control	1.0	0.001	Yes	2.95	-0.001	2.0	GoodResponse	0	0.216	n/a	0	0	ButtonPress	Neutral	True
15.599	0.3	Control	1.0	n/a	Yes	2.95	n/a	n/a	GoodResponse	0	n/a	n/a	0	0	Blank	Neutral	True
15.899	1.45	Control	1.0	n/a	Yes	2.95	n/a	5.0	GoodResponse	0	0.03	14.929	0	0	Feedback	Neutral	True
17.348	2.95	Control	1.0	n/a	Yes	2.95	n/a	n/a	GoodResponse	0	0.0	n/a	0	0	ISIslide	Neutral	True
20.314	0.25	Lose2	1.0	0.0	Yes	2.786	0.014	n/a	GoodResponse	0	n/a	n/a	0	1	Cue	AvoidedLoss	True
20.564	4.0	Lose2	1.0	0.0	Yes	2.786	0.0	n/a	GoodResponse	0	n/a	n/a	0	1	Fixation	AvoidedLoss	True
24.562	0.39	Lose2	1.0	0.002	Yes	2.786	-0.002	2.0	GoodResponse	0	0.208	23.77	0	1	Target	AvoidedLoss	True
24.77	0.3	Lose2	1.0	0.002	Yes	2.786	-0.002	2.0	GoodResponse	0	0.208	n/a	0	1	ButtonPress	AvoidedLoss	True
24.962	0.31	Lose2	1.0	n/a	Yes	2.786	n/a	n/a	GoodResponse	0	n/a	n/a	0	1	Blank	AvoidedLoss	True
25.262	1.45	Lose2	1.0	n/a	Yes	2.786	n/a	5.0	GoodResponse	0	0.033	24.295	0	1	Feedback	AvoidedLoss	True
26.711	2.786	Lose2	1.0	n/a	Yes	2.786	n/a	n/a	GoodResponse	0	0.0	n/a	0	1	ISIslide	AvoidedLoss	True
29.527	0.25	Control	1.0	0.0	Yes	2.573	0.027	n/a	GoodResponse	0	n/a	n/a	0	2	Cue	Neutral	True
29.777	4.1	Control	1.0	0.0	Yes	2.573	0.0	n/a	GoodResponse	0	n/a	n/a	0	2	Fixation	Neutral	True
33.876	0.38	Control	1.0	0.001	Yes	2.573	-0.001	2.0	GoodResponse	0	0.188	33.064	0	2	Target	Neutral	True
34.064	0.3	Control	1.0	0.001	Yes	2.573	-0.001	2.0	GoodResponse	0	0.188	n/a	0	2	ButtonPress	Neutral	True
34.259	0.32	Control	1.0	n/a	Yes	2.573	n/a	n/a	GoodResponse	0	n/a	n/a	0	2	Blank	Neutral	True
34.575	1.45	Control	1.0	n/a	Yes	2.573	n/a	5.0	GoodResponse	0	0.037	33.612	0	2	Feedback	Neutral	True
36.025	2.573	Control	1.0	n/a	Yes	2.573	n/a	n/a	GoodResponse	0	0.0	n/a	0	2	ISIslide	Neutral	True
38.624	0.25	Win2	1.0	0.0	Yes	2.826	0.024	n/a	GoodResponse	1	n/a	n/a	1	3	Cue	Win	True
38.874	3.95	Win2	1.0	0.0	Yes	2.826	0.0	n/a	GoodResponse	1	n/a	n/a	1	3	Fixation	Win	True
42.823	0.37	Win2	1.0	0.001	Yes	2.826	-0.001	2.0	GoodResponse	1	0.226	42.049	1	3	Target	Win	True
43.049	0.3	Win2	1.0	0.001	Yes	2.826	-0.001	2.0	GoodResponse	1	0.226	n/a	1	3	ButtonPress	Win	True
43.206	0.33	Win2	1.0	n/a	Yes	2.826	n/a	n/a	GoodResponse	1	n/a	n/a	1	3	Blank	Win	True
43.522	1.45	Win2	1.0	n/a	Yes	2.826	n/a	5.0	GoodResponse	1	0.017	42.539	1	3	Feedback	Win	True
44.972	2.826	Win2	1.0	n/a	Yes	2.826	n/a	n/a	GoodResponse	1	0.0	n/a	1	3	ISIslide	Win	True
47.821	0.25	Win2	1.0	0.0	Yes	3.279	0.021	n/a	GoodResponse	1	n/a	n/a	2	4	Cue	Win	True
48.071	4.0	Win2	1.0	0.0	Yes	3.279	0.0	n/a	GoodResponse	1	n/a	n/a	2	4	Fixation	Win	True
52.069	0.36	Win2	1.0	0.002	Yes	3.279	-0.002	2.0	GoodResponse	1	0.194	51.263	2	4	Target	Win	True
52.263	0.3	Win2	1.0	0.002	Yes	3.279	-0.002	2.0	GoodResponse	1	0.194	n/a	2	4	ButtonPress	Win	True
52.436	0.34	Win2	1.0	n/a	Yes	3.279	n/a	n/a	GoodResponse	1	n/a	n/a	2	4	Blank	Win	True
52.769	1.45	Win2	1.0	n/a	Yes	3.279	n/a	5.0	GoodResponse	1	0.038	51.807	2	4	Feedback	Win	True
54.219	3.279	Win2	1.0	n/a	Yes	3.279	n/a	n/a	GoodResponse	1	0.0	n/a	2	4	ISIslide	Win	True
57.517	0.25	Win2	1.0	0.001	Yes	2.783	0.017	n/a	GoodResponse	1	n/a	n/a	3	5	Cue	Win	True
57.767	4.0	Win2	1.0	0.0	Yes	2.783	0.0	n/a	GoodResponse	1	n/a	n/a	3	5	Fixation	Win	True
61.766	0.35	Win2	1.0	0.001	Yes	2.783	-0.001	2.0	GoodResponse	1	0.218	60.984	3	5	Target	Win	True
61.984	0.3	Win2	1.0	0.001	Yes	2.783	-0.001	2.0	GoodResponse	1	0.218	n/a	3	5	ButtonPress	Win	True
62.116	0.35	Win2	1.0	n/a	Yes	2.783	n/a	n/a	GoodResponse	1	n/a	n/a	3	5	Blank	Win	True
62.466	1.45	Win2	1.0	n/a	Yes	2.783	n/a	5.0	GoodResponse	1	0.049	61.515	3	5	Feedback	Win	True
63.915	2.783	Win2	1.0	n/a	Yes	2.783	n/a	n/a	GoodResponse	1	0.0	n/a	3	5	ISIslide	Win	True
66.714	0.25	Lose2	1.0	0.0	Yes	2.736	0.014	n/a	GoodResponse	0	n/a	n/a	3	6	Cue	AvoidedLoss	True
66.964	3.95	Lose2	1.0	0.0	Yes	2.736	0.0	n/a	GoodResponse	0	n/a	n/a	3	6	Fixation	AvoidedLoss	True
70.913	0.34	Lose2	1.0	0.001	Yes	2.736	-0.001	2.0	GoodResponse	0	0.178	70.091	3	6	Target	AvoidedLoss	True
71.091	0.3	Lose2	1.0	0.001	Yes	2.736	-0.001	2.0	GoodResponse	0	0.178	n/a	3	6	ButtonPress	AvoidedLoss	True
71.263	0.36	Lose2	1.0	n/a	Yes	2.736	n/a	n/a	GoodResponse	0	n/a	n/a	3	6	Blank	AvoidedLoss	True
71.612	1.45	Lose2	1.0	n/a	Yes	2.736	n/a	5.0	GoodResponse	0	0.024	70.636	3	6	Feedback	AvoidedLoss	True
73.062	2.736	Lose2	1.0	n/a	Yes	2.736	n/a	n/a	GoodResponse	0	0.0	n/a	3	6	ISIslide	AvoidedLoss	True
75.828	0.25	Lose2	1.0	0.0	Yes	4.022	0.028	n/a	GoodResponse	0	n/a	n/a	3	7	Cue	AvoidedLoss	True
76.078	4.05	Lose2	1.0	0.0	Yes	4.022	0.0	n/a	GoodResponse	0	n/a	n/a	3	7	Fixation	AvoidedLoss	True
80.126	0.33	Lose2	1.0	0.002	Yes	4.022	-0.002	2.0	GoodResponse	0	0.189	79.315	3	7	Target	AvoidedLoss	True
80.315	0.3	Lose2	1.0	0.002	Yes	4.022	-0.002	2.0	GoodResponse	0	0.189	n/a	3	7	ButtonPress	AvoidedLoss	True
80.459	0.37	Lose2	1.0	n/a	Yes	4.022	n/a	n/a	GoodResponse	0	n/a	n/a	3	7	Blank	AvoidedLoss	True
80.826	1.45	Lose2	1.0	n/a	Yes	4.022	n/a	5.0	GoodResponse	0	0.029	79.855	3	7	Feedback	AvoidedLoss	True
82.275	4.022	Lose2	1.0	n/a	Yes	4.022	n/a	n/a	GoodResponse	0	0.0	n/a	3	7	ISIslide	AvoidedLoss	True
86.324	0.25	Lose2	1.0	0.0	Yes	3.026	0.024	n/a	GoodResponse	0	n/a	n/a	3	8	Cue	AvoidedLoss	True
86.574	3.95	Lose2	1.0	0.0	Yes	3.026	0.0	n/a	GoodResponse	0	n/a	n/a	3	8	Fixation	AvoidedLoss	True
90.523	0.32	Lose2	1.0	0.001	Yes	3.026	-0.001	2.0	GoodResponse	0	0.265	89.788	3	8	Target	AvoidedLoss	True
90.788	0.3	Lose2	1.0	0.001	Yes	3.026	-0.001	2.0	GoodResponse	0	0.265	n/a	3	8	ButtonPress	AvoidedLoss	True
90.856	0.38	Lose2	1.0	n/a	Yes	3.026	n/a	n/a	GoodResponse	0	n/a	n/a	3	8	Blank	AvoidedLoss	True
91.222	1.45	Lose2	1.0	n/a	Yes	3.026	n/a	5.0	GoodResponse	0	0.024	90.246	3	8	Feedback	AvoidedLoss	True
92.672	3.026	Lose2	1.0	n/a	Yes	3.026	n/a	n/a	GoodResponse	0	0.0	n/a	3	8	ISIslide	AvoidedLoss	True
95.721	0.25	Lose2	1.0	0.0	Yes	3.129	0.021	n/a	GoodResponse	0	n/a	n/a	3	9	Cue	AvoidedLoss	True
95.971	3.95	Lose2	1.0	0.0	Yes	3.129	0.0	n/a	GoodResponse	0	n/a	n/a	3	9	Fixation	AvoidedLoss	True
99.919	0.31	Lose2	1.0	0.002	Yes	3.129	-0.002	2.0	GoodResponse	0	0.188	99.107	3	9	Target	AvoidedLoss	True
100.107	0.3	Lose2	1.0	0.002	Yes	3.129	-0.002	2.0	GoodResponse	0	0.188	n/a	3	9	ButtonPress	AvoidedLoss	True
100.236	0.39	Lose2	1.0	n/a	Yes	3.129	n/a	n/a	GoodResponse	0	n/a	n/a	3	9	Blank	AvoidedLoss	True
100.619	1.45	Lose2	1.0	n/a	Yes	3.129	n/a	5.0	GoodResponse	0	0.041	99.66	3	9	Feedback	AvoidedLoss	True
102.069	3.129	Lose2	1.0	n/a	Yes	3.129	n/a	n/a	GoodResponse	0	0.0	n/a	3	9	ISIslide	AvoidedLoss	True
105.217	0.25	Control	1.0	0.001	Yes	3.283	0.017	n/a	GoodResponse	0	n/a	n/a	3	10	Cue	Neutral	True
105.467	4.0	Control	1.0	0.0	Yes	3.283	0.0	n/a	GoodResponse	0	n/a	n/a	3	10	Fixation	Neutral	True
109.466	0.3	Control	1.0	0.001	Yes	3.283	-0.001	2.0	GoodResponse	0	0.181	108.647	3	10	Target	Neutral	True
109.647	0.3	Control	1.0	0.001	Yes	3.283	-0.001	2.0	GoodResponse	0	0.181	n/a	3	10	ButtonPress	Neutral	True
109.766	0.4	Control	1.0	n/a	Yes	3.283	n/a	n/a	GoodResponse	0	n/a	n/a	3	10	Blank	Neutral	True
110.166	1.45	Control	1.0	n/a	Yes	3.283	n/a	5.0	GoodResponse	0	0.007	109.173	3	10	Feedback	Neutral	True
111.615	3.283	Control	1.0	n/a	Yes	3.283	n/a	n/a	GoodResponse	0	0.0	n/a	3	10	ISIslide	Neutral	True
114.931	0.25	Lose2	0.9167000000000001	0.0	No	2.719	0.031	n/a	PrematurePress	-1	n/a	n/a	2	11	Cue	Loss	True
115.181	4.05	Lose2	0.9167000000000001	0.0	No	2.719	0.0	n/a	PrematurePress	-1	n/a	n/a	2	11	Fixation	Loss	True
119.229	0.29	Lose2	0.9167000000000001	0.002	No	2.719	-0.002	2.0	PrematurePress	-1	0.057	118.286	2	11	Target	Loss	True
119.286	0.3	Lose2	0.9167000000000001	0.002	No	2.719	-0.002	2.0	PrematurePress	-1	0.057	n/a	2	11	ButtonPress	Loss	True
119.529	0.41	Lose2	0.9167000000000001	n/a	No	2.719	n/a	n/a	PrematurePress	-1	n/a	n/a	2	11	Blank	Loss	True
119.929	1.45	Lose2	0.9167000000000001	n/a	No	2.719	n/a	5.0	PrematurePress	-1	0.048	118.977	2	11	Feedback	Loss	True
121.378	2.719	Lose2	0.9167000000000001	n/a	No	2.719	n/a	n/a	PrematurePress	-1	0.0	n/a	2	11	ISIslide	Loss	True
124.127	0.25	Control	0.9231	0.001	Yes	2.973	0.027	n/a	GoodResponse	0	n/a	n/a	2	12	Cue	Neutral	True
124.377	3.9	Control	0.9231	0.0	Yes	2.973	0.0	n/a	GoodResponse	0	n/a	n/a	2	12	Fixation	Neutral	True
128.276	0.28	Control	0.9231	0.001	Yes	2.973	-0.001	2.0	GoodResponse	0	0.208	127.484	2	12	Target	Neutral	True
128.484	0.3	Control	0.9231	0.001	Yes	2.973	-0.001	2.0	GoodResponse	0	0.208	n/a	2	12	ButtonPress	Neutral	True
128.559	0.42	Control	0.9231	n/a	Yes	2.973	n/a	n/a	GoodResponse	0	n/a	n/a	2	12	Blank	Neutral	True
128.976	1.45	Control	0.9231	n/a	Yes	2.973	n/a	5.0	GoodResponse	0	0.025	128.001	2	12	Feedback	Neutral	True
130.425	2.973	Control	0.9231	n/a	Yes	2.973	n/a	n/a	GoodResponse	0	0.0	n/a	2	12	ISIslide	Neutral	True
133.424	0.25	Control	0.9286	0.0	Yes	2.776	0.024	n/a	GoodResponse	0	n/a	n/a	2	13	Cue	Neutral	True
133.674	4.0	Control	0.9286	0.0	Yes	2.776	0.0	n/a	GoodResponse	0	n/a	n/a	2	13	Fixation	Neutral	True
137.673	0.27	Control	0.9286	0.001	Yes	2.776	-0.001	2.0	GoodResponse	0	0.245	136.918	2	13	Target	Neutral	True
137.918	0.3	Control	0.9286	0.001	Yes	2.776	-0.001	2.0	GoodResponse	0	0.245	n/a	2	13	ButtonPress	Neutral	True
137.956	0.43	Control	0.9286	n/a	Yes	2.776	n/a	n/a	GoodResponse	0	n/a	n/a	2	13	Blank	Neutral	True
138.373	1.45	Control	0.9286	n/a	Yes	2.776	n/a	5.0	GoodResponse	0	0.043	137.416	2	13	Feedback	Neutral	True
139.822	2.776	Control	0.9286	n/a	Yes	2.776	n/a	n/a	GoodResponse	0	0.0	n/a	2	13	ISIslide	Neutral	True
142.621	0.25	Win2	0.9333	0.0	Yes	2.679	0.021	n/a	GoodResponse	1	n/a	n/a	3	14	Cue	Win	True
142.871	4.1	Win2	0.9333	0.0	Yes	2.679	0.0	n/a	GoodResponse	1	n/a	n/a	3	14	Fixation	Win	True
146.97	0.26	Win2	0.9333	0.001	Yes	2.679	-0.001	2.0	GoodResponse	1	0.201	146.171	3	14	Target	Win	True
147.171	0.3	Win2	0.9333	0.001	Yes	2.679	-0.001	2.0	GoodResponse	1	0.201	n/a	3	14	ButtonPress	Win	True
147.236	0.44	Win2	0.9333	n/a	Yes	2.679	n/a	n/a	GoodResponse	1	n/a	n/a	3	14	Blank	Win	True
147.669	1.45	Win2	0.9333	n/a	Yes	2.679	n/a	5.0	GoodResponse	1	0.015	146.684	3	14	Feedback	Win	True
149.119	2.679	Win2	0.9333	n/a	Yes	2.679	n/a	n/a	GoodResponse	1	0.0	n/a	3	14	ISIslide	Win	True
151.818	0.25	Control	0.875	0.0	No	2.982	0.018	n/a	NoResponse	0	n/a	n/a	3	15	Cue	Neutral	True
152.068	4.0	Control	0.875	0.0	No	2.982	0.0	n/a	NoResponse	0	n/a	n/a	3	15	Fixation	Neutral	True
156.066	0.25	Control	0.875	0.002	No	2.982	-0.002	2.0	NoResponse	0	0.381	155.447	3	15	Target	Neutral	True
156.316	0.45	Control	0.875	n/a	No	2.982	n/a	n/a	NoResponse	0	n/a	n/a	3	15	Blank	Neutral	True
156.447	0.3	Control	0.875	0.002	No	2.982	-0.002	2.0	NoResponse	0	0.381	n/a	3	15	ButtonPress	Neutral	True
156.766	1.45	Control	0.875	n/a	No	2.982	n/a	5.0	NoResponse	0	0.041	155.807	3	15	Feedback	Neutral	True
158.216	2.982	Control	0.875	n/a	No	2.982	n/a	n/a	NoResponse	0	0.0	n/a	3	15	ISIslide	Neutral	True
161.215	0.25	Win2	0.8234999999999999	0.0	No	2.885	0.015	n/a	NoResponse	0	n/a	n/a	3	16	Cue	MissedWin	True
161.464	4.0	Win2	0.8234999999999999	0.001	No	2.885	-0.001	n/a	NoResponse	0	n/a	n/a	3	16	Fixation	MissedWin	True
165.463	0.24	Win2	0.8234999999999999	0.002	No	2.885	-0.002	2.0	NoResponse	0	0.256	164.719	3	16	Target	MissedWin	True
165.713	0.46	Win2	0.8234999999999999	n/a	No	2.885	n/a	n/a	NoResponse	0	n/a	n/a	3	16	Blank	MissedWin	True
165.719	0.3	Win2	0.8234999999999999	0.002	No	2.885	-0.002	2.0	NoResponse	0	0.256	n/a	3	16	ButtonPress	MissedWin	True
166.163	1.45	Win2	0.8234999999999999	n/a	No	2.885	n/a	5.0	NoResponse	0	0.01	165.173	3	16	Feedback	MissedWin	True
167.612	2.885	Win2	0.8234999999999999	n/a	No	2.885	n/a	n/a	NoResponse	0	0.0	n/a	3	16	ISIslide	MissedWin	True
170.528	0.25	Lose2	0.8332999999999999	0.0	Yes	2.722	0.028	n/a	GoodResponse	0	n/a	n/a	3	17	Cue	AvoidedLoss	True
170.778	3.95	Lose2	0.8332999999999999	0.0	Yes	2.722	0.0	n/a	GoodResponse	0	n/a	n/a	3	17	Fixation	AvoidedLoss	True
174.727	0.23	Lose2	0.8332999999999999	0.001	Yes	2.722	-0.001	2.0	GoodResponse	0	0.204	173.931	3	17	Target	AvoidedLoss	True
174.931	0.3	Lose2	0.8332999999999999	0.001	Yes	2.722	-0.001	2.0	GoodResponse	0	0.204	n/a	3	17	ButtonPress	AvoidedLoss	True
174.96	0.47	Lose2	0.8332999999999999	n/a	Yes	2.722	n/a	n/a	GoodResponse	0	n/a	n/a	3	17	Blank	AvoidedLoss	True
175.426	1.45	Lose2	0.8332999999999999	n/a	Yes	2.722	n/a	5.0	GoodResponse	0	0.014	174.44	3	17	Feedback	AvoidedLoss	True
176.876	2.722	Lose2	0.8332999999999999	n/a	Yes	2.722	n/a	n/a	GoodResponse	0	0.0	n/a	3	17	ISIslide	AvoidedLoss	True
179.625	0.25	Lose2	0.8421	0.0	Yes	2.725	0.025	n/a	GoodResponse	0	n/a	n/a	3	18	Cue	AvoidedLoss	True
179.875	4.05	Lose2	0.8421	0.0	Yes	2.725	0.0	n/a	GoodResponse	0	n/a	n/a	3	18	Fixation	AvoidedLoss	True
183.923	0.22	Lose2	0.8421	0.002	Yes	2.725	-0.002	2.0	GoodResponse	0	0.192	183.115	3	18	Target	AvoidedLoss	True
184.115	0.3	Lose2	0.8421	0.002	Yes	2.725	-0.002	2.0	GoodResponse	0	0.192	n/a	3	18	ButtonPress	AvoidedLoss	True
184.157	0.48	Lose2	0.8421	n/a	Yes	2.725	n/a	n/a	GoodResponse	0	n/a	n/a	3	18	Blank	AvoidedLoss	True
184.623	1.45	Lose2	0.8421	n/a	Yes	2.725	n/a	5.0	GoodResponse	0	0.037	183.66	3	18	Feedback	AvoidedLoss	True
186.073	2.725	Lose2	0.8421	n/a	Yes	2.725	n/a	n/a	GoodResponse	0	0.0	n/a	3	18	ISIslide	AvoidedLoss	True
188.822	0.25	Control	0.85	0.0	Yes	2.928	0.022	n/a	GoodResponse	0	n/a	n/a	3	19	Cue	Neutral	True
189.071	3.95	Control	0.85	0.001	Yes	2.928	-0.001	n/a	GoodResponse	0	n/a	n/a	3	19	Fixation	Neutral	True
193.02	0.21	Control	0.85	0.002	Yes	2.928	-0.002	2.0	GoodResponse	0	0.198	192.218	3	19	Target	Neutral	True
193.218	0.3	Control	0.85	0.002	Yes	2.928	-0.002	2.0	GoodResponse	0	0.198	n/a	3	19	ButtonPress	Neutral	True
193.237	0.49	Control	0.85	n/a	Yes	2.928	n/a	n/a	GoodResponse	0	n/a	n/a	3	19	Blank	Neutral	True
193.72	1.45	Control	0.85	n/a	Yes	2.928	n/a	5.0	GoodResponse	0	0.013	192.733	3	19	Feedback	Neutral	True
195.169	2.928	Control	0.85	n/a	Yes	2.928	n/a	n/a	GoodResponse	0	0.0	n/a	3	19	ISIslide	Neutral	True
198.118	0.25	Control	0.8571	0.0	Yes	2.632	0.018	n/a	GoodResponse	0	n/a	n/a	3	20	Cue	Neutral	True
198.368	4.05	Control	0.8571	0.0	Yes	2.632	0.0	n/a	GoodResponse	0	n/a	n/a	3	20	Fixation	Neutral	True
202.417	0.2	Control	0.8571	0.001	Yes	2.632	-0.001	2.0	GoodResponse	0	0.183	201.6	3	20	Target	Neutral	True
202.6	0.3	Control	0.8571	0.001	Yes	2.632	-0.001	2.0	GoodResponse	0	0.183	n/a	3	20	ButtonPress	Neutral	True
202.617	0.5	Control	0.8571	n/a	Yes	2.632	n/a	n/a	GoodResponse	0	n/a	n/a	3	20	Blank	Neutral	True
203.117	1.45	Control	0.8571	n/a	Yes	2.632	n/a	5.0	GoodResponse	0	0.031	202.148	3	20	Feedback	Neutral	True
204.566	2.632	Control	0.8571	n/a	Yes	2.632	n/a	n/a	GoodResponse	0	0.0	n/a	3	20	ISIslide	Neutral	True
207.215	0.25	Control	0.8181999999999999	0.0	No	2.785	0.015	n/a	NoResponse	0	n/a	n/a	3	21	Cue	Neutral	False
207.465	4.1	Control	0.8181999999999999	0.0	No	2.785	0.0	2.0	NoResponse	0	3.768	210.233	3	21	Fixation	Neutral	False
211.233	0.3	Control	0.8181999999999999	0.0	No	2.785	0.0	2.0	NoResponse	0	3.768	n/a	3	21	ButtonPress	Neutral	False
211.564	0.19	Control	0.8181999999999999	0.001	No	2.785	-0.001	2.0	NoResponse	0	0.212	210.776	3	21	Target	Neutral	False
211.764	0.51	Control	0.8181999999999999	n/a	No	2.785	n/a	n/a	NoResponse	0	n/a	n/a	3	21	Blank	Neutral	False
211.776	0.3	Control	0.8181999999999999	0.001	No	2.785	-0.001	2.0	NoResponse	0	0.212	n/a	3	21	ButtonPress	Neutral	False
212.263	1.45	Control	0.8181999999999999	n/a	No	2.785	n/a	5.0	NoResponse	0	0.007	211.27	3	21	Feedback	Neutral	False
213.713	2.785	Control	0.8181999999999999	n/a	No	2.785	n/a	n/a	NoResponse	0	0.0	n/a	3	21	ISIslide	Neutral	False
216.512	0.25	Control	0.7826000000000001	0.0	No	2.788	0.012	n/a	NoResponse	0	n/a	n/a	3	22	Cue	Neutral	True
216.762	4.0	Control	0.7826000000000001	0.0	No	2.788	0.0	n/a	NoResponse	0	n/a	n/a	3	22	Fixation	Neutral	True
220.76	0.18	Control	0.7826000000000001	0.002	No	2.788	-0.002	2.0	NoResponse	0	0.195	219.955	3	22	Target	Neutral	True
220.944	0.52	Control	0.7826000000000001	n/a	No	2.788	n/a	n/a	NoResponse	0	n/a	n/a	3	22	Blank	Neutral	True
220.955	0.3	Control	0.7826000000000001	0.002	No	2.788	-0.002	2.0	NoResponse	0	0.195	n/a	3	22	ButtonPress	Neutral	True
221.46	1.45	Control	0.7826000000000001	n/a	No	2.788	n/a	5.0	NoResponse	0	0.028	220.488	3	22	Feedback	Neutral	True
222.91	2.788	Control	0.7826000000000001	n/a	No	2.788	n/a	n/a	NoResponse	0	0.0	n/a	3	22	ISIslide	Neutral	True
225.725	0.25	Control	0.75	0.0	No	2.775	0.025	n/a	NoResponse	0	n/a	n/a	3	23	Cue	Neutral	True
225.975	3.9	Control	0.75	0.0	No	2.775	0.0	n/a	NoResponse	0	n/a	n/a	3	23	Fixation	Neutral	True
229.874	0.17	Control	0.75	0.001	No	2.775	-0.001	2.0	NoResponse	0	0.199	229.073	3	23	Target	Neutral	True
230.041	0.53	Control	0.75	n/a	No	2.775	n/a	n/a	NoResponse	0	n/a	n/a	3	23	Blank	Neutral	True
230.073	0.3	Control	0.75	0.001	No	2.775	-0.001	2.0	NoResponse	0	0.199	n/a	3	23	ButtonPress	Neutral	True
230.574	1.45	Control	0.75	n/a	No	2.775	n/a	5.0	NoResponse	0	0.036	229.61	3	23	Feedback	Neutral	True
232.023	2.775	Control	0.75	n/a	No	2.775	n/a	n/a	NoResponse	0	0.0	n/a	3	23	ISIslide	Neutral	True
234.822	0.25	Win2	0.72	0.0	No	3.128	0.022	n/a	NoResponse	0	n/a	n/a	3	24	Cue	MissedWin	False
235.072	3.95	Win2	0.72	0.0	No	3.128	0.0	2.0	NoResponse	0	3.782	237.854	3	24	Fixation	MissedWin	False
238.854	0.3	Win2	0.72	0.0	No	3.128	0.0	2.0	NoResponse	0	3.782	n/a	3	24	ButtonPress	MissedWin	False
239.021	0.16	Win2	0.72	0.001	No	3.128	-0.001	2.0	NoResponse	0	0.192	238.213	3	24	Target	MissedWin	False
239.187	0.54	Win2	0.72	n/a	No	3.128	n/a	n/a	NoResponse	0	n/a	n/a	3	24	Blank	MissedWin	False
239.213	0.3	Win2	0.72	0.001	No	3.128	-0.001	2.0	NoResponse	0	0.192	n/a	3	24	ButtonPress	MissedWin	False
239.72	1.45	Win2	0.72	n/a	No	3.128	n/a	5.0	NoResponse	0	0.012	238.732	3	24	Feedback	MissedWin	False
241.17	3.128	Win2	0.72	n/a	No	3.128	n/a	n/a	NoResponse	0	0.0	n/a	3	24	ISIslide	MissedWin	False
244.319	0.25	Win2	0.6923	0.0	No	3.081	0.019	n/a	NoResponse	0	n/a	n/a	3	25	Cue	MissedWin	True
244.569	4.0	Win2	0.6923	0.0	No	3.081	0.0	n/a	NoResponse	0	n/a	n/a	3	25	Fixation	MissedWin	True
248.567	0.15	Win2	0.6923	0.002	No	3.081	-0.002	2.0	NoResponse	0	0.231	247.798	3	25	Target	MissedWin	True
248.717	0.55	Win2	0.6923	n/a	No	3.081	n/a	n/a	NoResponse	0	n/a	n/a	3	25	Blank	MissedWin	True
248.798	0.3	Win2	0.6923	0.002	No	3.081	-0.002	2.0	NoResponse	0	0.231	n/a	3	25	ButtonPress	MissedWin	True
249.267	1.45	Win2	0.6923	n/a	No	3.081	n/a	5.0	NoResponse	0	0.027	248.294	3	25	Feedback	MissedWin	True
250.717	3.081	Win2	0.6923	n/a	No	3.081	n/a	n/a	NoResponse	0	0.0	n/a	3	25	ISIslide	MissedWin	True
253.816	0.25	Win2	0.6667000000000001	0.0	No	2.934	0.016	n/a	NoResponse	0	n/a	n/a	3	26	Cue	MissedWin	True
254.065	3.95	Win2	0.6667000000000001	0.001	No	2.934	-0.001	n/a	NoResponse	0	n/a	n/a	3	26	Fixation	MissedWin	True
258.014	0.15	Win2	0.6667000000000001	0.002	No	2.934	-0.002	2.0	NoResponse	0	0.232	257.246	3	26	Target	MissedWin	True
258.164	0.55	Win2	0.6667000000000001	n/a	No	2.934	n/a	n/a	NoResponse	0	n/a	n/a	3	26	Blank	MissedWin	True
258.246	0.3	Win2	0.6667000000000001	0.002	No	2.934	-0.002	2.0	NoResponse	0	0.232	n/a	3	26	ButtonPress	MissedWin	True
258.714	1.45	Win2	0.6667000000000001	n/a	No	2.934	n/a	5.0	NoResponse	0	0.043	257.757	3	26	Feedback	MissedWin	True
260.163	2.934	Win2	0.6667000000000001	n/a	No	2.934	n/a	n/a	NoResponse	0	0.0	n/a	3	26	ISIslide	MissedWin	True
263.112	0.25	Lose2	0.6429	0.0	No	2.838	0.012	n/a	NoResponse	-1	n/a	n/a	2	27	Cue	Loss	True
263.362	4.05	Lose2	0.6429	0.0	No	2.838	0.0	n/a	NoResponse	-1	n/a	n/a	2	27	Fixation	Loss	True
267.411	0.15	Lose2	0.6429	0.001	No	2.838	-0.001	2.0	NoResponse	-1	0.191	266.602	2	27	Target	Loss	True
267.561	0.55	Lose2	0.6429	n/a	No	2.838	n/a	n/a	NoResponse	-1	n/a	n/a	2	27	Blank	Loss	True
267.602	0.3	Lose2	0.6429	0.001	No	2.838	-0.001	2.0	NoResponse	-1	0.191	n/a	2	27	ButtonPress	Loss	True
268.111	1.45	Lose2	0.6429	n/a	No	2.838	n/a	5.0	NoResponse	-1	0.011	267.122	2	27	Feedback	Loss	True
269.56	2.838	Lose2	0.6429	n/a	No	2.838	n/a	n/a	NoResponse	-1	0.0	n/a	2	27	ISIslide	Loss	True
272.426	0.25	Control	0.6207	0.0	No	2.824	0.026	n/a	PrematurePress	0	n/a	n/a	2	28	Cue	Neutral	True
272.676	4.05	Control	0.6207	0.0	No	2.824	0.0	n/a	PrematurePress	0	n/a	n/a	2	28	Fixation	Neutral	True
276.724	0.16	Control	0.6207	0.002	No	2.824	-0.002	2.0	PrematurePress	0	0.009	275.733	2	28	Target	Neutral	True
276.733	0.3	Control	0.6207	0.002	No	2.824	-0.002	2.0	PrematurePress	0	0.009	n/a	2	28	ButtonPress	Neutral	True
276.891	0.54	Control	0.6207	n/a	No	2.824	n/a	n/a	PrematurePress	0	n/a	n/a	2	28	Blank	Neutral	True
277.424	1.45	Control	0.6207	n/a	No	2.824	n/a	5.0	PrematurePress	0	0.015	276.439	2	28	Feedback	Neutral	True
278.874	2.824	Control	0.6207	n/a	No	2.824	n/a	n/a	PrematurePress	0	0.0	n/a	2	28	ISIslide	Neutral	True
281.723	0.25	Lose2	0.6	0.0	No	2.827	0.023	n/a	NoResponse	-1	n/a	n/a	1	29	Cue	Loss	True
281.972	3.95	Lose2	0.6	0.001	No	2.827	-0.001	n/a	NoResponse	-1	n/a	n/a	1	29	Fixation	Loss	True
285.921	0.17	Lose2	0.6	0.002	No	2.827	-0.002	2.0	NoResponse	-1	0.189	285.11	1	29	Target	Loss	True
286.104	0.53	Lose2	0.6	n/a	No	2.827	n/a	n/a	NoResponse	-1	n/a	n/a	1	29	Blank	Loss	True
286.11	0.3	Lose2	0.6	0.002	No	2.827	-0.002	2.0	NoResponse	-1	0.189	n/a	1	29	ButtonPress	Loss	True
286.621	1.45	Lose2	0.6	n/a	No	2.827	n/a	5.0	NoResponse	-1	0.038	285.659	1	29	Feedback	Loss	True
288.07	2.827	Lose2	0.6	n/a	No	2.827	n/a	n/a	NoResponse	-1	0.0	n/a	1	29	ISIslide	Loss	True
290.919	0.25	Win2	0.5806	0.0	No	2.781	0.019	n/a	NoResponse	0	n/a	n/a	1	30	Cue	MissedWin	True
291.169	3.9	Win2	0.5806	0.0	No	2.781	0.0	n/a	NoResponse	0	n/a	n/a	1	30	Fixation	MissedWin	True
295.068	0.18	Win2	0.5806	0.001	No	2.781	-0.001	2.0	NoResponse	0	0.208	294.276	1	30	Target	MissedWin	True
295.251	0.52	Win2	0.5806	n/a	No	2.781	n/a	n/a	NoResponse	0	n/a	n/a	1	30	Blank	MissedWin	True
295.276	0.3	Win2	0.5806	0.001	No	2.781	-0.001	2.0	NoResponse	0	0.208	n/a	1	30	ButtonPress	MissedWin	True
295.768	1.45	Win2	0.5806	n/a	No	2.781	n/a	5.0	NoResponse	0	0.013	294.781	1	30	Feedback	MissedWin	True
297.217	2.781	Win2	0.5806	n/a	No	2.781	n/a	n/a	NoResponse	0	0.0	n/a	1	30	ISIslide	MissedWin	True
300.016	0.25	Lose2	0.5625	0.0	No	2.834	0.016	n/a	NoResponse	-1	n/a	n/a	0	31	Cue	Loss	False
300.266	4.05	Lose2	0.5625	0.0	No	2.834	0.0	2.0	NoResponse	-1	0.082	299.348	0	31	Fixation	Loss	False
300.348	0.3	Lose2	0.5625	0.0	No	2.834	0.0	2.0	NoResponse	-1	0.082	n/a	0	31	ButtonPress	Loss	False
304.315	0.19	Lose2	0.5625	0.001	No	2.834	-0.001	2.0	NoResponse	-1	0.22	303.535	0	31	Target	Loss	False
304.515	0.51	Lose2	0.5625	n/a	No	2.834	n/a	n/a	NoResponse	-1	n/a	n/a	0	31	Blank	Loss	False
304.535	0.3	Lose2	0.5625	0.001	No	2.834	-0.001	2.0	NoResponse	-1	0.22	n/a	0	31	ButtonPress	Loss	False
305.014	1.45	Lose2	0.5625	n/a	No	2.834	n/a	5.0	NoResponse	-1	0.035	304.049	0	31	Feedback	Loss	False
306.464	2.834	Lose2	0.5625	n/a	No	2.834	n/a	n/a	NoResponse	-1	0.0	n/a	0	31	ISIslide	Loss	False
309.33	0.25	Lose2	0.5758	0.0	Yes	2.62	0.03	n/a	GoodResponse	0	n/a	n/a	0	32	Cue	AvoidedLoss	True
309.579	4.15	Lose2	0.5758	0.001	Yes	2.62	-0.001	n/a	GoodResponse	0	n/a	n/a	0	32	Fixation	AvoidedLoss	True
313.728	0.2	Lose2	0.5758	0.002	Yes	2.62	-0.002	2.0	GoodResponse	0	0.187	312.915	0	32	Target	AvoidedLoss	True
313.915	0.3	Lose2	0.5758	0.002	Yes	2.62	-0.002	2.0	GoodResponse	0	0.187	n/a	0	32	ButtonPress	AvoidedLoss	True
313.928	0.5	Lose2	0.5758	n/a	Yes	2.62	n/a	n/a	GoodResponse	0	n/a	n/a	0	32	Blank	AvoidedLoss	True
314.428	1.45	Lose2	0.5758	n/a	Yes	2.62	n/a	5.0	GoodResponse	0	0.036	313.464	0	32	Feedback	AvoidedLoss	True
315.877	2.62	Lose2	0.5758	n/a	Yes	2.62	n/a	n/a	GoodResponse	0	0.0	n/a	0	32	ISIslide	AvoidedLoss	True
318.526	0.25	Win2	0.5882000000000001	0.0	Yes	2.674	0.026	n/a	GoodResponse	1	n/a	n/a	1	33	Cue	Win	True
318.776	4.0	Win2	0.5882000000000001	0.0	Yes	2.674	0.0	n/a	GoodResponse	1	n/a	n/a	1	33	Fixation	Win	True
322.775	0.21	Win2	0.5882000000000001	0.001	Yes	2.674	-0.001	2.0	GoodResponse	1	0.192	321.967	1	33	Target	Win	True
322.967	0.3	Win2	0.5882000000000001	0.001	Yes	2.674	-0.001	2.0	GoodResponse	1	0.192	n/a	1	33	ButtonPress	Win	True
322.991	0.49	Win2	0.5882000000000001	n/a	Yes	2.674	n/a	n/a	GoodResponse	1	n/a	n/a	1	33	Blank	Win	True
323.475	1.45	Win2	0.5882000000000001	n/a	Yes	2.674	n/a	5.0	GoodResponse	1	0.013	322.488	1	33	Feedback	Win	True
324.924	2.674	Win2	0.5882000000000001	n/a	Yes	2.674	n/a	n/a	GoodResponse	1	0.0	n/a	1	33	ISIslide	Win	True
327.623	0.25	Lose2	0.6	0.0	Yes	2.627	0.023	n/a	GoodResponse	0	n/a	n/a	1	34	Cue	AvoidedLoss	True
327.873	4.05	Lose2	0.6	0.0	Yes	2.627	0.0	n/a	GoodResponse	0	n/a	n/a	1	34	Fixation	AvoidedLoss	True
331.922	0.22	Lose2	0.6	0.001	Yes	2.627	-0.001	2.0	GoodResponse	0	0.18	331.102	1	34	Target	AvoidedLoss	True
332.102	0.3	Lose2	0.6	0.001	Yes	2.627	-0.001	2.0	GoodResponse	0	0.18	n/a	1	34	ButtonPress	AvoidedLoss	True
332.155	0.48	Lose2	0.6	n/a	Yes	2.627	n/a	n/a	GoodResponse	0	n/a	n/a	1	34	Blank	AvoidedLoss	True
332.621	1.45	Lose2	0.6	n/a	Yes	2.627	n/a	5.0	GoodResponse	0	0.038	331.659	1	34	Feedback	AvoidedLoss	True
334.071	2.627	Lose2	0.6	n/a	Yes	2.627	n/a	n/a	GoodResponse	0	0.0	n/a	1	34	ISIslide	AvoidedLoss	True
336.72	0.25	Lose2	0.5832999999999999	0.0	No	2.68	0.02	n/a	PrematurePress	-1	n/a	n/a	0	35	Cue	Loss	False
336.97	4.0	Lose2	0.5832999999999999	0.0	No	2.68	0.0	2.0	PrematurePress	-1	3.242	339.212	0	35	Fixation	Loss	False
340.212	0.3	Lose2	0.5832999999999999	0.0	No	2.68	0.0	2.0	PrematurePress	-1	3.242	n/a	0	35	ButtonPress	Loss	False
340.968	0.23	Lose2	0.5832999999999999	0.002	No	2.68	-0.002	2.0	PrematurePress	-1	0.027	339.995	0	35	Target	Loss	False
340.995	0.3	Lose2	0.5832999999999999	0.002	No	2.68	-0.002	2.0	PrematurePress	-1	0.027	n/a	0	35	ButtonPress	Loss	False
341.202	0.47	Lose2	0.5832999999999999	n/a	No	2.68	n/a	n/a	PrematurePress	-1	n/a	n/a	0	35	Blank	Loss	False
341.668	1.45	Lose2	0.5832999999999999	n/a	No	2.68	n/a	5.0	PrematurePress	-1	0.015	340.683	0	35	Feedback	Loss	False
343.118	2.68	Lose2	0.5832999999999999	n/a	No	2.68	n/a	n/a	PrematurePress	-1	0.0	n/a	0	35	ISIslide	Loss	False
345.817	0.25	Control	0.5676	0.0	No	2.683	0.017	n/a	NoResponse	0	n/a	n/a	0	36	Cue	Neutral	True
346.067	4.0	Control	0.5676	0.0	No	2.683	0.0	n/a	NoResponse	0	n/a	n/a	0	36	Fixation	Neutral	True
350.065	0.24	Control	0.5676	0.002	No	2.683	-0.002	2.0	NoResponse	0	0.256	349.321	0	36	Target	Neutral	True
350.315	0.46	Control	0.5676	n/a	No	2.683	n/a	n/a	NoResponse	0	n/a	n/a	0	36	Blank	Neutral	True
350.321	0.3	Control	0.5676	0.002	No	2.683	-0.002	2.0	NoResponse	0	0.256	n/a	0	36	ButtonPress	Neutral	True
350.765	1.45	Control	0.5676	n/a	No	2.683	n/a	5.0	NoResponse	0	0.04	349.805	0	36	Feedback	Neutral	True
352.215	2.683	Control	0.5676	n/a	No	2.683	n/a	n/a	NoResponse	0	0.0	n/a	0	36	ISIslide	Neutral	True
354.914	0.25	Win2	0.5789	0.0	Yes	2.886	0.014	n/a	GoodResponse	1	n/a	n/a	1	37	Cue	Win	True
355.164	4.0	Win2	0.5789	0.0	Yes	2.886	0.0	n/a	GoodResponse	1	n/a	n/a	1	37	Fixation	Win	True
359.162	0.25	Win2	0.5789	0.002	Yes	2.886	-0.002	2.0	GoodResponse	1	0.211	358.373	1	37	Target	Win	True
359.373	0.3	Win2	0.5789	0.002	Yes	2.886	-0.002	2.0	GoodResponse	1	0.211	n/a	1	37	ButtonPress	Win	True
359.412	0.45	Win2	0.5789	n/a	Yes	2.886	n/a	n/a	GoodResponse	1	n/a	n/a	1	37	Blank	Win	True
359.862	1.45	Win2	0.5789	n/a	Yes	2.886	n/a	5.0	GoodResponse	1	0.016	358.878	1	37	Feedback	Win	True
361.311	2.886	Win2	0.5789	n/a	Yes	2.886	n/a	n/a	GoodResponse	1	0.0	n/a	1	37	ISIslide	Win	True
364.227	0.25	Lose2	0.5897	0.0	Yes	2.823	0.027	n/a	GoodResponse	0	n/a	n/a	1	38	Cue	AvoidedLoss	True
364.477	3.95	Lose2	0.5897	0.0	Yes	2.823	0.0	n/a	GoodResponse	0	n/a	n/a	1	38	Fixation	AvoidedLoss	True
368.426	0.26	Lose2	0.5897	0.001	Yes	2.823	-0.001	2.0	GoodResponse	0	0.197	367.623	1	38	Target	AvoidedLoss	True
368.623	0.3	Lose2	0.5897	0.001	Yes	2.823	-0.001	2.0	GoodResponse	0	0.197	n/a	1	38	ButtonPress	AvoidedLoss	True
368.692	0.44	Lose2	0.5897	n/a	Yes	2.823	n/a	n/a	GoodResponse	0	n/a	n/a	1	38	Blank	AvoidedLoss	True
369.125	1.45	Lose2	0.5897	n/a	Yes	2.823	n/a	5.0	GoodResponse	0	0.021	368.146	1	38	Feedback	AvoidedLoss	True
370.575	2.823	Lose2	0.5897	n/a	Yes	2.823	n/a	n/a	GoodResponse	0	0.0	n/a	1	38	ISIslide	AvoidedLoss	True
373.424	0.25	Win2	0.6	0.0	Yes	2.976	0.024	n/a	GoodResponse	1	n/a	n/a	2	39	Cue	Win	True
373.674	4.1	Win2	0.6	0.0	Yes	2.976	0.0	n/a	GoodResponse	1	n/a	n/a	2	39	Fixation	Win	True
377.772	0.27	Win2	0.6	0.002	Yes	2.976	-0.002	2.0	GoodResponse	1	0.191	376.963	2	39	Target	Win	True
377.963	0.3	Win2	0.6	0.002	Yes	2.976	-0.002	2.0	GoodResponse	1	0.191	n/a	2	39	ButtonPress	Win	True
378.056	0.43	Win2	0.6	n/a	Yes	2.976	n/a	n/a	GoodResponse	1	n/a	n/a	2	39	Blank	Win	True
378.472	1.45	Win2	0.6	n/a	Yes	2.976	n/a	5.0	GoodResponse	1	0.04	377.512	2	39	Feedback	Win	True
379.922	2.976	Win2	0.6	n/a	Yes	2.976	n/a	n/a	GoodResponse	1	0.0	n/a	2	39	ISIslide	Win	True
382.921	0.25	Win2	0.6098	0.0	Yes	2.729	0.021	n/a	GoodResponse	1	n/a	n/a	3	40	Cue	Win	True
383.17	3.95	Win2	0.6098	0.001	Yes	2.729	-0.001	n/a	GoodResponse	1	n/a	n/a	3	40	Fixation	Win	True
387.119	0.28	Win2	0.6098	0.002	Yes	2.729	-0.002	2.0	GoodResponse	1	0.19	386.309	3	40	Target	Win	True
387.309	0.3	Win2	0.6098	0.002	Yes	2.729	-0.002	2.0	GoodResponse	1	0.19	n/a	3	40	ButtonPress	Win	True
387.402	0.42	Win2	0.6098	n/a	Yes	2.729	n/a	n/a	GoodResponse	1	n/a	n/a	3	40	Blank	Win	True
387.819	1.45	Win2	0.6098	n/a	Yes	2.729	n/a	5.0	GoodResponse	1	0.01	386.829	3	40	Feedback	Win	True
389.268	2.729	Win2	0.6098	n/a	Yes	2.729	n/a	n/a	GoodResponse	1	0.0	n/a	3	40	ISIslide	Win	True
392.017	0.25	Win2	0.619	0.0	Yes	2.783	0.017	n/a	GoodResponse	1	n/a	n/a	4	41	Cue	Win	True
392.267	3.9	Win2	0.619	0.0	Yes	2.783	0.0	n/a	GoodResponse	1	n/a	n/a	4	41	Fixation	Win	True
396.166	0.29	Win2	0.619	0.001	Yes	2.783	-0.001	2.0	GoodResponse	1	0.197	395.363	4	41	Target	Win	True
396.363	0.3	Win2	0.619	0.001	Yes	2.783	-0.001	2.0	GoodResponse	1	0.197	n/a	4	41	ButtonPress	Win	True
396.466	0.41	Win2	0.619	n/a	Yes	2.783	n/a	n/a	GoodResponse	1	n/a	n/a	4	41	Blank	Win	True
396.866	1.45	Win2	0.619	n/a	Yes	2.783	n/a	5.0	GoodResponse	1	0.036	395.902	4	41	Feedback	Win	True
398.315	2.783	Win2	0.619	n/a	Yes	2.783	n/a	n/a	GoodResponse	1	0.0	n/a	4	41	ISIslide	Win	True
401.114	0.25	Control	0.6279	0.0	Yes	2.936	0.014	n/a	GoodResponse	0	n/a	n/a	4	42	Cue	Neutral	False
401.364	3.85	Control	0.6279	0.0	Yes	2.936	0.0	2.0	GoodResponse	0	3.572	403.936	4	42	Fixation	Neutral	False
404.936	0.3	Control	0.6279	0.0	Yes	2.936	0.0	2.0	GoodResponse	0	3.572	n/a	4	42	ButtonPress	Neutral	False
405.213	0.3	Control	0.6279	0.001	Yes	2.936	-0.001	2.0	GoodResponse	0	0.188	404.401	4	42	Target	Neutral	False
405.401	0.3	Control	0.6279	0.001	Yes	2.936	-0.001	2.0	GoodResponse	0	0.188	n/a	4	42	ButtonPress	Neutral	False
405.513	0.4	Control	0.6279	n/a	Yes	2.936	n/a	n/a	GoodResponse	0	n/a	n/a	4	42	Blank	Neutral	False
405.913	1.45	Control	0.6279	n/a	Yes	2.936	n/a	5.0	GoodResponse	0	0.014	404.927	4	42	Feedback	Neutral	False
407.362	2.936	Control	0.6279	n/a	Yes	2.936	n/a	n/a	GoodResponse	0	0.0	n/a	4	42	ISIslide	Neutral	False
410.328	0.25	Win2	0.6364	0.0	Yes	3.172	0.028	n/a	GoodResponse	1	n/a	n/a	5	43	Cue	Win	False
410.578	4.0	Win2	0.6364	0.0	Yes	3.172	0.0	2.0	GoodResponse	1	3.658	413.236	5	43	Fixation	Win	False
414.236	0.3	Win2	0.6364	0.0	Yes	3.172	0.0	2.0	GoodResponse	1	3.658	n/a	5	43	ButtonPress	Win	False
414.576	0.31	Win2	0.6364	0.002	Yes	3.172	-0.002	2.0	GoodResponse	1	0.189	413.765	5	43	Target	Win	False
414.765	0.3	Win2	0.6364	0.002	Yes	3.172	-0.002	2.0	GoodResponse	1	0.189	n/a	5	43	ButtonPress	Win	False
414.893	0.39	Win2	0.6364	n/a	Yes	3.172	n/a	n/a	GoodResponse	1	n/a	n/a	5	43	Blank	Win	False
415.276	1.45	Win2	0.6364	n/a	Yes	3.172	n/a	5.0	GoodResponse	1	0.017	414.293	5	43	Feedback	Win	False
416.725	3.172	Win2	0.6364	n/a	Yes	3.172	n/a	n/a	GoodResponse	1	0.0	n/a	5	43	ISIslide	Win	False
419.924	0.25	Win2	0.6444	0.0	Yes	2.976	0.024	n/a	GoodResponse	1	n/a	n/a	6	44	Cue	Win	True
420.174	4.0	Win2	0.6444	0.0	Yes	2.976	0.0	n/a	GoodResponse	1	n/a	n/a	6	44	Fixation	Win	True
424.173	0.32	Win2	0.6444	0.001	Yes	2.976	-0.001	2.0	GoodResponse	1	0.226	423.399	6	44	Target	Win	True
424.399	0.3	Win2	0.6444	0.001	Yes	2.976	-0.001	2.0	GoodResponse	1	0.226	n/a	6	44	ButtonPress	Win	True
424.489	0.38	Win2	0.6444	n/a	Yes	2.976	n/a	n/a	GoodResponse	1	n/a	n/a	6	44	Blank	Win	True
424.873	1.45	Win2	0.6444	n/a	Yes	2.976	n/a	5.0	GoodResponse	1	0.029	423.902	6	44	Feedback	Win	True
426.322	2.976	Win2	0.6444	n/a	Yes	2.976	n/a	n/a	GoodResponse	1	0.0	n/a	6	44	ISIslide	Win	True
429.321	0.25	Control	0.6522	0.0	Yes	2.879	0.021	n/a	GoodResponse	0	n/a	n/a	6	45	Cue	Neutral	True
429.571	4.1	Control	0.6522	0.0	Yes	2.879	0.0	n/a	GoodResponse	0	n/a	n/a	6	45	Fixation	Neutral	True
433.669	0.33	Control	0.6522	0.002	Yes	2.879	-0.002	2.0	GoodResponse	0	0.195	432.864	6	45	Target	Neutral	True
433.864	0.3	Control	0.6522	0.002	Yes	2.879	-0.002	2.0	GoodResponse	0	0.195	n/a	6	45	ButtonPress	Neutral	True
434.003	0.37	Control	0.6522	n/a	Yes	2.879	n/a	n/a	GoodResponse	0	n/a	n/a	6	45	Blank	Neutral	True
434.369	1.45	Control	0.6522	n/a	Yes	2.879	n/a	5.0	GoodResponse	0	0.045	433.414	6	45	Feedback	Neutral	True
435.819	2.879	Control	0.6522	n/a	Yes	2.879	n/a	n/a	GoodResponse	0	0.0	n/a	6	45	ISIslide	Neutral	True
438.718	0.25	Lose2	0.6596	0.0	Yes	3.382	0.018	n/a	GoodResponse	0	n/a	n/a	6	46	Cue	AvoidedLoss	True
438.968	4.0	Lose2	0.6596	0.0	Yes	3.382	0.0	n/a	GoodResponse	0	n/a	n/a	6	46	Fixation	AvoidedLoss	True
442.966	0.34	Lose2	0.6596	0.002	Yes	3.382	-0.002	2.0	GoodResponse	0	0.185	442.151	6	46	Target	AvoidedLoss	True
443.151	0.3	Lose2	0.6596	0.002	Yes	3.382	-0.002	2.0	GoodResponse	0	0.185	n/a	6	46	ButtonPress	AvoidedLoss	True
443.316	0.36	Lose2	0.6596	n/a	Yes	3.382	n/a	n/a	GoodResponse	0	n/a	n/a	6	46	Blank	AvoidedLoss	True
443.666	1.45	Lose2	0.6596	n/a	Yes	3.382	n/a	5.0	GoodResponse	0	0.016	442.682	6	46	Feedback	AvoidedLoss	True
445.115	3.382	Lose2	0.6596	n/a	Yes	3.382	n/a	n/a	GoodResponse	0	0.0	n/a	6	46	ISIslide	AvoidedLoss	True
448.514	0.25	Lose2	0.6667000000000001	0.0	Yes	2.686	0.014	n/a	GoodResponse	0	n/a	n/a	6	47	Cue	AvoidedLoss	True
448.764	4.0	Lose2	0.6667000000000001	0.0	Yes	2.686	0.0	n/a	GoodResponse	0	n/a	n/a	6	47	Fixation	AvoidedLoss	True
452.763	0.34	Lose2	0.6667000000000001	0.001	Yes	2.686	-0.001	2.0	GoodResponse	0	0.16	451.923	6	47	Target	AvoidedLoss	True
452.923	0.3	Lose2	0.6667000000000001	0.001	Yes	2.686	-0.001	2.0	GoodResponse	0	0.16	n/a	6	47	ButtonPress	AvoidedLoss	True
453.113	0.36	Lose2	0.6667000000000001	n/a	Yes	2.686	n/a	n/a	GoodResponse	0	n/a	n/a	6	47	Blank	AvoidedLoss	True
453.463	1.45	Lose2	0.6667000000000001	n/a	Yes	2.686	n/a	5.0	GoodResponse	0	0.024	452.487	6	47	Feedback	AvoidedLoss	True
454.912	2.686	Lose2	0.6667000000000001	n/a	Yes	2.686	n/a	n/a	GoodResponse	0	0.0	n/a	6	47	ISIslide	AvoidedLoss	True
457.628	0.25	Lose2	0.6735	0.0	Yes	3.022	0.028	n/a	GoodResponse	0	n/a	n/a	6	48	Cue	AvoidedLoss	True
457.878	3.95	Lose2	0.6735	0.0	Yes	3.022	0.0	n/a	GoodResponse	0	n/a	n/a	6	48	Fixation	AvoidedLoss	True
461.826	0.33	Lose2	0.6735	0.002	Yes	3.022	-0.002	2.0	GoodResponse	0	0.233	461.059	6	48	Target	AvoidedLoss	True
462.059	0.3	Lose2	0.6735	0.002	Yes	3.022	-0.002	2.0	GoodResponse	0	0.233	n/a	6	48	ButtonPress	AvoidedLoss	True
462.16	0.37	Lose2	0.6735	n/a	Yes	3.022	n/a	n/a	GoodResponse	0	n/a	n/a	6	48	Blank	AvoidedLoss	True
462.526	1.45	Lose2	0.6735	n/a	Yes	3.022	n/a	5.0	GoodResponse	0	0.035	461.561	6	48	Feedback	AvoidedLoss	True
463.976	3.022	Lose2	0.6735	n/a	Yes	3.022	n/a	n/a	GoodResponse	0	0.0	n/a	6	48	ISIslide	AvoidedLoss	True
467.025	0.25	Control	0.66	0.0	No	2.875	0.025	n/a	NoResponse	0	n/a	n/a	6	49	Cue	Neutral	True
467.274	4.0	Control	0.66	0.001	No	2.875	-0.001	n/a	NoResponse	0	n/a	n/a	6	49	Fixation	Neutral	True
471.273	0.32	Control	0.66	0.002	No	2.875	-0.002	2.0	NoResponse	0	0.459	470.732	6	49	Target	Neutral	True
471.606	0.38	Control	0.66	n/a	No	2.875	n/a	n/a	NoResponse	0	n/a	n/a	6	49	Blank	Neutral	True
471.732	0.3	Control	0.66	0.002	No	2.875	-0.002	2.0	NoResponse	0	0.459	n/a	6	49	ButtonPress	Neutral	True
471.973	1.45	Control	0.66	n/a	No	2.875	n/a	5.0	NoResponse	0	0.001	470.974	6	49	Feedback	Neutral	True
473.422	2.875	Control	0.66	n/a	No	2.875	n/a	n/a	NoResponse	0	0.0	n/a	6	49	ISIslide	Neutral	True
476.321	0.25	Control	0.6667000000000001	0.0	Yes	2.779	0.021	n/a	GoodResponse	0	n/a	n/a	6	50	Cue	Neutral	True
476.571	4.0	Control	0.6667000000000001	0.0	Yes	2.779	0.0	n/a	GoodResponse	0	n/a	n/a	6	50	Fixation	Neutral	True
480.57	0.32	Control	0.6667000000000001	0.001	Yes	2.779	-0.001	2.0	GoodResponse	0	0.203	479.773	6	50	Target	Neutral	True
480.773	0.3	Control	0.6667000000000001	0.001	Yes	2.779	-0.001	2.0	GoodResponse	0	0.203	n/a	6	50	ButtonPress	Neutral	True
480.903	0.38	Control	0.6667000000000001	n/a	Yes	2.779	n/a	n/a	GoodResponse	0	n/a	n/a	6	50	Blank	Neutral	True
481.27	1.45	Control	0.6667000000000001	n/a	Yes	2.779	n/a	5.0	GoodResponse	0	0.022	480.292	6	50	Feedback	Neutral	True
482.719	2.779	Control	0.6667000000000001	n/a	Yes	2.779	n/a	n/a	GoodResponse	0	0.0	n/a	6	50	ISIslide	Neutral	True
485.518	0.25	Control	0.6731	0.0	Yes	2.732	0.018	n/a	GoodResponse	0	n/a	n/a	6	51	Cue	Neutral	True
485.768	3.95	Control	0.6731	0.0	Yes	2.732	0.0	n/a	GoodResponse	0	n/a	n/a	6	51	Fixation	Neutral	True
489.717	0.31	Control	0.6731	0.001	Yes	2.732	-0.001	2.0	GoodResponse	0	0.133	488.85	6	51	Target	Neutral	True
489.85	0.3	Control	0.6731	0.001	Yes	2.732	-0.001	2.0	GoodResponse	0	0.133	n/a	6	51	ButtonPress	Neutral	True
490.033	0.39	Control	0.6731	n/a	Yes	2.732	n/a	n/a	GoodResponse	0	n/a	n/a	6	51	Blank	Neutral	True
490.416	1.45	Control	0.6731	n/a	Yes	2.732	n/a	5.0	GoodResponse	0	0.046	489.462	6	51	Feedback	Neutral	True
491.866	2.732	Control	0.6731	n/a	Yes	2.732	n/a	n/a	GoodResponse	0	0.0	n/a	6	51	ISIslide	Neutral	True
494.615	0.25	Control	0.6792	0.0	Yes	2.635	0.015	n/a	GoodResponse	0	n/a	n/a	6	52	Cue	Neutral	True
494.865	4.05	Control	0.6792	0.0	Yes	2.635	0.0	n/a	GoodResponse	0	n/a	n/a	6	52	Fixation	Neutral	True
498.913	0.3	Control	0.6792	0.002	Yes	2.635	-0.002	2.0	GoodResponse	0	0.197	498.11	6	52	Target	Neutral	True
499.11	0.3	Control	0.6792	0.002	Yes	2.635	-0.002	2.0	GoodResponse	0	0.197	n/a	6	52	ButtonPress	Neutral	True
499.213	0.4	Control	0.6792	n/a	Yes	2.635	n/a	n/a	GoodResponse	0	n/a	n/a	6	52	Blank	Neutral	True
499.613	1.45	Control	0.6792	n/a	Yes	2.635	n/a	5.0	GoodResponse	0	0.02	498.633	6	52	Feedback	Neutral	True
501.063	2.635	Control	0.6792	n/a	Yes	2.635	n/a	n/a	GoodResponse	0	0.0	n/a	6	52	ISIslide	Neutral	True
503.728	0.25	Win2	0.6851999999999999	0.0	Yes	2.922	0.028	n/a	GoodResponse	1	n/a	n/a	7	53	Cue	Win	True
503.978	4.05	Win2	0.6851999999999999	0.0	Yes	2.922	0.0	n/a	GoodResponse	1	n/a	n/a	7	53	Fixation	Win	True
508.027	0.29	Win2	0.6851999999999999	0.001	Yes	2.922	-0.001	2.0	GoodResponse	1	0.16	507.187	7	53	Target	Win	True
508.187	0.3	Win2	0.6851999999999999	0.001	Yes	2.922	-0.001	2.0	GoodResponse	1	0.16	n/a	7	53	ButtonPress	Win	True
508.327	0.41	Win2	0.6851999999999999	n/a	Yes	2.922	n/a	n/a	GoodResponse	1	n/a	n/a	7	53	Blank	Win	True
508.727	1.45	Win2	0.6851999999999999	n/a	Yes	2.922	n/a	5.0	GoodResponse	1	0.028	507.755	7	53	Feedback	Win	True
510.176	2.922	Win2	0.6851999999999999	n/a	Yes	2.922	n/a	n/a	GoodResponse	1	0.0	n/a	7	53	ISIslide	Win	True
513.125	0.25	Win2	0.6909000000000001	0.0	Yes	2.725	0.025	n/a	GoodResponse	1	n/a	n/a	8	54	Cue	Win	True
513.375	3.95	Win2	0.6909000000000001	0.0	Yes	2.725	0.0	n/a	GoodResponse	1	n/a	n/a	8	54	Fixation	Win	True
517.324	0.28	Win2	0.6909000000000001	0.001	Yes	2.725	-0.001	2.0	GoodResponse	1	0.196	516.52	8	54	Target	Win	True
517.52	0.3	Win2	0.6909000000000001	0.001	Yes	2.725	-0.001	2.0	GoodResponse	1	0.196	n/a	8	54	ButtonPress	Win	True
517.607	0.42	Win2	0.6909000000000001	n/a	Yes	2.725	n/a	n/a	GoodResponse	1	n/a	n/a	8	54	Blank	Win	True
518.023	1.45	Win2	0.6909000000000001	n/a	Yes	2.725	n/a	5.0	GoodResponse	1	0.001	517.024	8	54	Feedback	Win	True
519.473	2.725	Win2	0.6909000000000001	n/a	Yes	2.725	n/a	n/a	GoodResponse	1	0.0	n/a	8	54	ISIslide	Win	True
522.222	0.25	Control	0.6786	0.0	No	3.028	0.022	n/a	NoResponse	0	n/a	n/a	8	55	Cue	Neutral	True
522.472	3.95	Control	0.6786	0.0	No	3.028	0.0	2.0	NoResponse	0	3.881	525.353	8	55	Fixation	Neutral	True
526.353	0.3	Control	0.6786	0.0	No	3.028	0.0	2.0	NoResponse	0	3.881	n/a	8	55	ButtonPress	Neutral	True
526.42	0.27	Control	0.6786	0.002	No	3.028	-0.002	n/a	NoResponse	0	n/a	n/a	8	55	Target	Neutral	True
526.704	0.43	Control	0.6786	n/a	No	3.028	n/a	n/a	NoResponse	0	n/a	n/a	8	55	Blank	Neutral	True
527.12	1.45	Control	0.6786	n/a	No	3.028	n/a	5.0	NoResponse	0	0.025	526.145	8	55	Feedback	Neutral	True
528.57	3.028	Control	0.6786	n/a	No	3.028	n/a	n/a	NoResponse	0	0.0	n/a	8	55	ISIslide	Neutral	True
531.619	0.25	Control	0.6667000000000001	0.0	No	2.831	0.019	n/a	NoResponse	0	n/a	n/a	8	56	Cue	Neutral	False
531.869	3.95	Control	0.6667000000000001	0.0	No	2.831	0.0	n/a	NoResponse	0	n/a	n/a	8	56	Fixation	Neutral	False
535.817	0.26	Control	0.6667000000000001	0.002	No	2.831	-0.002	n/a	NoResponse	0	n/a	n/a	8	56	Target	Neutral	False
536.084	0.44	Control	0.6667000000000001	n/a	No	2.831	n/a	n/a	NoResponse	0	n/a	n/a	8	56	Blank	Neutral	False
536.517	1.45	Control	0.6667000000000001	n/a	No	2.831	n/a	5.0	NoResponse	0	0.043	535.56	8	56	Feedback	Neutral	False
537.966	2.831	Control	0.6667000000000001	n/a	No	2.831	n/a	n/a	NoResponse	0	0.0	n/a	8	56	ISIslide	Neutral	False
540.815	0.25	Control	0.6724	0.001	Yes	3.485	0.015	n/a	GoodResponse	0	n/a	n/a	8	57	Cue	Neutral	True
541.065	4.0	Control	0.6724	0.0	Yes	3.485	0.0	n/a	GoodResponse	0	n/a	n/a	8	57	Fixation	Neutral	True
545.064	0.25	Control	0.6724	0.001	Yes	3.485	-0.001	2.0	GoodResponse	0	0.193	544.257	8	57	Target	Neutral	True
545.257	0.3	Control	0.6724	0.001	Yes	3.485	-0.001	2.0	GoodResponse	0	0.193	n/a	8	57	ButtonPress	Neutral	True
545.314	0.45	Control	0.6724	n/a	Yes	3.485	n/a	n/a	GoodResponse	0	n/a	n/a	8	57	Blank	Neutral	True
545.764	1.45	Control	0.6724	n/a	Yes	3.485	n/a	5.0	GoodResponse	0	0.015	544.779	8	57	Feedback	Neutral	True
547.213	3.485	Control	0.6724	n/a	Yes	3.485	n/a	n/a	GoodResponse	0	0.0	n/a	8	57	ISIslide	Neutral	True
550.712	0.25	Win2	0.6779999999999999	0.0	Yes	2.738	0.012	n/a	GoodResponse	1	n/a	n/a	9	58	Cue	Win	False
550.962	4.05	Win2	0.6779999999999999	0.0	Yes	2.738	0.0	2.0	GoodResponse	1	0.202	550.164	9	58	Fixation	Win	False
551.164	0.3	Win2	0.6779999999999999	0.0	Yes	2.738	0.0	2.0	GoodResponse	1	0.202	n/a	9	58	ButtonPress	Win	False
555.01	0.24	Win2	0.6779999999999999	0.002	Yes	2.738	-0.002	2.0	GoodResponse	1	0.215	554.225	9	58	Target	Win	False
555.225	0.3	Win2	0.6779999999999999	0.002	Yes	2.738	-0.002	2.0	GoodResponse	1	0.215	n/a	9	58	ButtonPress	Win	False
555.26	0.46	Win2	0.6779999999999999	n/a	Yes	2.738	n/a	n/a	GoodResponse	1	n/a	n/a	9	58	Blank	Win	False
555.71	1.45	Win2	0.6779999999999999	n/a	Yes	2.738	n/a	5.0	GoodResponse	1	0.021	554.731	9	58	Feedback	Win	False
557.16	2.738	Win2	0.6779999999999999	n/a	Yes	2.738	n/a	n/a	GoodResponse	1	0.0	n/a	9	58	ISIslide	Win	False
559.925	0.25	Lose2	0.6833	0.001	Yes	2.675	0.025	n/a	GoodResponse	0	n/a	n/a	9	59	Cue	AvoidedLoss	True
560.175	4.0	Lose2	0.6833	0.0	Yes	2.675	0.0	n/a	GoodResponse	0	n/a	n/a	9	59	Fixation	AvoidedLoss	True
564.174	0.23	Lose2	0.6833	0.001	Yes	2.675	-0.001	2.0	GoodResponse	0	0.18	563.354	9	59	Target	AvoidedLoss	True
564.354	0.3	Lose2	0.6833	0.001	Yes	2.675	-0.001	2.0	GoodResponse	0	0.18	n/a	9	59	ButtonPress	AvoidedLoss	True
564.407	0.47	Lose2	0.6833	n/a	Yes	2.675	n/a	n/a	GoodResponse	0	n/a	n/a	9	59	Blank	AvoidedLoss	True
564.874	1.45	Lose2	0.6833	n/a	Yes	2.675	n/a	5.0	GoodResponse	0	0.027	563.901	9	59	Feedback	AvoidedLoss	True
566.323	2.675	Lose2	0.6833	n/a	Yes	2.675	n/a	n/a	GoodResponse	0	0.0	n/a	9	59	ISIslide	AvoidedLoss	True
569.022	0.25	Control	0.6720999999999999	0.0	No	2.678	0.022	n/a	NoResponse	0	n/a	n/a	9	60	Cue	Neutral	True
569.272	4.0	Control	0.6720999999999999	0.0	No	2.678	0.0	n/a	NoResponse	0	n/a	n/a	9	60	Fixation	Neutral	True
573.271	0.22	Control	0.6720999999999999	0.001	No	2.678	-0.001	2.0	NoResponse	0	0.228	572.499	9	60	Target	Neutral	True
573.487	0.48	Control	0.6720999999999999	n/a	No	2.678	n/a	n/a	NoResponse	0	n/a	n/a	9	60	Blank	Neutral	True
573.499	0.3	Control	0.6720999999999999	0.001	No	2.678	-0.001	2.0	NoResponse	0	0.228	n/a	9	60	ButtonPress	Neutral	True
573.971	1.45	Control	0.6720999999999999	n/a	No	2.678	n/a	5.0	NoResponse	0	0.004	572.975	9	60	Feedback	Neutral	True
575.42	2.678	Control	0.6720999999999999	n/a	No	2.678	n/a	n/a	NoResponse	0	0.0	n/a	9	60	ISIslide	Neutral	True
578.119	0.25	Lose2	0.6613	0.0	No	2.981	0.019	n/a	NoResponse	-1	n/a	n/a	8	61	Cue	Loss	True
578.369	4.0	Lose2	0.6613	0.0	No	2.981	0.0	2.0	NoResponse	-1	3.522	580.891	8	61	Fixation	Loss	True
581.891	0.3	Lose2	0.6613	0.0	No	2.981	0.0	2.0	NoResponse	-1	3.522	n/a	8	61	ButtonPress	Loss	True
582.368	0.21	Lose2	0.6613	0.001	No	2.981	-0.001	n/a	NoResponse	-1	n/a	n/a	8	61	Target	Loss	True
582.584	0.49	Lose2	0.6613	n/a	No	2.981	n/a	n/a	NoResponse	-1	n/a	n/a	8	61	Blank	Loss	True
583.067	1.45	Lose2	0.6613	n/a	No	2.981	n/a	5.0	NoResponse	-1	0.029	582.096	8	61	Feedback	Loss	True
584.517	2.981	Lose2	0.6613	n/a	No	2.981	n/a	n/a	NoResponse	-1	0.0	n/a	8	61	ISIslide	Loss	True
587.516	0.25	Lose2	0.6667000000000001	0.0	Yes	2.884	0.016	n/a	GoodResponse	0	n/a	n/a	8	62	Cue	AvoidedLoss	True
587.766	3.9	Lose2	0.6667000000000001	0.0	Yes	2.884	0.0	n/a	GoodResponse	0	n/a	n/a	8	62	Fixation	AvoidedLoss	True
591.664	0.21	Lose2	0.6667000000000001	0.002	Yes	2.884	-0.002	2.0	GoodResponse	0	0.177	590.841	8	62	Target	AvoidedLoss	True
591.841	0.3	Lose2	0.6667000000000001	0.002	Yes	2.884	-0.002	2.0	GoodResponse	0	0.177	n/a	8	62	ButtonPress	AvoidedLoss	True
591.881	0.49	Lose2	0.6667000000000001	n/a	Yes	2.884	n/a	n/a	GoodResponse	0	n/a	n/a	8	62	Blank	AvoidedLoss	True
592.364	1.45	Lose2	0.6667000000000001	n/a	Yes	2.884	n/a	5.0	GoodResponse	0	0.049	591.413	8	62	Feedback	AvoidedLoss	True
593.814	2.884	Lose2	0.6667000000000001	n/a	Yes	2.884	n/a	n/a	GoodResponse	0	0.0	n/a	8	62	ISIslide	AvoidedLoss	True
596.713	0.25	Lose2	0.6718999999999999	0.0	Yes	2.637	0.013	n/a	GoodResponse	0	n/a	n/a	8	63	Cue	AvoidedLoss	True
596.963	4.05	Lose2	0.6718999999999999	0.0	Yes	2.637	0.0	n/a	GoodResponse	0	n/a	n/a	8	63	Fixation	AvoidedLoss	True
601.011	0.2	Lose2	0.6718999999999999	0.002	Yes	2.637	-0.002	2.0	GoodResponse	0	0.19	600.201	8	63	Target	AvoidedLoss	True
601.201	0.3	Lose2	0.6718999999999999	0.002	Yes	2.637	-0.002	2.0	GoodResponse	0	0.19	n/a	8	63	ButtonPress	AvoidedLoss	True
601.211	0.5	Lose2	0.6718999999999999	n/a	Yes	2.637	n/a	n/a	GoodResponse	0	n/a	n/a	8	63	Blank	AvoidedLoss	True
601.711	1.45	Lose2	0.6718999999999999	n/a	Yes	2.637	n/a	5.0	GoodResponse	0	0.019	600.73	8	63	Feedback	AvoidedLoss	True
603.16	2.637	Lose2	0.6718999999999999	n/a	Yes	2.637	n/a	n/a	GoodResponse	0	0.0	n/a	8	63	ISIslide	AvoidedLoss	True
605.826	0.25	Win2	0.6769	0.0	Yes	3.124	0.026	n/a	GoodResponse	1	n/a	n/a	9	64	Cue	Win	False
606.076	4.15	Win2	0.6769	0.0	Yes	3.124	0.0	2.0	GoodResponse	1	3.64	608.716	9	64	Fixation	Win	False
609.716	0.3	Win2	0.6769	0.0	Yes	3.124	0.0	2.0	GoodResponse	1	3.64	n/a	9	64	ButtonPress	Win	False
610.225	0.19	Win2	0.6769	0.001	Yes	3.124	-0.001	2.0	GoodResponse	1	0.104	609.329	9	64	Target	Win	False
610.329	0.3	Win2	0.6769	0.001	Yes	3.124	-0.001	2.0	GoodResponse	1	0.104	n/a	9	64	ButtonPress	Win	False
610.424	0.51	Win2	0.6769	n/a	Yes	3.124	n/a	n/a	GoodResponse	1	n/a	n/a	9	64	Blank	Win	False
610.924	1.45	Win2	0.6769	n/a	Yes	3.124	n/a	5.0	GoodResponse	1	0.026	609.95	9	64	Feedback	Win	False
612.374	3.124	Win2	0.6769	n/a	Yes	3.124	n/a	n/a	GoodResponse	1	0.0	n/a	9	64	ISIslide	Win	False
615.523	0.25	Control	0.6667000000000001	0.0	No	2.777	0.023	n/a	NoResponse	0	n/a	n/a	9	65	Cue	Neutral	False
615.773	4.0	Control	0.6667000000000001	0.0	No	2.777	0.0	n/a	NoResponse	0	n/a	n/a	9	65	Fixation	Neutral	False
619.771	0.18	Control	0.6667000000000001	0.002	No	2.777	-0.002	n/a	NoResponse	0	n/a	n/a	9	65	Target	Neutral	False
619.955	0.52	Control	0.6667000000000001	n/a	No	2.777	n/a	n/a	NoResponse	0	n/a	n/a	9	65	Blank	Neutral	False
620.471	1.45	Control	0.6667000000000001	n/a	No	2.777	n/a	5.0	NoResponse	0	0.039	619.51	9	65	Feedback	Neutral	False
621.92	2.777	Control	0.6667000000000001	n/a	No	2.777	n/a	n/a	NoResponse	0	0.0	n/a	9	65	ISIslide	Neutral	False
624.72	0.25	Win2	0.6567000000000001	0.0	No	2.78	0.02	n/a	NoResponse	0	n/a	n/a	9	66	Cue	MissedWin	True
624.969	3.9	Win2	0.6567000000000001	0.001	No	2.78	-0.001	n/a	NoResponse	0	n/a	n/a	9	66	Fixation	MissedWin	True
628.868	0.17	Win2	0.6567000000000001	0.002	No	2.78	-0.002	2.0	NoResponse	0	0.227	628.095	9	66	Target	MissedWin	True
629.051	0.53	Win2	0.6567000000000001	n/a	No	2.78	n/a	n/a	NoResponse	0	n/a	n/a	9	66	Blank	MissedWin	True
629.095	0.3	Win2	0.6567000000000001	0.002	No	2.78	-0.002	2.0	NoResponse	0	0.227	n/a	9	66	ButtonPress	MissedWin	True
629.568	1.45	Win2	0.6567000000000001	n/a	No	2.78	n/a	5.0	NoResponse	0	0.015	628.583	9	66	Feedback	MissedWin	True
631.017	2.78	Win2	0.6567000000000001	n/a	No	2.78	n/a	n/a	NoResponse	0	0.0	n/a	9	66	ISIslide	MissedWin	True
633.816	0.25	Control	0.6470999999999999	0.0	No	2.734	0.016	n/a	NoResponse	0	n/a	n/a	9	67	Cue	Neutral	True
634.066	3.95	Control	0.6470999999999999	0.0	No	2.734	0.0	n/a	NoResponse	0	n/a	n/a	9	67	Fixation	Neutral	True
638.015	0.17	Control	0.6470999999999999	0.001	No	2.734	-0.001	2.0	NoResponse	0	0.193	637.208	9	67	Target	Neutral	True
638.181	0.53	Control	0.6470999999999999	n/a	No	2.734	n/a	n/a	NoResponse	0	n/a	n/a	9	67	Blank	Neutral	True
638.208	0.3	Control	0.6470999999999999	0.001	No	2.734	-0.001	2.0	NoResponse	0	0.193	n/a	9	67	ButtonPress	Neutral	True
638.715	1.45	Control	0.6470999999999999	n/a	No	2.734	n/a	5.0	NoResponse	0	0.039	637.754	9	67	Feedback	Neutral	True
640.164	2.734	Control	0.6470999999999999	n/a	No	2.734	n/a	n/a	NoResponse	0	0.0	n/a	9	67	ISIslide	Neutral	True
642.913	0.25	Win2	0.6522	0.0	Yes	3.087	0.013	n/a	GoodResponse	1	n/a	n/a	10	68	Cue	Win	True
643.163	4.0	Win2	0.6522	0.0	Yes	3.087	0.0	n/a	GoodResponse	1	n/a	n/a	10	68	Fixation	Win	True
647.162	0.18	Win2	0.6522	0.001	Yes	3.087	-0.001	2.0	GoodResponse	1	0.164	646.326	10	68	Target	Win	True
647.326	0.3	Win2	0.6522	0.001	Yes	3.087	-0.001	2.0	GoodResponse	1	0.164	n/a	10	68	ButtonPress	Win	True
647.345	0.52	Win2	0.6522	n/a	Yes	3.087	n/a	n/a	GoodResponse	1	n/a	n/a	10	68	Blank	Win	True
647.861	1.45	Win2	0.6522	n/a	Yes	3.087	n/a	5.0	GoodResponse	1	0.015	646.876	10	68	Feedback	Win	True
649.311	3.087	Win2	0.6522	n/a	Yes	3.087	n/a	n/a	GoodResponse	1	0.0	n/a	10	68	ISIslide	Win	True
652.427	0.25	Win2	0.6570999999999999	0.0	Yes	3.223	0.027	n/a	GoodResponse	1	n/a	n/a	11	69	Cue	Win	True
652.676	3.95	Win2	0.6570999999999999	0.001	Yes	3.223	-0.001	n/a	GoodResponse	1	n/a	n/a	11	69	Fixation	Win	True
656.625	0.19	Win2	0.6570999999999999	0.002	Yes	3.223	-0.002	2.0	GoodResponse	1	0.185	655.81	11	69	Target	Win	True
656.81	0.3	Win2	0.6570999999999999	0.002	Yes	3.223	-0.002	2.0	GoodResponse	1	0.185	n/a	11	69	ButtonPress	Win	True
656.825	0.51	Win2	0.6570999999999999	n/a	Yes	3.223	n/a	n/a	GoodResponse	1	n/a	n/a	11	69	Blank	Win	True
657.325	1.45	Win2	0.6570999999999999	n/a	Yes	3.223	n/a	5.0	GoodResponse	1	0.015	656.34	11	69	Feedback	Win	True
658.774	3.223	Win2	0.6570999999999999	n/a	Yes	3.223	n/a	n/a	GoodResponse	1	0.0	n/a	11	69	ISIslide	Win	True
662.023	0.25	Lose2	0.6479	0.0	No	3.027	0.023	n/a	LatePress	-1	n/a	n/a	10	70	Cue	Loss	True
662.273	4.05	Lose2	0.6479	0.0	No	3.027	0.0	n/a	LatePress	-1	n/a	n/a	10	70	Fixation	Loss	True
666.322	0.19	Lose2	0.6479	0.001	No	3.027	-0.001	2.0	LatePress	-1	0.193	665.515	10	70	Target	Loss	True
666.515	0.3	Lose2	0.6479	0.001	No	3.027	-0.001	2.0	LatePress	-1	0.193	n/a	10	70	ButtonPress	Loss	True
666.522	0.51	Lose2	0.6479	n/a	No	3.027	n/a	n/a	LatePress	-1	n/a	n/a	10	70	Blank	Loss	True
667.021	1.45	Lose2	0.6479	n/a	No	3.027	n/a	5.0	LatePress	-1	0.026	666.047	10	70	Feedback	Loss	True
668.471	3.027	Lose2	0.6479	n/a	No	3.027	n/a	n/a	LatePress	-1	0.0	n/a	10	70	ISIslide	Loss	True
671.52	0.25	Win2	0.6528	0.0	Yes	2.73	0.02	n/a	GoodResponse	1	n/a	n/a	11	71	Cue	Win	True
671.77	4.05	Win2	0.6528	0.0	Yes	2.73	0.0	n/a	GoodResponse	1	n/a	n/a	11	71	Fixation	Win	True
675.818	0.2	Win2	0.6528	0.002	Yes	2.73	-0.002	2.0	GoodResponse	1	0.178	674.996	11	71	Target	Win	True
675.996	0.3	Win2	0.6528	0.002	Yes	2.73	-0.002	2.0	GoodResponse	1	0.178	n/a	11	71	ButtonPress	Win	True
676.018	0.5	Win2	0.6528	n/a	Yes	2.73	n/a	n/a	GoodResponse	1	n/a	n/a	11	71	Blank	Win	True
676.518	1.45	Win2	0.6528	n/a	Yes	2.73	n/a	5.0	GoodResponse	1	0.041	675.559	11	71	Feedback	Win	True
677.968	2.73	Win2	0.6528	n/a	Yes	2.73	n/a	n/a	GoodResponse	1	0.0	n/a	11	71	ISIslide	Win	True
680.717	0.25	Win2	0.6437999999999999	0.0	No	2.783	0.017	n/a	NoResponse	0	n/a	n/a	11	72	Cue	MissedWin	True
680.967	4.1	Win2	0.6437999999999999	0.0	No	2.783	0.0	2.0	NoResponse	0	3.628	683.595	11	72	Fixation	MissedWin	True
684.595	0.3	Win2	0.6437999999999999	0.0	No	2.783	0.0	2.0	NoResponse	0	3.628	n/a	11	72	ButtonPress	MissedWin	True
685.065	0.21	Win2	0.6437999999999999	0.002	No	2.783	-0.002	n/a	NoResponse	0	n/a	n/a	11	72	Target	MissedWin	True
685.282	0.49	Win2	0.6437999999999999	n/a	No	2.783	n/a	n/a	NoResponse	0	n/a	n/a	11	72	Blank	MissedWin	True
685.765	1.45	Win2	0.6437999999999999	n/a	No	2.783	n/a	5.0	NoResponse	0	0.013	684.778	11	72	Feedback	MissedWin	True
687.214	2.783	Win2	0.6437999999999999	n/a	No	2.783	n/a	n/a	NoResponse	0	0.0	n/a	11	72	ISIslide	MissedWin	True
690.013	0.25	Win2	0.6486	0.0	Yes	2.687	0.013	n/a	GoodResponse	1	n/a	n/a	12	73	Cue	Win	True
690.263	4.0	Win2	0.6486	0.0	Yes	2.687	0.0	n/a	GoodResponse	1	n/a	n/a	12	73	Fixation	Win	True
694.262	0.22	Win2	0.6486	0.001	Yes	2.687	-0.001	2.0	GoodResponse	1	0.192	693.454	12	73	Target	Win	True
694.454	0.3	Win2	0.6486	0.001	Yes	2.687	-0.001	2.0	GoodResponse	1	0.192	n/a	12	73	ButtonPress	Win	True
694.479	0.48	Win2	0.6486	n/a	Yes	2.687	n/a	n/a	GoodResponse	1	n/a	n/a	12	73	Blank	Win	True
694.962	1.45	Win2	0.6486	n/a	Yes	2.687	n/a	5.0	GoodResponse	1	0.036	693.998	12	73	Feedback	Win	True
696.411	2.687	Win2	0.6486	n/a	Yes	2.687	n/a	n/a	GoodResponse	1	0.0	n/a	12	73	ISIslide	Win	True
699.127	0.25	Lose2	0.6533	0.0	Yes	2.623	0.027	n/a	GoodResponse	0	n/a	n/a	12	74	Cue	AvoidedLoss	True
699.377	4.05	Lose2	0.6533	0.0	Yes	2.623	0.0	n/a	GoodResponse	0	n/a	n/a	12	74	Fixation	AvoidedLoss	True
703.425	0.23	Lose2	0.6533	0.002	Yes	2.623	-0.002	2.0	GoodResponse	0	0.181	702.606	12	74	Target	AvoidedLoss	True
703.606	0.3	Lose2	0.6533	0.002	Yes	2.623	-0.002	2.0	GoodResponse	0	0.181	n/a	12	74	ButtonPress	AvoidedLoss	True
703.659	0.47	Lose2	0.6533	n/a	Yes	2.623	n/a	n/a	GoodResponse	0	n/a	n/a	12	74	Blank	AvoidedLoss	True
704.125	1.45	Lose2	0.6533	n/a	Yes	2.623	n/a	5.0	GoodResponse	0	0.044	703.169	12	74	Feedback	AvoidedLoss	True
705.575	2.623	Lose2	0.6533	n/a	Yes	2.623	n/a	n/a	GoodResponse	0	0.0	n/a	12	74	ISIslide	AvoidedLoss	True
708.224	0.25	Lose2	0.6446999999999999	0.0	No	2.926	0.024	n/a	NoResponse	-1	n/a	n/a	11	75	Cue	Loss	True
708.474	3.95	Lose2	0.6446999999999999	0.0	No	2.926	0.0	2.0	NoResponse	-1	3.371	710.845	11	75	Fixation	Loss	True
711.845	0.3	Lose2	0.6446999999999999	0.0	No	2.926	0.0	2.0	NoResponse	-1	3.371	n/a	11	75	ButtonPress	Loss	True
712.422	0.24	Lose2	0.6446999999999999	0.002	No	2.926	-0.002	n/a	NoResponse	-1	n/a	n/a	11	75	Target	Loss	True
712.672	0.46	Lose2	0.6446999999999999	n/a	No	2.926	n/a	n/a	NoResponse	-1	n/a	n/a	11	75	Blank	Loss	True
713.122	1.45	Lose2	0.6446999999999999	n/a	No	2.926	n/a	5.0	NoResponse	-1	0.022	712.144	11	75	Feedback	Loss	True
714.571	2.926	Lose2	0.6446999999999999	n/a	No	2.926	n/a	n/a	NoResponse	-1	0.0	n/a	11	75	ISIslide	Loss	True
717.52	0.25	Control	0.6494	0.001	Yes	3.23	0.02	n/a	GoodResponse	0	n/a	n/a	11	76	Cue	Neutral	True
717.77	4.05	Control	0.6494	0.0	Yes	3.23	0.0	n/a	GoodResponse	0	n/a	n/a	11	76	Fixation	Neutral	True
721.819	0.25	Control	0.6494	0.001	Yes	3.23	-0.001	2.0	GoodResponse	0	0.159	720.978	11	76	Target	Neutral	True
721.978	0.3	Control	0.6494	0.001	Yes	3.23	-0.001	2.0	GoodResponse	0	0.159	n/a	11	76	ButtonPress	Neutral	True
722.069	0.45	Control	0.6494	n/a	Yes	3.23	n/a	n/a	GoodResponse	0	n/a	n/a	11	76	Blank	Neutral	True
722.519	1.45	Control	0.6494	n/a	Yes	3.23	n/a	5.0	GoodResponse	0	0.039	721.558	11	76	Feedback	Neutral	True
723.968	3.23	Control	0.6494	n/a	Yes	3.23	n/a	n/a	GoodResponse	0	0.0	n/a	11	76	ISIslide	Neutral	True
727.217	0.25	Lose2	0.6537999999999999	0.0	Yes	2.583	0.017	n/a	GoodResponse	0	n/a	n/a	11	77	Cue	AvoidedLoss	False
727.467	3.95	Lose2	0.6537999999999999	0.0	Yes	2.583	0.0	2.0	GoodResponse	0	3.671	730.138	11	77	Fixation	AvoidedLoss	False
731.138	0.3	Lose2	0.6537999999999999	0.0	Yes	2.583	0.0	2.0	GoodResponse	0	3.671	n/a	11	77	ButtonPress	AvoidedLoss	False
731.416	0.26	Lose2	0.6537999999999999	0.001	Yes	2.583	-0.001	2.0	GoodResponse	0	0.202	730.618	11	77	Target	AvoidedLoss	False
731.618	0.3	Lose2	0.6537999999999999	0.001	Yes	2.583	-0.001	2.0	GoodResponse	0	0.202	n/a	11	77	ButtonPress	AvoidedLoss	False
731.682	0.44	Lose2	0.6537999999999999	n/a	Yes	2.583	n/a	n/a	GoodResponse	0	n/a	n/a	11	77	Blank	AvoidedLoss	False
732.115	1.45	Lose2	0.6537999999999999	n/a	Yes	2.583	n/a	5.0	GoodResponse	0	0.005	731.12	11	77	Feedback	AvoidedLoss	False
733.565	2.583	Lose2	0.6537999999999999	n/a	Yes	2.583	n/a	n/a	GoodResponse	0	0.0	n/a	11	77	ISIslide	AvoidedLoss	False
