onset	duration	cue_type	current_mean_accuracy	duration_error	is_hit	isi_adjusted	onset_delay	response	response_type	reward	rt	rt_time	total_reward	trial_number	trial_phase	trial_type	one_press
11.111	0.25	Control	1.0	0.0	Yes	2.939	0.011	n/a	GoodResponse	0	n/a	n/a	0	0	Cue	Neutral	True
11.361	3.85	Control	1.0	0.0	Yes	2.939	0.0	n/a	GoodResponse	0	n/a	n/a	0	0	Fixation	Neutral	True
15.223	0.4	Control	1.0	0.0	Yes	2.939	0.012	2.0	GoodResponse	0	0.171	14.394	0	0	Target	Neutral	True
15.394	0.3	Control	1.0	0.0	Yes	2.939	0.012	2.0	GoodResponse	0	0.171	n/a	0	0	ButtonPress	Neutral	True
15.607	0.3	Control	1.0	n/a	Yes	2.939	n/a	n/a	GoodResponse	0	n/a	n/a	0	0	Blank	Neutral	True
15.908	1.45	Control	1.0	n/a	Yes	2.939	n/a	5.0	GoodResponse	0	0.019	14.927	0	0	Feedback	Neutral	True
17.363	2.939	Control	1.0	n/a	Yes	2.939	n/a	n/a	GoodResponse	0	0.0	n/a	0	0	ISIslide	Neutral	True
20.388	0.25	Lose2	1.0	0.001	Yes	2.712	0.088	n/a	GoodResponse	0	n/a	n/a	0	1	Cue	AvoidedLoss	True
20.639	4.0	Lose2	1.0	0.0	Yes	2.712	0.001	n/a	GoodResponse	0	n/a	n/a	0	1	Fixation	AvoidedLoss	True
24.634	0.39	Lose2	1.0	0.004	Yes	2.712	-0.004	2.0	GoodResponse	0	0.184	23.818	0	1	Target	AvoidedLoss	True
24.818	0.3	Lose2	1.0	0.004	Yes	2.712	-0.004	2.0	GoodResponse	0	0.184	n/a	0	1	ButtonPress	AvoidedLoss	True
25.036	0.31	Lose2	1.0	n/a	Yes	2.712	n/a	n/a	GoodResponse	0	n/a	n/a	0	1	Blank	AvoidedLoss	True
25.336	1.45	Lose2	1.0	n/a	Yes	2.712	n/a	5.0	GoodResponse	0	0.008	24.344	0	1	Feedback	AvoidedLoss	True
26.791	2.712	Lose2	1.0	n/a	Yes	2.712	n/a	n/a	GoodResponse	0	0.0	n/a	0	1	ISIslide	AvoidedLoss	True
29.516	0.25	Control	1.0	0.0	Yes	2.584	0.016	n/a	GoodResponse	0	n/a	n/a	0	2	Cue	Neutral	True
29.766	4.1	Control	1.0	0.0	Yes	2.584	0.0	n/a	GoodResponse	0	n/a	n/a	0	2	Fixation	Neutral	True
33.862	0.38	Control	1.0	0.004	Yes	2.584	-0.004	2.0	GoodResponse	0	0.181	33.043	0	2	Target	Neutral	True
34.043	0.3	Control	1.0	0.004	Yes	2.584	-0.004	2.0	GoodResponse	0	0.181	n/a	0	2	ButtonPress	Neutral	True
34.246	0.32	Control	1.0	n/a	Yes	2.584	n/a	n/a	GoodResponse	0	n/a	n/a	0	2	Blank	Neutral	True
34.564	1.45	Control	1.0	n/a	Yes	2.584	n/a	5.0	GoodResponse	0	0.046	33.61	0	2	Feedback	Neutral	True
36.018	2.584	Control	1.0	n/a	Yes	2.584	n/a	n/a	GoodResponse	0	0.0	n/a	0	2	ISIslide	Neutral	True
38.693	0.25	Win2	1.0	0.0	Yes	2.757	0.093	n/a	GoodResponse	1	n/a	n/a	1	3	Cue	Win	False
38.944	3.95	Win2	1.0	0.0	Yes	2.757	0.001	2.0	GoodResponse	1	3.042	40.986	1	3	Fixation	Win	False
41.986	0.3	Win2	1.0	0.0	Yes	2.757	0.001	2.0	GoodResponse	1	3.042	n/a	1	3	ButtonPress	Win	False
42.889	0.37	Win2	1.0	0.004	Yes	2.757	-0.004	2.0	GoodResponse	1	0.192	42.081	1	3	Target	Win	False
43.081	0.3	Win2	1.0	0.004	Yes	2.757	-0.004	2.0	GoodResponse	1	0.192	n/a	1	3	ButtonPress	Win	False
43.274	0.33	Win2	1.0	n/a	Yes	2.757	n/a	n/a	GoodResponse	1	n/a	n/a	1	3	Blank	Win	False
43.591	1.45	Win2	1.0	n/a	Yes	2.757	n/a	5.0	GoodResponse	1	0.042	42.633	1	3	Feedback	Win	False
45.045	2.757	Win2	1.0	n/a	Yes	2.757	n/a	n/a	GoodResponse	1	0.0	n/a	1	3	ISIslide	Win	False
47.82	0.25	Win2	1.0	0.001	Yes	3.28	0.02	n/a	GoodResponse	1	n/a	n/a	2	4	Cue	Win	True
48.071	4.0	Win2	1.0	0.0	Yes	3.28	0.001	n/a	GoodResponse	1	n/a	n/a	2	4	Fixation	Win	True
52.067	0.36	Win2	1.0	0.003	Yes	3.28	-0.003	2.0	GoodResponse	1	0.191	51.258	2	4	Target	Win	True
52.258	0.3	Win2	1.0	0.003	Yes	3.28	-0.003	2.0	GoodResponse	1	0.191	n/a	2	4	ButtonPress	Win	True
52.434	0.34	Win2	1.0	n/a	Yes	3.28	n/a	n/a	GoodResponse	1	n/a	n/a	2	4	Blank	Win	True
52.769	1.45	Win2	1.0	n/a	Yes	3.28	n/a	5.0	GoodResponse	1	0.035	51.804	2	4	Feedback	Win	True
54.223	3.28	Win2	1.0	n/a	Yes	3.28	n/a	n/a	GoodResponse	1	0.0	n/a	2	4	ISIslide	Win	True
57.516	0.25	Win2	1.0	0.0	Yes	2.784	0.016	n/a	GoodResponse	1	n/a	n/a	3	5	Cue	Win	False
57.767	4.0	Win2	1.0	0.0	Yes	2.784	0.001	2.0	GoodResponse	1	3.449	60.216	3	5	Fixation	Win	False
61.216	0.3	Win2	1.0	0.0	Yes	2.784	0.001	2.0	GoodResponse	1	3.449	n/a	3	5	ButtonPress	Win	False
61.762	0.35	Win2	1.0	0.004	Yes	2.784	-0.004	2.0	GoodResponse	1	0.177	60.939	3	5	Target	Win	False
61.939	0.3	Win2	1.0	0.004	Yes	2.784	-0.004	2.0	GoodResponse	1	0.177	n/a	3	5	ButtonPress	Win	False
62.113	0.35	Win2	1.0	n/a	Yes	2.784	n/a	n/a	GoodResponse	1	n/a	n/a	3	5	Blank	Win	False
62.464	1.45	Win2	1.0	n/a	Yes	2.784	n/a	5.0	GoodResponse	1	0.048	61.512	3	5	Feedback	Win	False
63.919	2.784	Win2	1.0	n/a	Yes	2.784	n/a	n/a	GoodResponse	1	0.0	n/a	3	5	ISIslide	Win	False
66.727	0.25	Lose2	1.0	0.0	Yes	2.723	0.027	n/a	GoodResponse	0	n/a	n/a	3	6	Cue	AvoidedLoss	True
66.978	3.95	Lose2	1.0	0.0	Yes	2.723	0.001	n/a	GoodResponse	0	n/a	n/a	3	6	Fixation	AvoidedLoss	True
70.923	0.34	Lose2	1.0	0.004	Yes	2.723	-0.004	2.0	GoodResponse	0	0.23	70.153	3	6	Target	AvoidedLoss	True
71.153	0.3	Lose2	1.0	0.004	Yes	2.723	-0.004	2.0	GoodResponse	0	0.23	n/a	3	6	ButtonPress	AvoidedLoss	True
71.274	0.36	Lose2	1.0	n/a	Yes	2.723	n/a	n/a	GoodResponse	0	n/a	n/a	3	6	Blank	AvoidedLoss	True
71.625	1.45	Lose2	1.0	n/a	Yes	2.723	n/a	5.0	GoodResponse	0	0.009	70.634	3	6	Feedback	AvoidedLoss	True
73.079	2.723	Lose2	1.0	n/a	Yes	2.723	n/a	n/a	GoodResponse	0	0.0	n/a	3	6	ISIslide	AvoidedLoss	True
75.821	0.25	Lose2	1.0	0.0	Yes	4.029	0.021	n/a	GoodResponse	0	n/a	n/a	3	7	Cue	AvoidedLoss	True
76.072	4.05	Lose2	1.0	0.0	Yes	4.029	0.001	n/a	GoodResponse	0	n/a	n/a	3	7	Fixation	AvoidedLoss	True
80.117	0.33	Lose2	1.0	0.004	Yes	4.029	-0.004	2.0	GoodResponse	0	0.197	79.314	3	7	Target	AvoidedLoss	True
80.314	0.3	Lose2	1.0	0.004	Yes	4.029	-0.004	2.0	GoodResponse	0	0.197	n/a	3	7	ButtonPress	AvoidedLoss	True
80.451	0.37	Lose2	1.0	n/a	Yes	4.029	n/a	n/a	GoodResponse	0	n/a	n/a	3	7	Blank	AvoidedLoss	True
80.819	1.45	Lose2	1.0	n/a	Yes	4.029	n/a	5.0	GoodResponse	0	0.034	79.853	3	7	Feedback	AvoidedLoss	True
82.274	4.029	Lose2	1.0	n/a	Yes	4.029	n/a	n/a	GoodResponse	0	0.0	n/a	3	7	ISIslide	AvoidedLoss	True
86.319	0.25	Lose2	1.0	0.0	Yes	3.031	0.019	n/a	GoodResponse	0	n/a	n/a	3	8	Cue	AvoidedLoss	True
86.57	3.95	Lose2	1.0	0.0	Yes	3.031	0.001	n/a	GoodResponse	0	n/a	n/a	3	8	Fixation	AvoidedLoss	True
90.515	0.32	Lose2	1.0	0.004	Yes	3.031	-0.004	2.0	GoodResponse	0	0.202	89.717	3	8	Target	AvoidedLoss	True
90.717	0.3	Lose2	1.0	0.004	Yes	3.031	-0.004	2.0	GoodResponse	0	0.202	n/a	3	8	ButtonPress	AvoidedLoss	True
90.849	0.38	Lose2	1.0	n/a	Yes	3.031	n/a	n/a	GoodResponse	0	n/a	n/a	3	8	Blank	AvoidedLoss	True
91.217	1.45	Lose2	1.0	n/a	Yes	3.031	n/a	5.0	GoodResponse	0	0.026	90.243	3	8	Feedback	AvoidedLoss	True
92.671	3.031	Lose2	1.0	n/a	Yes	3.031	n/a	n/a	GoodResponse	0	0.0	n/a	3	8	ISIslide	AvoidedLoss	True
95.731	0.25	Lose2	1.0	0.0	Yes	3.119	0.031	n/a	GoodResponse	0	n/a	n/a	3	9	Cue	AvoidedLoss	True
95.981	3.95	Lose2	1.0	0.0	Yes	3.119	0.0	n/a	GoodResponse	0	n/a	n/a	3	9	Fixation	AvoidedLoss	True
99.943	0.31	Lose2	1.0	0.0	Yes	3.119	0.012	2.0	GoodResponse	0	0.206	99.149	3	9	Target	AvoidedLoss	True
100.149	0.3	Lose2	1.0	0.0	Yes	3.119	0.012	2.0	GoodResponse	0	0.206	n/a	3	9	ButtonPress	AvoidedLoss	True
100.244	0.39	Lose2	1.0	n/a	Yes	3.119	n/a	n/a	GoodResponse	0	n/a	n/a	3	9	Blank	AvoidedLoss	True
100.629	1.45	Lose2	1.0	n/a	Yes	3.119	n/a	5.0	GoodResponse	0	0.028	99.657	3	9	Feedback	AvoidedLoss	True
102.083	3.119	Lose2	1.0	n/a	Yes	3.119	n/a	n/a	GoodResponse	0	0.0	n/a	3	9	ISIslide	AvoidedLoss	True
105.226	0.25	Control	1.0	0.0	Yes	3.274	0.026	n/a	GoodResponse	0	n/a	n/a	3	10	Cue	Neutral	True
105.476	4.0	Control	1.0	0.0	Yes	3.274	0.0	n/a	GoodResponse	0	n/a	n/a	3	10	Fixation	Neutral	True
109.472	0.3	Control	1.0	0.004	Yes	3.274	-0.004	2.0	GoodResponse	0	0.197	108.669	3	10	Target	Neutral	True
109.669	0.3	Control	1.0	0.004	Yes	3.274	-0.004	2.0	GoodResponse	0	0.197	n/a	3	10	ButtonPress	Neutral	True
109.773	0.4	Control	1.0	n/a	Yes	3.274	n/a	n/a	GoodResponse	0	n/a	n/a	3	10	Blank	Neutral	True
110.174	1.45	Control	1.0	n/a	Yes	3.274	n/a	5.0	GoodResponse	0	0.045	109.219	3	10	Feedback	Neutral	True
111.628	3.274	Control	1.0	n/a	Yes	3.274	n/a	n/a	GoodResponse	0	0.0	n/a	3	10	ISIslide	Neutral	True
114.921	0.25	Lose2	1.0	0.0	Yes	2.729	0.021	n/a	GoodResponse	0	n/a	n/a	3	11	Cue	AvoidedLoss	True
115.172	4.05	Lose2	1.0	0.0	Yes	2.729	0.001	n/a	GoodResponse	0	n/a	n/a	3	11	Fixation	AvoidedLoss	True
119.218	0.29	Lose2	1.0	0.003	Yes	2.729	-0.003	2.0	GoodResponse	0	0.174	118.392	3	11	Target	AvoidedLoss	True
119.392	0.3	Lose2	1.0	0.003	Yes	2.729	-0.003	2.0	GoodResponse	0	0.174	n/a	3	11	ButtonPress	AvoidedLoss	True
119.518	0.41	Lose2	1.0	n/a	Yes	2.729	n/a	n/a	GoodResponse	0	n/a	n/a	3	11	Blank	AvoidedLoss	True
119.92	1.45	Lose2	1.0	n/a	Yes	2.729	n/a	5.0	GoodResponse	0	0.007	118.927	3	11	Feedback	AvoidedLoss	True
121.374	2.729	Lose2	1.0	n/a	Yes	2.729	n/a	n/a	GoodResponse	0	0.0	n/a	3	11	ISIslide	AvoidedLoss	True
124.115	0.25	Control	1.0	0.001	Yes	2.985	0.015	n/a	GoodResponse	0	n/a	n/a	3	12	Cue	Neutral	True
124.366	3.9	Control	1.0	0.0	Yes	2.985	0.001	n/a	GoodResponse	0	n/a	n/a	3	12	Fixation	Neutral	True
128.261	0.28	Control	1.0	0.004	Yes	2.985	-0.004	2.0	GoodResponse	0	0.193	127.454	3	12	Target	Neutral	True
128.454	0.3	Control	1.0	0.004	Yes	2.985	-0.004	2.0	GoodResponse	0	0.193	n/a	3	12	ButtonPress	Neutral	True
128.545	0.42	Control	1.0	n/a	Yes	2.985	n/a	n/a	GoodResponse	0	n/a	n/a	3	12	Blank	Neutral	True
128.963	1.45	Control	1.0	n/a	Yes	2.985	n/a	5.0	GoodResponse	0	0.036	127.999	3	12	Feedback	Neutral	True
130.418	2.985	Control	1.0	n/a	Yes	2.985	n/a	n/a	GoodResponse	0	0.0	n/a	3	12	ISIslide	Neutral	True
133.427	0.25	Control	1.0	0.0	Yes	2.773	0.027	n/a	GoodResponse	0	n/a	n/a	3	13	Cue	Neutral	True
133.677	4.0	Control	1.0	0.001	Yes	2.773	0.0	n/a	GoodResponse	0	n/a	n/a	3	13	Fixation	Neutral	True
137.673	0.27	Control	1.0	0.004	Yes	2.773	-0.004	2.0	GoodResponse	0	0.189	136.862	3	13	Target	Neutral	True
137.862	0.3	Control	1.0	0.004	Yes	2.773	-0.004	2.0	GoodResponse	0	0.189	n/a	3	13	ButtonPress	Neutral	True
137.957	0.43	Control	1.0	n/a	Yes	2.773	n/a	n/a	GoodResponse	0	n/a	n/a	3	13	Blank	Neutral	True
138.375	1.45	Control	1.0	n/a	Yes	2.773	n/a	5.0	GoodResponse	0	0.038	137.413	3	13	Feedback	Neutral	True
139.829	2.773	Control	1.0	n/a	Yes	2.773	n/a	n/a	GoodResponse	0	0.0	n/a	3	13	ISIslide	Neutral	True
142.621	0.25	Win2	1.0	0.0	Yes	2.679	0.021	n/a	GoodResponse	1	n/a	n/a	4	14	Cue	Win	True
142.872	4.1	Win2	1.0	0.0	Yes	2.679	0.001	n/a	GoodResponse	1	n/a	n/a	4	14	Fixation	Win	True
146.967	0.26	Win2	1.0	0.004	Yes	2.679	-0.004	2.0	GoodResponse	1	0.18	146.147	4	14	Target	Win	True
147.147	0.3	Win2	1.0	0.004	Yes	2.679	-0.004	2.0	GoodResponse	1	0.18	n/a	4	14	ButtonPress	Win	True
147.235	0.44	Win2	1.0	n/a	Yes	2.679	n/a	n/a	GoodResponse	1	n/a	n/a	4	14	Blank	Win	True
147.669	1.45	Win2	1.0	n/a	Yes	2.679	n/a	5.0	GoodResponse	1	0.012	146.681	4	14	Feedback	Win	True
149.124	2.679	Win2	1.0	n/a	Yes	2.679	n/a	n/a	GoodResponse	1	0.0	n/a	4	14	ISIslide	Win	True
151.815	0.25	Control	1.0	0.0	Yes	2.985	0.015	n/a	GoodResponse	0	n/a	n/a	4	15	Cue	Neutral	True
152.066	4.0	Control	1.0	0.0	Yes	2.985	0.001	n/a	GoodResponse	0	n/a	n/a	4	15	Fixation	Neutral	True
156.061	0.25	Control	1.0	0.004	Yes	2.985	-0.004	2.0	GoodResponse	0	0.207	155.268	4	15	Target	Neutral	True
156.268	0.3	Control	1.0	0.004	Yes	2.985	-0.004	2.0	GoodResponse	0	0.207	n/a	4	15	ButtonPress	Neutral	True
156.312	0.45	Control	1.0	n/a	Yes	2.985	n/a	n/a	GoodResponse	0	n/a	n/a	4	15	Blank	Neutral	True
156.763	1.45	Control	1.0	n/a	Yes	2.985	n/a	5.0	GoodResponse	0	0.04	155.803	4	15	Feedback	Neutral	True
158.218	2.985	Control	1.0	n/a	Yes	2.985	n/a	n/a	GoodResponse	0	0.0	n/a	4	15	ISIslide	Neutral	True
161.227	0.25	Win2	1.0	0.0	Yes	2.873	0.027	n/a	GoodResponse	1	n/a	n/a	5	16	Cue	Win	True
161.477	4.0	Win2	1.0	0.0	Yes	2.873	0.0	n/a	GoodResponse	1	n/a	n/a	5	16	Fixation	Win	True
165.473	0.24	Win2	1.0	0.004	Yes	2.873	-0.004	2.0	GoodResponse	1	0.169	164.642	5	16	Target	Win	True
165.642	0.3	Win2	1.0	0.004	Yes	2.873	-0.004	2.0	GoodResponse	1	0.169	n/a	5	16	ButtonPress	Win	True
165.723	0.46	Win2	1.0	n/a	Yes	2.873	n/a	n/a	GoodResponse	1	n/a	n/a	5	16	Blank	Win	True
166.175	1.45	Win2	1.0	n/a	Yes	2.873	n/a	5.0	GoodResponse	1	0.043	165.218	5	16	Feedback	Win	True
167.629	2.873	Win2	1.0	n/a	Yes	2.873	n/a	n/a	GoodResponse	1	0.0	n/a	5	16	ISIslide	Win	True
170.521	0.25	Lose2	1.0	0.0	Yes	2.729	0.021	n/a	GoodResponse	0	n/a	n/a	5	17	Cue	AvoidedLoss	True
170.772	3.95	Lose2	1.0	0.0	Yes	2.729	0.001	n/a	GoodResponse	0	n/a	n/a	5	17	Fixation	AvoidedLoss	True
174.717	0.23	Lose2	1.0	0.004	Yes	2.729	-0.004	2.0	GoodResponse	0	0.185	173.902	5	17	Target	AvoidedLoss	True
174.902	0.3	Lose2	1.0	0.004	Yes	2.729	-0.004	2.0	GoodResponse	0	0.185	n/a	5	17	ButtonPress	AvoidedLoss	True
174.951	0.47	Lose2	1.0	n/a	Yes	2.729	n/a	n/a	GoodResponse	0	n/a	n/a	5	17	Blank	AvoidedLoss	True
175.419	1.45	Lose2	1.0	n/a	Yes	2.729	n/a	5.0	GoodResponse	0	0.019	174.438	5	17	Feedback	AvoidedLoss	True
176.873	2.729	Lose2	1.0	n/a	Yes	2.729	n/a	n/a	GoodResponse	0	0.0	n/a	5	17	ISIslide	AvoidedLoss	True
179.615	0.25	Lose2	1.0	0.0	Yes	2.735	0.015	n/a	GoodResponse	0	n/a	n/a	5	18	Cue	AvoidedLoss	True
179.866	4.05	Lose2	1.0	0.0	Yes	2.735	0.001	n/a	GoodResponse	0	n/a	n/a	5	18	Fixation	AvoidedLoss	True
183.911	0.22	Lose2	1.0	0.004	Yes	2.735	-0.004	2.0	GoodResponse	0	0.204	183.115	5	18	Target	AvoidedLoss	True
184.115	0.3	Lose2	1.0	0.004	Yes	2.735	-0.004	2.0	GoodResponse	0	0.204	n/a	5	18	ButtonPress	AvoidedLoss	True
184.145	0.48	Lose2	1.0	n/a	Yes	2.735	n/a	n/a	GoodResponse	0	n/a	n/a	5	18	Blank	AvoidedLoss	True
184.613	1.45	Lose2	1.0	n/a	Yes	2.735	n/a	5.0	GoodResponse	0	0.044	183.657	5	18	Feedback	AvoidedLoss	True
186.068	2.735	Lose2	1.0	n/a	Yes	2.735	n/a	n/a	GoodResponse	0	0.0	n/a	5	18	ISIslide	AvoidedLoss	True
188.826	0.25	Control	0.95	0.0	No	2.924	0.026	n/a	NoResponse	0	n/a	n/a	5	19	Cue	Neutral	True
189.077	3.95	Control	0.95	0.0	No	2.924	0.001	n/a	NoResponse	0	n/a	n/a	5	19	Fixation	Neutral	True
193.022	0.21	Control	0.95	0.004	No	2.924	-0.004	2.0	NoResponse	0	0.297	192.319	5	19	Target	Neutral	True
193.239	0.49	Control	0.95	n/a	No	2.924	n/a	n/a	NoResponse	0	n/a	n/a	5	19	Blank	Neutral	True
193.319	0.3	Control	0.95	0.004	No	2.924	-0.004	2.0	NoResponse	0	0.297	n/a	5	19	ButtonPress	Neutral	True
193.724	1.45	Control	0.95	n/a	No	2.924	n/a	5.0	NoResponse	0	0.007	192.731	5	19	Feedback	Neutral	True
195.178	2.924	Control	0.95	n/a	No	2.924	n/a	n/a	NoResponse	0	0.0	n/a	5	19	ISIslide	Neutral	True
198.12	0.25	Control	0.9523999999999999	0.0	Yes	2.63	0.02	n/a	GoodResponse	0	n/a	n/a	5	20	Cue	Neutral	True
198.371	4.05	Control	0.9523999999999999	0.0	Yes	2.63	0.001	n/a	GoodResponse	0	n/a	n/a	5	20	Fixation	Neutral	True
202.417	0.2	Control	0.9523999999999999	0.003	Yes	2.63	-0.003	2.0	GoodResponse	0	0.171	201.588	5	20	Target	Neutral	True
202.588	0.3	Control	0.9523999999999999	0.003	Yes	2.63	-0.003	2.0	GoodResponse	0	0.171	n/a	5	20	ButtonPress	Neutral	True
202.617	0.5	Control	0.9523999999999999	n/a	Yes	2.63	n/a	n/a	GoodResponse	0	n/a	n/a	5	20	Blank	Neutral	True
203.119	1.45	Control	0.9523999999999999	n/a	Yes	2.63	n/a	5.0	GoodResponse	0	0.025	202.144	5	20	Feedback	Neutral	True
204.573	2.63	Control	0.9523999999999999	n/a	Yes	2.63	n/a	n/a	GoodResponse	0	0.0	n/a	5	20	ISIslide	Neutral	True
207.231	0.25	Control	0.9091	0.0	No	2.769	0.031	n/a	LatePress	0	n/a	n/a	5	21	Cue	Neutral	True
207.482	4.1	Control	0.9091	0.0	No	2.769	0.001	n/a	LatePress	0	n/a	n/a	5	21	Fixation	Neutral	True
211.577	0.19	Control	0.9091	0.004	No	2.769	-0.004	2.0	LatePress	0	0.197	210.774	5	21	Target	Neutral	True
211.774	0.3	Control	0.9091	0.004	No	2.769	-0.004	2.0	LatePress	0	0.197	n/a	5	21	ButtonPress	Neutral	True
211.778	0.51	Control	0.9091	n/a	No	2.769	n/a	n/a	LatePress	0	n/a	n/a	5	21	Blank	Neutral	True
212.279	1.45	Control	0.9091	n/a	No	2.769	n/a	5.0	LatePress	0	0.036	211.315	5	21	Feedback	Neutral	True
213.734	2.769	Control	0.9091	n/a	No	2.769	n/a	n/a	LatePress	0	0.0	n/a	5	21	ISIslide	Neutral	True
216.525	0.25	Control	0.9129999999999999	0.001	Yes	2.775	0.025	n/a	GoodResponse	0	n/a	n/a	5	22	Cue	Neutral	True
216.776	4.0	Control	0.9129999999999999	0.0	Yes	2.775	0.001	n/a	GoodResponse	0	n/a	n/a	5	22	Fixation	Neutral	True
220.771	0.18	Control	0.9129999999999999	0.004	Yes	2.775	-0.004	2.0	GoodResponse	0	0.179	219.95	5	22	Target	Neutral	True
220.95	0.3	Control	0.9129999999999999	0.004	Yes	2.775	-0.004	2.0	GoodResponse	0	0.179	n/a	5	22	ButtonPress	Neutral	True
220.955	0.52	Control	0.9129999999999999	n/a	Yes	2.775	n/a	n/a	GoodResponse	0	n/a	n/a	5	22	Blank	Neutral	True
221.474	1.45	Control	0.9129999999999999	n/a	Yes	2.775	n/a	5.0	GoodResponse	0	0.012	220.486	5	22	Feedback	Neutral	True
222.928	2.775	Control	0.9129999999999999	n/a	Yes	2.775	n/a	n/a	GoodResponse	0	0.0	n/a	5	22	ISIslide	Neutral	True
225.72	0.25	Control	0.875	0.0	No	2.78	0.02	n/a	NoResponse	0	n/a	n/a	5	23	Cue	Neutral	True
225.97	3.9	Control	0.875	0.0	No	2.78	0.0	n/a	NoResponse	0	n/a	n/a	5	23	Fixation	Neutral	True
229.882	0.17	Control	0.875	0.0	No	2.78	0.012	2.0	NoResponse	0	0.178	229.06	5	23	Target	Neutral	True
230.049	0.53	Control	0.875	n/a	No	2.78	n/a	n/a	NoResponse	0	n/a	n/a	5	23	Blank	Neutral	True
230.06	0.3	Control	0.875	0.0	No	2.78	0.012	2.0	NoResponse	0	0.178	n/a	5	23	ButtonPress	Neutral	True
230.567	1.45	Control	0.875	n/a	No	2.78	n/a	5.0	NoResponse	0	0.041	229.608	5	23	Feedback	Neutral	True
232.022	2.78	Control	0.875	n/a	No	2.78	n/a	n/a	NoResponse	0	0.0	n/a	5	23	ISIslide	Neutral	True
234.83	0.25	Win2	0.84	0.0	No	3.12	0.03	n/a	NoResponse	0	n/a	n/a	5	24	Cue	MissedWin	True
235.081	3.95	Win2	0.84	0.0	No	3.12	0.001	n/a	NoResponse	0	n/a	n/a	5	24	Fixation	MissedWin	True
239.026	0.16	Win2	0.84	0.004	No	3.12	-0.004	2.0	NoResponse	0	0.175	238.201	5	24	Target	MissedWin	True
239.193	0.54	Win2	0.84	n/a	No	3.12	n/a	n/a	NoResponse	0	n/a	n/a	5	24	Blank	MissedWin	True
239.201	0.3	Win2	0.84	0.004	No	3.12	-0.004	2.0	NoResponse	0	0.175	n/a	5	24	ButtonPress	MissedWin	True
239.728	1.45	Win2	0.84	n/a	No	3.12	n/a	5.0	NoResponse	0	0.001	238.729	5	24	Feedback	MissedWin	True
241.183	3.12	Win2	0.84	n/a	No	3.12	n/a	n/a	NoResponse	0	0.0	n/a	5	24	ISIslide	MissedWin	True
244.325	0.25	Win2	0.8077	0.0	No	3.075	0.025	n/a	NoResponse	0	n/a	n/a	5	25	Cue	MissedWin	True
244.576	4.0	Win2	0.8077	0.0	No	3.075	0.001	n/a	NoResponse	0	n/a	n/a	5	25	Fixation	MissedWin	True
248.571	0.15	Win2	0.8077	0.004	No	3.075	-0.004	2.0	NoResponse	0	0.2	247.771	5	25	Target	MissedWin	True
248.722	0.55	Win2	0.8077	n/a	No	3.075	n/a	n/a	NoResponse	0	n/a	n/a	5	25	Blank	MissedWin	True
248.771	0.3	Win2	0.8077	0.004	No	3.075	-0.004	2.0	NoResponse	0	0.2	n/a	5	25	ButtonPress	MissedWin	True
249.273	1.45	Win2	0.8077	n/a	No	3.075	n/a	5.0	NoResponse	0	0.017	248.29	5	25	Feedback	MissedWin	True
250.728	3.075	Win2	0.8077	n/a	No	3.075	n/a	n/a	NoResponse	0	0.0	n/a	5	25	ISIslide	MissedWin	True
253.82	0.25	Win2	0.7778	0.0	No	2.93	0.02	n/a	NoResponse	0	n/a	n/a	5	26	Cue	MissedWin	True
254.071	3.95	Win2	0.7778	0.0	No	2.93	0.001	n/a	NoResponse	0	n/a	n/a	5	26	Fixation	MissedWin	True
258.016	0.15	Win2	0.7778	0.004	No	2.93	-0.004	2.0	NoResponse	0	0.174	257.19	5	26	Target	MissedWin	True
258.167	0.55	Win2	0.7778	n/a	No	2.93	n/a	n/a	NoResponse	0	n/a	n/a	5	26	Blank	MissedWin	True
258.19	0.3	Win2	0.7778	0.004	No	2.93	-0.004	2.0	NoResponse	0	0.174	n/a	5	26	ButtonPress	MissedWin	True
258.718	1.45	Win2	0.7778	n/a	No	2.93	n/a	5.0	NoResponse	0	0.036	257.754	5	26	Feedback	MissedWin	True
260.173	2.93	Win2	0.7778	n/a	No	2.93	n/a	n/a	NoResponse	0	0.0	n/a	5	26	ISIslide	MissedWin	True
263.115	0.25	Lose2	0.75	0.0	No	2.835	0.015	n/a	NoResponse	-1	n/a	n/a	4	27	Cue	Loss	True
263.366	4.05	Lose2	0.75	0.0	No	2.835	0.001	n/a	NoResponse	-1	n/a	n/a	4	27	Fixation	Loss	True
267.411	0.15	Lose2	0.75	0.004	No	2.835	-0.004	2.0	NoResponse	-1	0.171	266.582	4	27	Target	Loss	True
267.562	0.55	Lose2	0.75	n/a	No	2.835	n/a	n/a	NoResponse	-1	n/a	n/a	4	27	Blank	Loss	True
267.582	0.3	Lose2	0.75	0.004	No	2.835	-0.004	2.0	NoResponse	-1	0.171	n/a	4	27	ButtonPress	Loss	True
268.113	1.45	Lose2	0.75	n/a	No	2.835	n/a	5.0	NoResponse	-1	0.008	267.121	4	27	Feedback	Loss	True
269.568	2.835	Lose2	0.75	n/a	No	2.835	n/a	n/a	NoResponse	-1	0.0	n/a	4	27	ISIslide	Loss	True
272.426	0.25	Control	0.7241	0.0	No	2.824	0.026	n/a	NoResponse	0	n/a	n/a	4	28	Cue	Neutral	True
272.677	4.05	Control	0.7241	0.0	No	2.824	0.001	n/a	NoResponse	0	n/a	n/a	4	28	Fixation	Neutral	True
276.722	0.15	Control	0.7241	0.004	No	2.824	-0.004	2.0	NoResponse	0	0.201	275.923	4	28	Target	Neutral	True
276.873	0.55	Control	0.7241	n/a	No	2.824	n/a	n/a	NoResponse	0	n/a	n/a	4	28	Blank	Neutral	True
276.923	0.3	Control	0.7241	0.004	No	2.824	-0.004	2.0	NoResponse	0	0.201	n/a	4	28	ButtonPress	Neutral	True
277.424	1.45	Control	0.7241	n/a	No	2.824	n/a	5.0	NoResponse	0	0.013	276.437	4	28	Feedback	Neutral	True
278.879	2.824	Control	0.7241	n/a	No	2.824	n/a	n/a	NoResponse	0	0.0	n/a	4	28	ISIslide	Neutral	True
281.721	0.25	Lose2	0.7	0.0	No	2.829	0.021	n/a	NoResponse	-1	n/a	n/a	3	29	Cue	Loss	True
281.971	3.95	Lose2	0.7	0.0	No	2.829	0.0	n/a	NoResponse	-1	n/a	n/a	3	29	Fixation	Loss	True
285.933	0.15	Lose2	0.7	0.0	No	2.829	0.012	2.0	NoResponse	-1	0.18	285.113	3	29	Target	Loss	True
286.067	0.55	Lose2	0.7	n/a	No	2.829	n/a	n/a	NoResponse	-1	n/a	n/a	3	29	Blank	Loss	True
286.113	0.3	Lose2	0.7	0.0	No	2.829	0.012	2.0	NoResponse	-1	0.18	n/a	3	29	ButtonPress	Loss	True
286.619	1.45	Lose2	0.7	n/a	No	2.829	n/a	5.0	NoResponse	-1	0.038	285.657	3	29	Feedback	Loss	True
288.073	2.829	Lose2	0.7	n/a	No	2.829	n/a	n/a	NoResponse	-1	0.0	n/a	3	29	ISIslide	Loss	True
290.915	0.25	Win2	0.6774	0.0	No	2.785	0.015	n/a	NoResponse	0	n/a	n/a	3	30	Cue	MissedWin	True
291.166	3.9	Win2	0.6774	0.0	No	2.785	0.001	n/a	NoResponse	0	n/a	n/a	3	30	Fixation	MissedWin	True
295.061	0.15	Win2	0.6774	0.004	No	2.785	-0.004	2.0	NoResponse	0	0.188	294.249	3	30	Target	MissedWin	True
295.211	0.55	Win2	0.6774	n/a	No	2.785	n/a	n/a	NoResponse	0	n/a	n/a	3	30	Blank	MissedWin	True
295.249	0.3	Win2	0.6774	0.004	No	2.785	-0.004	2.0	NoResponse	0	0.188	n/a	3	30	ButtonPress	MissedWin	True
295.763	1.45	Win2	0.6774	n/a	No	2.785	n/a	5.0	NoResponse	0	0.015	294.778	3	30	Feedback	MissedWin	True
297.217	2.785	Win2	0.6774	n/a	No	2.785	n/a	n/a	NoResponse	0	0.0	n/a	3	30	ISIslide	MissedWin	True
300.025	0.25	Lose2	0.6562	0.0	No	2.825	0.025	n/a	NoResponse	-1	n/a	n/a	2	31	Cue	Loss	True
300.276	4.05	Lose2	0.6562	0.0	No	2.825	0.001	n/a	NoResponse	-1	n/a	n/a	2	31	Fixation	Loss	True
304.322	0.15	Lose2	0.6562	0.003	No	2.825	-0.003	2.0	NoResponse	-1	0.171	303.493	2	31	Target	Loss	True
304.472	0.55	Lose2	0.6562	n/a	No	2.825	n/a	n/a	NoResponse	-1	n/a	n/a	2	31	Blank	Loss	True
304.493	0.3	Lose2	0.6562	0.003	No	2.825	-0.003	2.0	NoResponse	-1	0.171	n/a	2	31	ButtonPress	Loss	True
305.024	1.45	Lose2	0.6562	n/a	No	2.825	n/a	5.0	NoResponse	-1	0.022	304.046	2	31	Feedback	Loss	True
306.478	2.825	Lose2	0.6562	n/a	No	2.825	n/a	n/a	NoResponse	-1	0.0	n/a	2	31	ISIslide	Loss	True
309.32	0.25	Lose2	0.6364	0.0	No	2.63	0.02	n/a	NoResponse	-1	n/a	n/a	1	32	Cue	Loss	True
309.571	4.15	Lose2	0.6364	0.0	No	2.63	0.001	n/a	NoResponse	-1	n/a	n/a	1	32	Fixation	Loss	True
313.716	0.15	Lose2	0.6364	0.004	No	2.63	-0.004	2.0	NoResponse	-1	0.17	312.886	1	32	Target	Loss	True
313.867	0.55	Lose2	0.6364	n/a	No	2.63	n/a	n/a	NoResponse	-1	n/a	n/a	1	32	Blank	Loss	True
313.886	0.3	Lose2	0.6364	0.004	No	2.63	-0.004	2.0	NoResponse	-1	0.17	n/a	1	32	ButtonPress	Loss	True
314.418	1.45	Lose2	0.6364	n/a	No	2.63	n/a	5.0	NoResponse	-1	0.043	313.461	1	32	Feedback	Loss	True
315.873	2.63	Lose2	0.6364	n/a	No	2.63	n/a	n/a	NoResponse	-1	0.0	n/a	1	32	ISIslide	Loss	True
318.531	0.25	Win2	0.6175999999999999	0.0	No	2.669	0.031	n/a	NoResponse	0	n/a	n/a	1	33	Cue	MissedWin	True
318.782	4.0	Win2	0.6175999999999999	0.0	No	2.669	0.001	n/a	NoResponse	0	n/a	n/a	1	33	Fixation	MissedWin	True
322.777	0.16	Win2	0.6175999999999999	0.004	No	2.669	-0.004	2.0	NoResponse	0	0.182	321.959	1	33	Target	MissedWin	True
322.944	0.54	Win2	0.6175999999999999	n/a	No	2.669	n/a	n/a	NoResponse	0	n/a	n/a	1	33	Blank	MissedWin	True
322.959	0.3	Win2	0.6175999999999999	0.004	No	2.669	-0.004	2.0	NoResponse	0	0.182	n/a	1	33	ButtonPress	MissedWin	True
323.479	1.45	Win2	0.6175999999999999	n/a	No	2.669	n/a	5.0	NoResponse	0	0.008	322.487	1	33	Feedback	MissedWin	True
324.933	2.669	Win2	0.6175999999999999	n/a	No	2.669	n/a	n/a	NoResponse	0	0.0	n/a	1	33	ISIslide	MissedWin	True
327.625	0.25	Lose2	0.6	0.0	No	2.625	0.025	n/a	LatePress	-1	n/a	n/a	0	34	Cue	Loss	True
327.875	4.05	Lose2	0.6	0.001	No	2.625	0.0	n/a	LatePress	-1	n/a	n/a	0	34	Fixation	Loss	True
331.921	0.17	Lose2	0.6	0.004	No	2.625	-0.004	2.0	LatePress	-1	0.18	331.101	0	34	Target	Loss	True
332.101	0.3	Lose2	0.6	0.004	No	2.625	-0.004	2.0	LatePress	-1	0.18	n/a	0	34	ButtonPress	Loss	True
332.105	0.53	Lose2	0.6	n/a	No	2.625	n/a	n/a	LatePress	-1	n/a	n/a	0	34	Blank	Loss	True
332.623	1.45	Lose2	0.6	n/a	No	2.625	n/a	5.0	LatePress	-1	0.033	331.656	0	34	Feedback	Loss	True
334.077	2.625	Lose2	0.6	n/a	No	2.625	n/a	n/a	LatePress	-1	0.0	n/a	0	34	ISIslide	Loss	True
336.719	0.25	Lose2	0.5832999999999999	0.0	No	2.681	0.019	n/a	NoResponse	-1	n/a	n/a	-1	35	Cue	Loss	True
336.969	4.0	Lose2	0.5832999999999999	0.0	No	2.681	0.0	n/a	NoResponse	-1	n/a	n/a	-1	35	Fixation	Loss	True
340.965	0.18	Lose2	0.5832999999999999	0.004	No	2.681	-0.004	2.0	NoResponse	-1	0.21	340.175	-1	35	Target	Loss	True
341.148	0.52	Lose2	0.5832999999999999	n/a	No	2.681	n/a	n/a	NoResponse	-1	n/a	n/a	-1	35	Blank	Loss	True
341.175	0.3	Lose2	0.5832999999999999	0.004	No	2.681	-0.004	2.0	NoResponse	-1	0.21	n/a	-1	35	ButtonPress	Loss	True
341.667	1.45	Lose2	0.5832999999999999	n/a	No	2.681	n/a	5.0	NoResponse	-1	0.013	340.68	-1	35	Feedback	Loss	True
343.121	2.681	Lose2	0.5832999999999999	n/a	No	2.681	n/a	n/a	NoResponse	-1	0.0	n/a	-1	35	ISIslide	Loss	True
345.829	0.25	Control	0.5676	0.0	No	2.671	0.029	n/a	NoResponse	0	n/a	n/a	-1	36	Cue	Neutral	True
346.08	4.0	Control	0.5676	0.0	No	2.671	0.001	n/a	NoResponse	0	n/a	n/a	-1	36	Fixation	Neutral	True
350.075	0.19	Control	0.5676	0.004	No	2.671	-0.004	2.0	NoResponse	0	0.25	349.325	-1	36	Target	Neutral	True
350.276	0.51	Control	0.5676	n/a	No	2.671	n/a	n/a	NoResponse	0	n/a	n/a	-1	36	Blank	Neutral	True
350.325	0.3	Control	0.5676	0.004	No	2.671	-0.004	2.0	NoResponse	0	0.25	n/a	-1	36	ButtonPress	Neutral	True
350.777	1.45	Control	0.5676	n/a	No	2.671	n/a	5.0	NoResponse	0	0.025	349.802	-1	36	Feedback	Neutral	True
352.232	2.671	Control	0.5676	n/a	No	2.671	n/a	n/a	NoResponse	0	0.0	n/a	-1	36	ISIslide	Neutral	True
354.923	0.25	Win2	0.5789	0.0	Yes	2.877	0.023	n/a	GoodResponse	1	n/a	n/a	0	37	Cue	Win	False
355.174	4.0	Win2	0.5789	0.0	Yes	2.877	0.001	2.0	GoodResponse	1	3.67	357.844	0	37	Fixation	Win	False
358.844	0.3	Win2	0.5789	0.0	Yes	2.877	0.001	2.0	GoodResponse	1	3.67	n/a	0	37	ButtonPress	Win	False
359.169	0.2	Win2	0.5789	0.004	Yes	2.877	-0.004	2.0	GoodResponse	1	0.184	358.353	0	37	Target	Win	False
359.353	0.3	Win2	0.5789	0.004	Yes	2.877	-0.004	2.0	GoodResponse	1	0.184	n/a	0	37	ButtonPress	Win	False
359.37	0.5	Win2	0.5789	n/a	Yes	2.877	n/a	n/a	GoodResponse	1	n/a	n/a	0	37	Blank	Win	False
359.871	1.45	Win2	0.5789	n/a	Yes	2.877	n/a	5.0	GoodResponse	1	0.007	358.878	0	37	Feedback	Win	False
361.326	2.877	Win2	0.5789	n/a	Yes	2.877	n/a	n/a	GoodResponse	1	0.0	n/a	0	37	ISIslide	Win	False
364.218	0.25	Lose2	0.5897	0.0	Yes	2.832	0.018	n/a	GoodResponse	0	n/a	n/a	0	38	Cue	AvoidedLoss	True
364.468	3.95	Lose2	0.5897	0.0	Yes	2.832	0.0	n/a	GoodResponse	0	n/a	n/a	0	38	Fixation	AvoidedLoss	True
368.413	0.21	Lose2	0.5897	0.005	Yes	2.832	-0.005	2.0	GoodResponse	0	0.183	367.596	0	38	Target	AvoidedLoss	True
368.596	0.3	Lose2	0.5897	0.005	Yes	2.832	-0.005	2.0	GoodResponse	0	0.183	n/a	0	38	ButtonPress	AvoidedLoss	True
368.631	0.49	Lose2	0.5897	n/a	Yes	2.832	n/a	n/a	GoodResponse	0	n/a	n/a	0	38	Blank	AvoidedLoss	True
369.116	1.45	Lose2	0.5897	n/a	Yes	2.832	n/a	5.0	GoodResponse	0	0.027	368.143	0	38	Feedback	AvoidedLoss	True
370.57	2.832	Lose2	0.5897	n/a	Yes	2.832	n/a	n/a	GoodResponse	0	0.0	n/a	0	38	ISIslide	AvoidedLoss	True
373.428	0.25	Win2	0.575	0.001	No	2.972	0.028	n/a	NoResponse	0	n/a	n/a	0	39	Cue	MissedWin	True
373.679	4.1	Win2	0.575	0.0	No	2.972	0.001	2.0	NoResponse	0	4.002	376.681	0	39	Fixation	MissedWin	True
377.681	0.3	Win2	0.575	0.0	No	2.972	0.001	2.0	NoResponse	0	4.002	n/a	0	39	ButtonPress	MissedWin	True
377.775	0.22	Win2	0.575	0.003	No	2.972	-0.003	n/a	NoResponse	0	n/a	n/a	0	39	Target	MissedWin	True
378.009	0.48	Win2	0.575	n/a	No	2.972	n/a	n/a	NoResponse	0	n/a	n/a	0	39	Blank	MissedWin	True
378.477	1.45	Win2	0.575	n/a	No	2.972	n/a	5.0	NoResponse	0	0.032	377.509	0	39	Feedback	MissedWin	True
379.931	2.972	Win2	0.575	n/a	No	2.972	n/a	n/a	NoResponse	0	0.0	n/a	0	39	ISIslide	MissedWin	True
382.924	0.25	Win2	0.5854	0.0	Yes	2.726	0.024	n/a	GoodResponse	1	n/a	n/a	1	40	Cue	Win	True
383.174	3.95	Win2	0.5854	0.0	Yes	2.726	0.0	n/a	GoodResponse	1	n/a	n/a	1	40	Fixation	Win	True
387.136	0.23	Win2	0.5854	0.0	Yes	2.726	0.012	2.0	GoodResponse	1	0.205	386.341	1	40	Target	Win	True
387.341	0.3	Win2	0.5854	0.0	Yes	2.726	0.012	2.0	GoodResponse	1	0.205	n/a	1	40	ButtonPress	Win	True
387.353	0.47	Win2	0.5854	n/a	Yes	2.726	n/a	n/a	GoodResponse	1	n/a	n/a	1	40	Blank	Win	True
387.822	1.45	Win2	0.5854	n/a	Yes	2.726	n/a	5.0	GoodResponse	1	0.007	386.829	1	40	Feedback	Win	True
389.276	2.726	Win2	0.5854	n/a	Yes	2.726	n/a	n/a	GoodResponse	1	0.0	n/a	1	40	ISIslide	Win	True
392.017	0.25	Win2	0.5952000000000001	0.0	Yes	2.783	0.017	n/a	GoodResponse	1	n/a	n/a	2	41	Cue	Win	True
392.268	3.9	Win2	0.5952000000000001	0.0	Yes	2.783	0.001	n/a	GoodResponse	1	n/a	n/a	2	41	Fixation	Win	True
396.163	0.24	Win2	0.5952000000000001	0.004	Yes	2.783	-0.004	2.0	GoodResponse	1	0.185	395.348	2	41	Target	Win	True
396.348	0.3	Win2	0.5952000000000001	0.004	Yes	2.783	-0.004	2.0	GoodResponse	1	0.185	n/a	2	41	ButtonPress	Win	True
396.414	0.46	Win2	0.5952000000000001	n/a	Yes	2.783	n/a	n/a	GoodResponse	1	n/a	n/a	2	41	Blank	Win	True
396.865	1.45	Win2	0.5952000000000001	n/a	Yes	2.783	n/a	5.0	GoodResponse	1	0.034	395.899	2	41	Feedback	Win	True
398.32	2.783	Win2	0.5952000000000001	n/a	Yes	2.783	n/a	n/a	GoodResponse	1	0.0	n/a	2	41	ISIslide	Win	True
401.128	0.25	Control	0.6047	0.0	Yes	2.922	0.028	n/a	GoodResponse	0	n/a	n/a	2	42	Cue	Neutral	True
401.379	3.85	Control	0.6047	0.0	Yes	2.922	0.001	n/a	GoodResponse	0	n/a	n/a	2	42	Fixation	Neutral	True
405.224	0.25	Control	0.6047	0.004	Yes	2.922	-0.004	2.0	GoodResponse	0	0.204	404.428	2	42	Target	Neutral	True
405.428	0.3	Control	0.6047	0.004	Yes	2.922	-0.004	2.0	GoodResponse	0	0.204	n/a	2	42	ButtonPress	Neutral	True
405.474	0.45	Control	0.6047	n/a	Yes	2.922	n/a	n/a	GoodResponse	0	n/a	n/a	2	42	Blank	Neutral	True
405.926	1.45	Control	0.6047	n/a	Yes	2.922	n/a	5.0	GoodResponse	0	0.046	404.972	2	42	Feedback	Neutral	True
407.38	2.922	Control	0.6047	n/a	Yes	2.922	n/a	n/a	GoodResponse	0	0.0	n/a	2	42	ISIslide	Neutral	True
410.322	0.25	Win2	0.6136	0.0	Yes	3.178	0.022	n/a	GoodResponse	1	n/a	n/a	3	43	Cue	Win	True
410.573	4.0	Win2	0.6136	0.0	Yes	3.178	0.001	n/a	GoodResponse	1	n/a	n/a	3	43	Fixation	Win	True
414.568	0.26	Win2	0.6136	0.004	Yes	3.178	-0.004	2.0	GoodResponse	1	0.187	413.755	3	43	Target	Win	True
414.755	0.3	Win2	0.6136	0.004	Yes	3.178	-0.004	2.0	GoodResponse	1	0.187	n/a	3	43	ButtonPress	Win	True
414.836	0.44	Win2	0.6136	n/a	Yes	3.178	n/a	n/a	GoodResponse	1	n/a	n/a	3	43	Blank	Win	True
415.27	1.45	Win2	0.6136	n/a	Yes	3.178	n/a	5.0	GoodResponse	1	0.019	414.289	3	43	Feedback	Win	True
416.725	3.178	Win2	0.6136	n/a	Yes	3.178	n/a	n/a	GoodResponse	1	0.0	n/a	3	43	ISIslide	Win	True
419.918	0.25	Win2	0.6222	0.0	Yes	2.982	0.018	n/a	GoodResponse	1	n/a	n/a	4	44	Cue	Win	True
420.168	4.0	Win2	0.6222	0.0	Yes	2.982	0.0	n/a	GoodResponse	1	n/a	n/a	4	44	Fixation	Win	True
424.164	0.27	Win2	0.6222	0.004	Yes	2.982	-0.004	2.0	GoodResponse	1	0.205	423.369	4	44	Target	Win	True
424.369	0.3	Win2	0.6222	0.004	Yes	2.982	-0.004	2.0	GoodResponse	1	0.205	n/a	4	44	ButtonPress	Win	True
424.448	0.43	Win2	0.6222	n/a	Yes	2.982	n/a	n/a	GoodResponse	1	n/a	n/a	4	44	Blank	Win	True
424.866	1.45	Win2	0.6222	n/a	Yes	2.982	n/a	5.0	GoodResponse	1	0.033	423.899	4	44	Feedback	Win	True
426.32	2.982	Win2	0.6222	n/a	Yes	2.982	n/a	n/a	GoodResponse	1	0.0	n/a	4	44	ISIslide	Win	True
429.329	0.25	Control	0.6087	0.0	No	2.871	0.029	n/a	NoResponse	0	n/a	n/a	4	45	Cue	Neutral	True
429.58	4.1	Control	0.6087	0.0	No	2.871	0.001	n/a	NoResponse	0	n/a	n/a	4	45	Fixation	Neutral	True
433.675	0.28	Control	0.6087	0.004	No	2.871	-0.004	2.0	NoResponse	0	0.633	433.308	4	45	Target	Neutral	True
433.96	0.42	Control	0.6087	n/a	No	2.871	n/a	n/a	NoResponse	0	n/a	n/a	4	45	Blank	Neutral	True
434.308	0.3	Control	0.6087	0.004	No	2.871	-0.004	2.0	NoResponse	0	0.633	n/a	4	45	ButtonPress	Neutral	True
434.378	1.45	Control	0.6087	n/a	No	2.871	n/a	5.0	NoResponse	0	0.033	433.411	4	45	Feedback	Neutral	True
435.832	2.871	Control	0.6087	n/a	No	2.871	n/a	n/a	NoResponse	0	0.0	n/a	4	45	ISIslide	Neutral	True
438.724	0.25	Lose2	0.617	0.0	Yes	3.376	0.024	n/a	GoodResponse	0	n/a	n/a	4	46	Cue	AvoidedLoss	True
438.975	4.0	Lose2	0.617	0.0	Yes	3.376	0.001	n/a	GoodResponse	0	n/a	n/a	4	46	Fixation	AvoidedLoss	True
442.97	0.29	Lose2	0.617	0.004	Yes	3.376	-0.004	2.0	GoodResponse	0	0.194	442.164	4	46	Target	AvoidedLoss	True
443.164	0.3	Lose2	0.617	0.004	Yes	3.376	-0.004	2.0	GoodResponse	0	0.194	n/a	4	46	ButtonPress	AvoidedLoss	True
443.271	0.41	Lose2	0.617	n/a	Yes	3.376	n/a	n/a	GoodResponse	0	n/a	n/a	4	46	Blank	AvoidedLoss	True
443.672	1.45	Lose2	0.617	n/a	Yes	3.376	n/a	5.0	GoodResponse	0	0.008	442.68	4	46	Feedback	AvoidedLoss	True
445.126	3.376	Lose2	0.617	n/a	Yes	3.376	n/a	n/a	GoodResponse	0	0.0	n/a	4	46	ISIslide	AvoidedLoss	True
448.52	0.25	Lose2	0.625	0.0	Yes	2.68	0.02	n/a	GoodResponse	0	n/a	n/a	4	47	Cue	AvoidedLoss	True
448.771	4.0	Lose2	0.625	0.0	Yes	2.68	0.001	n/a	GoodResponse	0	n/a	n/a	4	47	Fixation	AvoidedLoss	True
452.766	0.3	Lose2	0.625	0.004	Yes	2.68	-0.004	2.0	GoodResponse	0	0.186	451.952	4	47	Target	AvoidedLoss	True
452.952	0.3	Lose2	0.625	0.004	Yes	2.68	-0.004	2.0	GoodResponse	0	0.186	n/a	4	47	ButtonPress	AvoidedLoss	True
453.067	0.4	Lose2	0.625	n/a	Yes	2.68	n/a	n/a	GoodResponse	0	n/a	n/a	4	47	Blank	AvoidedLoss	True
453.468	1.45	Lose2	0.625	n/a	Yes	2.68	n/a	5.0	GoodResponse	0	0.016	452.484	4	47	Feedback	AvoidedLoss	True
454.922	2.68	Lose2	0.625	n/a	Yes	2.68	n/a	n/a	GoodResponse	0	0.0	n/a	4	47	ISIslide	AvoidedLoss	True
457.63	0.25	Lose2	0.6327	0.001	Yes	3.02	0.03	n/a	GoodResponse	0	n/a	n/a	4	48	Cue	AvoidedLoss	True
457.881	3.95	Lose2	0.6327	0.0	Yes	3.02	0.001	n/a	GoodResponse	0	n/a	n/a	4	48	Fixation	AvoidedLoss	True
461.826	0.31	Lose2	0.6327	0.004	Yes	3.02	-0.004	2.0	GoodResponse	0	0.191	461.017	4	48	Target	AvoidedLoss	True
462.017	0.3	Lose2	0.6327	0.004	Yes	3.02	-0.004	2.0	GoodResponse	0	0.191	n/a	4	48	ButtonPress	AvoidedLoss	True
462.144	0.39	Lose2	0.6327	n/a	Yes	3.02	n/a	n/a	GoodResponse	0	n/a	n/a	4	48	Blank	AvoidedLoss	True
462.528	1.45	Lose2	0.6327	n/a	Yes	3.02	n/a	5.0	GoodResponse	0	0.029	461.557	4	48	Feedback	AvoidedLoss	True
463.983	3.02	Lose2	0.6327	n/a	Yes	3.02	n/a	n/a	GoodResponse	0	0.0	n/a	4	48	ISIslide	AvoidedLoss	True
467.025	0.25	Control	0.64	0.0	Yes	2.875	0.025	n/a	GoodResponse	0	n/a	n/a	4	49	Cue	Neutral	True
467.276	4.0	Control	0.64	0.0	Yes	2.875	0.001	n/a	GoodResponse	0	n/a	n/a	4	49	Fixation	Neutral	True
471.271	0.32	Control	0.64	0.004	Yes	2.875	-0.004	2.0	GoodResponse	0	0.181	470.452	4	49	Target	Neutral	True
471.452	0.3	Control	0.64	0.004	Yes	2.875	-0.004	2.0	GoodResponse	0	0.181	n/a	4	49	ButtonPress	Neutral	True
471.606	0.38	Control	0.64	n/a	Yes	2.875	n/a	n/a	GoodResponse	0	n/a	n/a	4	49	Blank	Neutral	True
471.973	1.45	Control	0.64	n/a	Yes	2.875	n/a	5.0	GoodResponse	0	0.047	471.02	4	49	Feedback	Neutral	True
473.428	2.875	Control	0.64	n/a	Yes	2.875	n/a	n/a	GoodResponse	0	0.0	n/a	4	49	ISIslide	Neutral	True
476.32	0.25	Control	0.6470999999999999	0.0	Yes	2.78	0.02	n/a	GoodResponse	0	n/a	n/a	4	50	Cue	Neutral	True
476.571	4.0	Control	0.6470999999999999	0.0	Yes	2.78	0.001	n/a	GoodResponse	0	n/a	n/a	4	50	Fixation	Neutral	True
480.566	0.33	Control	0.6470999999999999	0.004	Yes	2.78	-0.004	2.0	GoodResponse	0	0.188	479.754	4	50	Target	Neutral	True
480.754	0.3	Control	0.6470999999999999	0.004	Yes	2.78	-0.004	2.0	GoodResponse	0	0.188	n/a	4	50	ButtonPress	Neutral	True
480.9	0.37	Control	0.6470999999999999	n/a	Yes	2.78	n/a	n/a	GoodResponse	0	n/a	n/a	4	50	Blank	Neutral	True
481.268	1.45	Control	0.6470999999999999	n/a	Yes	2.78	n/a	5.0	GoodResponse	0	0.021	480.289	4	50	Feedback	Neutral	True
482.722	2.78	Control	0.6470999999999999	n/a	Yes	2.78	n/a	n/a	GoodResponse	0	0.0	n/a	4	50	ISIslide	Neutral	True
485.531	0.25	Control	0.6537999999999999	0.0	Yes	2.719	0.031	n/a	GoodResponse	0	n/a	n/a	4	51	Cue	Neutral	True
485.781	3.95	Control	0.6537999999999999	0.001	Yes	2.719	0.0	n/a	GoodResponse	0	n/a	n/a	4	51	Fixation	Neutral	True
489.727	0.34	Control	0.6537999999999999	0.004	Yes	2.719	-0.004	2.0	GoodResponse	0	0.2	488.927	4	51	Target	Neutral	True
489.927	0.3	Control	0.6537999999999999	0.004	Yes	2.719	-0.004	2.0	GoodResponse	0	0.2	n/a	4	51	ButtonPress	Neutral	True
490.078	0.36	Control	0.6537999999999999	n/a	Yes	2.719	n/a	n/a	GoodResponse	0	n/a	n/a	4	51	Blank	Neutral	True
490.429	1.45	Control	0.6537999999999999	n/a	Yes	2.719	n/a	5.0	GoodResponse	0	0.03	489.459	4	51	Feedback	Neutral	True
491.883	2.719	Control	0.6537999999999999	n/a	Yes	2.719	n/a	n/a	GoodResponse	0	0.0	n/a	4	51	ISIslide	Neutral	True
494.625	0.25	Control	0.6604000000000001	0.0	Yes	2.625	0.025	n/a	GoodResponse	0	n/a	n/a	4	52	Cue	Neutral	True
494.875	4.05	Control	0.6604000000000001	0.0	Yes	2.625	0.0	n/a	GoodResponse	0	n/a	n/a	4	52	Fixation	Neutral	True
498.921	0.35	Control	0.6604000000000001	0.004	Yes	2.625	-0.004	2.0	GoodResponse	0	0.162	498.083	4	52	Target	Neutral	True
499.083	0.3	Control	0.6604000000000001	0.004	Yes	2.625	-0.004	2.0	GoodResponse	0	0.162	n/a	4	52	ButtonPress	Neutral	True
499.272	0.35	Control	0.6604000000000001	n/a	Yes	2.625	n/a	n/a	GoodResponse	0	n/a	n/a	4	52	Blank	Neutral	True
499.623	1.45	Control	0.6604000000000001	n/a	Yes	2.625	n/a	5.0	GoodResponse	0	0.008	498.631	4	52	Feedback	Neutral	True
501.077	2.625	Control	0.6604000000000001	n/a	Yes	2.625	n/a	n/a	GoodResponse	0	0.0	n/a	4	52	ISIslide	Neutral	True
503.718	0.25	Win2	0.6667000000000001	0.001	Yes	2.932	0.018	n/a	GoodResponse	1	n/a	n/a	5	53	Cue	Win	True
503.969	4.05	Win2	0.6667000000000001	0.0	Yes	2.932	0.001	n/a	GoodResponse	1	n/a	n/a	5	53	Fixation	Win	True
508.015	0.35	Win2	0.6667000000000001	0.003	Yes	2.932	-0.003	2.0	GoodResponse	1	0.176	507.191	5	53	Target	Win	True
508.191	0.3	Win2	0.6667000000000001	0.003	Yes	2.932	-0.003	2.0	GoodResponse	1	0.176	n/a	5	53	ButtonPress	Win	True
508.366	0.35	Win2	0.6667000000000001	n/a	Yes	2.932	n/a	n/a	GoodResponse	1	n/a	n/a	5	53	Blank	Win	True
508.717	1.45	Win2	0.6667000000000001	n/a	Yes	2.932	n/a	5.0	GoodResponse	1	0.035	507.752	5	53	Feedback	Win	True
510.171	2.932	Win2	0.6667000000000001	n/a	Yes	2.932	n/a	n/a	GoodResponse	1	0.0	n/a	5	53	ISIslide	Win	True
513.13	0.25	Win2	0.6727	0.0	Yes	2.72	0.03	n/a	GoodResponse	1	n/a	n/a	6	54	Cue	Win	True
513.381	3.95	Win2	0.6727	0.0	Yes	2.72	0.001	n/a	GoodResponse	1	n/a	n/a	6	54	Fixation	Win	True
517.326	0.34	Win2	0.6727	0.004	Yes	2.72	-0.004	2.0	GoodResponse	1	0.213	516.539	6	54	Target	Win	True
517.539	0.3	Win2	0.6727	0.004	Yes	2.72	-0.004	2.0	GoodResponse	1	0.213	n/a	6	54	ButtonPress	Win	True
517.677	0.36	Win2	0.6727	n/a	Yes	2.72	n/a	n/a	GoodResponse	1	n/a	n/a	6	54	Blank	Win	True
518.028	1.45	Win2	0.6727	n/a	Yes	2.72	n/a	5.0	GoodResponse	1	0.041	517.069	6	54	Feedback	Win	True
519.482	2.72	Win2	0.6727	n/a	Yes	2.72	n/a	n/a	GoodResponse	1	0.0	n/a	6	54	ISIslide	Win	True
522.224	0.25	Control	0.6786	0.0	Yes	3.026	0.024	n/a	GoodResponse	0	n/a	n/a	6	55	Cue	Neutral	True
522.475	3.95	Control	0.6786	0.0	Yes	3.026	0.001	n/a	GoodResponse	0	n/a	n/a	6	55	Fixation	Neutral	True
526.42	0.33	Control	0.6786	0.004	Yes	3.026	-0.004	2.0	GoodResponse	0	0.183	525.603	6	55	Target	Neutral	True
526.603	0.3	Control	0.6786	0.004	Yes	3.026	-0.004	2.0	GoodResponse	0	0.183	n/a	6	55	ButtonPress	Neutral	True
526.754	0.37	Control	0.6786	n/a	Yes	3.026	n/a	n/a	GoodResponse	0	n/a	n/a	6	55	Blank	Neutral	True
527.122	1.45	Control	0.6786	n/a	Yes	3.026	n/a	5.0	GoodResponse	0	0.02	526.142	6	55	Feedback	Neutral	True
528.576	3.026	Control	0.6786	n/a	Yes	3.026	n/a	n/a	GoodResponse	0	0.0	n/a	6	55	ISIslide	Neutral	True
531.619	0.25	Control	0.6842	0.0	Yes	2.831	0.019	n/a	GoodResponse	0	n/a	n/a	6	56	Cue	Neutral	True
531.869	3.95	Control	0.6842	0.0	Yes	2.831	0.0	n/a	GoodResponse	0	n/a	n/a	6	56	Fixation	Neutral	True
535.815	0.32	Control	0.6842	0.004	Yes	2.831	-0.004	2.0	GoodResponse	0	0.191	535.006	6	56	Target	Neutral	True
536.006	0.3	Control	0.6842	0.004	Yes	2.831	-0.004	2.0	GoodResponse	0	0.191	n/a	6	56	ButtonPress	Neutral	True
536.149	0.38	Control	0.6842	n/a	Yes	2.831	n/a	n/a	GoodResponse	0	n/a	n/a	6	56	Blank	Neutral	True
536.517	1.45	Control	0.6842	n/a	Yes	2.831	n/a	5.0	GoodResponse	0	0.04	535.557	6	56	Feedback	Neutral	True
537.971	2.831	Control	0.6842	n/a	Yes	2.831	n/a	n/a	GoodResponse	0	0.0	n/a	6	56	ISIslide	Neutral	True
540.83	0.25	Control	0.6897	0.0	Yes	3.47	0.03	n/a	GoodResponse	0	n/a	n/a	6	57	Cue	Neutral	True
541.08	4.0	Control	0.6897	0.0	Yes	3.47	0.0	n/a	GoodResponse	0	n/a	n/a	6	57	Fixation	Neutral	True
545.076	0.31	Control	0.6897	0.004	Yes	3.47	-0.004	2.0	GoodResponse	0	0.201	544.277	6	57	Target	Neutral	True
545.277	0.3	Control	0.6897	0.004	Yes	3.47	-0.004	2.0	GoodResponse	0	0.201	n/a	6	57	ButtonPress	Neutral	True
545.393	0.39	Control	0.6897	n/a	Yes	3.47	n/a	n/a	GoodResponse	0	n/a	n/a	6	57	Blank	Neutral	True
545.778	1.45	Control	0.6897	n/a	Yes	3.47	n/a	5.0	GoodResponse	0	0.046	544.824	6	57	Feedback	Neutral	True
547.232	3.47	Control	0.6897	n/a	Yes	3.47	n/a	n/a	GoodResponse	0	0.0	n/a	6	57	ISIslide	Neutral	True
550.726	0.25	Win2	0.6949	0.0	Yes	2.724	0.026	n/a	GoodResponse	1	n/a	n/a	7	58	Cue	Win	True
550.977	4.05	Win2	0.6949	0.0	Yes	2.724	0.001	n/a	GoodResponse	1	n/a	n/a	7	58	Fixation	Win	True
555.022	0.3	Win2	0.6949	0.004	Yes	2.724	-0.004	2.0	GoodResponse	1	0.171	554.193	7	58	Target	Win	True
555.193	0.3	Win2	0.6949	0.004	Yes	2.724	-0.004	2.0	GoodResponse	1	0.171	n/a	7	58	ButtonPress	Win	True
555.323	0.4	Win2	0.6949	n/a	Yes	2.724	n/a	n/a	GoodResponse	1	n/a	n/a	7	58	Blank	Win	True
555.724	1.45	Win2	0.6949	n/a	Yes	2.724	n/a	5.0	GoodResponse	1	0.008	554.732	7	58	Feedback	Win	True
557.178	2.724	Win2	0.6949	n/a	Yes	2.724	n/a	n/a	GoodResponse	1	0.0	n/a	7	58	ISIslide	Win	True
559.92	0.25	Lose2	0.7	0.0	Yes	2.68	0.02	n/a	GoodResponse	0	n/a	n/a	7	59	Cue	AvoidedLoss	True
560.171	4.0	Lose2	0.7	0.0	Yes	2.68	0.001	n/a	GoodResponse	0	n/a	n/a	7	59	Fixation	AvoidedLoss	True
564.166	0.29	Lose2	0.7	0.004	Yes	2.68	-0.004	2.0	GoodResponse	0	0.178	563.344	7	59	Target	AvoidedLoss	True
564.344	0.3	Lose2	0.7	0.004	Yes	2.68	-0.004	2.0	GoodResponse	0	0.178	n/a	7	59	ButtonPress	AvoidedLoss	True
564.467	0.41	Lose2	0.7	n/a	Yes	2.68	n/a	n/a	GoodResponse	0	n/a	n/a	7	59	Blank	AvoidedLoss	True
564.868	1.45	Lose2	0.7	n/a	Yes	2.68	n/a	5.0	GoodResponse	0	0.029	563.897	7	59	Feedback	AvoidedLoss	True
566.322	2.68	Lose2	0.7	n/a	Yes	2.68	n/a	n/a	GoodResponse	0	0.0	n/a	7	59	ISIslide	AvoidedLoss	True
569.031	0.25	Control	0.7049	0.0	Yes	2.669	0.031	n/a	GoodResponse	0	n/a	n/a	7	60	Cue	Neutral	True
569.281	4.0	Control	0.7049	0.0	Yes	2.669	0.0	n/a	GoodResponse	0	n/a	n/a	7	60	Fixation	Neutral	True
573.277	0.28	Control	0.7049	0.004	Yes	2.669	-0.004	2.0	GoodResponse	0	0.2	572.477	7	60	Target	Neutral	True
573.477	0.3	Control	0.7049	0.004	Yes	2.669	-0.004	2.0	GoodResponse	0	0.2	n/a	7	60	ButtonPress	Neutral	True
573.561	0.42	Control	0.7049	n/a	Yes	2.669	n/a	n/a	GoodResponse	0	n/a	n/a	7	60	Blank	Neutral	True
573.979	1.45	Control	0.7049	n/a	Yes	2.669	n/a	5.0	GoodResponse	0	0.041	573.02	7	60	Feedback	Neutral	True
575.433	2.669	Control	0.7049	n/a	Yes	2.669	n/a	n/a	GoodResponse	0	0.0	n/a	7	60	ISIslide	Neutral	True
578.124	0.25	Lose2	0.7097	0.001	Yes	2.976	0.024	n/a	GoodResponse	0	n/a	n/a	7	61	Cue	AvoidedLoss	True
578.375	4.0	Lose2	0.7097	0.0	Yes	2.976	0.001	n/a	GoodResponse	0	n/a	n/a	7	61	Fixation	AvoidedLoss	True
582.371	0.27	Lose2	0.7097	0.003	Yes	2.976	-0.003	2.0	GoodResponse	0	0.2	581.571	7	61	Target	AvoidedLoss	True
582.571	0.3	Lose2	0.7097	0.003	Yes	2.976	-0.003	2.0	GoodResponse	0	0.2	n/a	7	61	ButtonPress	AvoidedLoss	True
582.655	0.43	Lose2	0.7097	n/a	Yes	2.976	n/a	n/a	GoodResponse	0	n/a	n/a	7	61	Blank	AvoidedLoss	True
583.073	1.45	Lose2	0.7097	n/a	Yes	2.976	n/a	5.0	GoodResponse	0	0.02	582.093	7	61	Feedback	AvoidedLoss	True
584.527	2.976	Lose2	0.7097	n/a	Yes	2.976	n/a	n/a	GoodResponse	0	0.0	n/a	7	61	ISIslide	AvoidedLoss	True
587.519	0.25	Lose2	0.7143	0.0	Yes	2.881	0.019	n/a	GoodResponse	0	n/a	n/a	7	62	Cue	AvoidedLoss	True
587.77	3.9	Lose2	0.7143	0.0	Yes	2.881	0.001	n/a	GoodResponse	0	n/a	n/a	7	62	Fixation	AvoidedLoss	True
591.665	0.26	Lose2	0.7143	0.004	Yes	2.881	-0.004	2.0	GoodResponse	0	0.19	590.855	7	62	Target	AvoidedLoss	True
591.855	0.3	Lose2	0.7143	0.004	Yes	2.881	-0.004	2.0	GoodResponse	0	0.19	n/a	7	62	ButtonPress	AvoidedLoss	True
591.933	0.44	Lose2	0.7143	n/a	Yes	2.881	n/a	n/a	GoodResponse	0	n/a	n/a	7	62	Blank	AvoidedLoss	True
592.367	1.45	Lose2	0.7143	n/a	Yes	2.881	n/a	5.0	GoodResponse	0	0.042	591.409	7	62	Feedback	AvoidedLoss	True
593.821	2.881	Lose2	0.7143	n/a	Yes	2.881	n/a	n/a	GoodResponse	0	0.0	n/a	7	62	ISIslide	AvoidedLoss	True
596.73	0.25	Lose2	0.7188	0.0	Yes	2.62	0.03	n/a	GoodResponse	0	n/a	n/a	7	63	Cue	AvoidedLoss	True
596.981	4.05	Lose2	0.7188	0.0	Yes	2.62	0.001	n/a	GoodResponse	0	n/a	n/a	7	63	Fixation	AvoidedLoss	True
601.026	0.25	Lose2	0.7188	0.004	Yes	2.62	-0.004	2.0	GoodResponse	0	0.181	600.207	7	63	Target	AvoidedLoss	True
601.207	0.3	Lose2	0.7188	0.004	Yes	2.62	-0.004	2.0	GoodResponse	0	0.181	n/a	7	63	ButtonPress	AvoidedLoss	True
601.277	0.45	Lose2	0.7188	n/a	Yes	2.62	n/a	n/a	GoodResponse	0	n/a	n/a	7	63	Blank	AvoidedLoss	True
601.728	1.45	Lose2	0.7188	n/a	Yes	2.62	n/a	5.0	GoodResponse	0	0.047	600.775	7	63	Feedback	AvoidedLoss	True
603.183	2.62	Lose2	0.7188	n/a	Yes	2.62	n/a	n/a	GoodResponse	0	0.0	n/a	7	63	ISIslide	AvoidedLoss	True
605.824	0.25	Win2	0.7231000000000001	0.0	Yes	3.126	0.024	n/a	GoodResponse	1	n/a	n/a	8	64	Cue	Win	True
606.075	4.15	Win2	0.7231000000000001	0.0	Yes	3.126	0.001	n/a	GoodResponse	1	n/a	n/a	8	64	Fixation	Win	True
610.221	0.24	Win2	0.7231000000000001	0.003	Yes	3.126	-0.003	2.0	GoodResponse	1	0.186	609.407	8	64	Target	Win	True
610.407	0.3	Win2	0.7231000000000001	0.003	Yes	3.126	-0.003	2.0	GoodResponse	1	0.186	n/a	8	64	ButtonPress	Win	True
610.471	0.46	Win2	0.7231000000000001	n/a	Yes	3.126	n/a	n/a	GoodResponse	1	n/a	n/a	8	64	Blank	Win	True
610.923	1.45	Win2	0.7231000000000001	n/a	Yes	3.126	n/a	5.0	GoodResponse	1	0.023	609.946	8	64	Feedback	Win	True
612.377	3.126	Win2	0.7231000000000001	n/a	Yes	3.126	n/a	n/a	GoodResponse	1	0.0	n/a	8	64	ISIslide	Win	True
615.52	0.25	Control	0.7273000000000001	0.0	Yes	2.78	0.02	n/a	GoodResponse	0	n/a	n/a	8	65	Cue	Neutral	True
615.771	4.0	Control	0.7273000000000001	0.0	Yes	2.78	0.001	n/a	GoodResponse	0	n/a	n/a	8	65	Fixation	Neutral	True
619.766	0.23	Control	0.7273000000000001	0.004	Yes	2.78	-0.004	2.0	GoodResponse	0	0.198	618.964	8	65	Target	Neutral	True
619.964	0.3	Control	0.7273000000000001	0.004	Yes	2.78	-0.004	2.0	GoodResponse	0	0.198	n/a	8	65	ButtonPress	Neutral	True
620	0.47	Control	0.7273000000000001	n/a	Yes	2.78	n/a	n/a	GoodResponse	0	n/a	n/a	8	65	Blank	Neutral	True
620.468	1.45	Control	0.7273000000000001	n/a	Yes	2.78	n/a	5.0	GoodResponse	0	0.039	619.507	8	65	Feedback	Neutral	True
621.922	2.78	Control	0.7273000000000001	n/a	Yes	2.78	n/a	n/a	GoodResponse	0	0.0	n/a	8	65	ISIslide	Neutral	True
624.731	0.25	Win2	0.7313	0.0	Yes	2.769	0.031	n/a	GoodResponse	1	n/a	n/a	9	66	Cue	Win	True
624.981	3.9	Win2	0.7313	0.0	Yes	2.769	0.0	n/a	GoodResponse	1	n/a	n/a	9	66	Fixation	Win	True
628.893	0.22	Win2	0.7313	0.0	Yes	2.769	0.012	2.0	GoodResponse	1	0.202	628.095	9	66	Target	Win	True
629.095	0.3	Win2	0.7313	0.0	Yes	2.769	0.012	2.0	GoodResponse	1	0.202	n/a	9	66	ButtonPress	Win	True
629.11	0.48	Win2	0.7313	n/a	Yes	2.769	n/a	n/a	GoodResponse	1	n/a	n/a	9	66	Blank	Win	True
629.579	1.45	Win2	0.7313	n/a	Yes	2.769	n/a	5.0	GoodResponse	1	0.001	628.58	9	66	Feedback	Win	True
631.033	2.769	Win2	0.7313	n/a	Yes	2.769	n/a	n/a	GoodResponse	1	0.0	n/a	9	66	ISIslide	Win	True
633.825	0.25	Control	0.7353000000000001	0.0	Yes	2.725	0.025	n/a	GoodResponse	0	n/a	n/a	9	67	Cue	Neutral	True
634.075	3.95	Control	0.7353000000000001	0.0	Yes	2.725	0.0	n/a	GoodResponse	0	n/a	n/a	9	67	Fixation	Neutral	True
638.037	0.21	Control	0.7353000000000001	0.0	Yes	2.725	0.012	2.0	GoodResponse	0	0.188	637.225	9	67	Target	Neutral	True
638.225	0.3	Control	0.7353000000000001	0.0	Yes	2.725	0.012	2.0	GoodResponse	0	0.188	n/a	9	67	ButtonPress	Neutral	True
638.238	0.49	Control	0.7353000000000001	n/a	Yes	2.725	n/a	n/a	GoodResponse	0	n/a	n/a	9	67	Blank	Neutral	True
638.723	1.45	Control	0.7353000000000001	n/a	Yes	2.725	n/a	5.0	GoodResponse	0	0.028	637.751	9	67	Feedback	Neutral	True
640.177	2.725	Control	0.7353000000000001	n/a	Yes	2.725	n/a	n/a	GoodResponse	0	0.0	n/a	9	67	ISIslide	Neutral	True
642.918	0.25	Win2	0.7391	0.001	Yes	3.082	0.018	n/a	GoodResponse	1	n/a	n/a	10	68	Cue	Win	True
643.169	4.0	Win2	0.7391	0.0	Yes	3.082	0.001	n/a	GoodResponse	1	n/a	n/a	10	68	Fixation	Win	True
647.164	0.2	Win2	0.7391	0.004	Yes	3.082	-0.004	2.0	GoodResponse	1	0.199	646.363	10	68	Target	Win	True
647.363	0.3	Win2	0.7391	0.004	Yes	3.082	-0.004	2.0	GoodResponse	1	0.199	n/a	10	68	ButtonPress	Win	True
647.365	0.5	Win2	0.7391	n/a	Yes	3.082	n/a	n/a	GoodResponse	1	n/a	n/a	10	68	Blank	Win	True
647.867	1.45	Win2	0.7391	n/a	Yes	3.082	n/a	5.0	GoodResponse	1	0.007	646.874	10	68	Feedback	Win	True
649.321	3.082	Win2	0.7391	n/a	Yes	3.082	n/a	n/a	GoodResponse	1	0.0	n/a	10	68	ISIslide	Win	True
652.43	0.25	Win2	0.7429000000000001	0.0	Yes	3.22	0.03	n/a	GoodResponse	1	n/a	n/a	11	69	Cue	Win	True
652.681	3.95	Win2	0.7429000000000001	0.0	Yes	3.22	0.001	n/a	GoodResponse	1	n/a	n/a	11	69	Fixation	Win	True
656.626	0.19	Win2	0.7429000000000001	0.004	Yes	3.22	-0.004	2.0	GoodResponse	1	0.186	655.812	11	69	Target	Win	True
656.812	0.3	Win2	0.7429000000000001	0.004	Yes	3.22	-0.004	2.0	GoodResponse	1	0.186	n/a	11	69	ButtonPress	Win	True
656.827	0.51	Win2	0.7429000000000001	n/a	Yes	3.22	n/a	n/a	GoodResponse	1	n/a	n/a	11	69	Blank	Win	True
657.328	1.45	Win2	0.7429000000000001	n/a	Yes	3.22	n/a	5.0	GoodResponse	1	0.008	656.336	11	69	Feedback	Win	True
658.783	3.22	Win2	0.7429000000000001	n/a	Yes	3.22	n/a	n/a	GoodResponse	1	0.0	n/a	11	69	ISIslide	Win	True
662.026	0.25	Lose2	0.7323999999999999	0.0	No	3.024	0.026	n/a	PrematurePress	-1	n/a	n/a	10	70	Cue	Loss	True
662.276	4.05	Lose2	0.7323999999999999	0.0	No	3.024	0.0	n/a	PrematurePress	-1	n/a	n/a	10	70	Fixation	Loss	True
666.322	0.18	Lose2	0.7323999999999999	0.004	No	3.024	-0.004	2.0	PrematurePress	-1	0.036	665.358	10	70	Target	Loss	True
666.358	0.3	Lose2	0.7323999999999999	0.004	No	3.024	-0.004	2.0	PrematurePress	-1	0.036	n/a	10	70	ButtonPress	Loss	True
666.506	0.52	Lose2	0.7323999999999999	n/a	No	3.024	n/a	n/a	PrematurePress	-1	n/a	n/a	10	70	Blank	Loss	True
667.024	1.45	Lose2	0.7323999999999999	n/a	No	3.024	n/a	5.0	PrematurePress	-1	0.019	666.043	10	70	Feedback	Loss	True
668.478	3.024	Lose2	0.7323999999999999	n/a	No	3.024	n/a	n/a	PrematurePress	-1	0.0	n/a	10	70	ISIslide	Loss	True
671.521	0.25	Win2	0.7222	0.0	No	2.729	0.021	n/a	LatePress	0	n/a	n/a	10	71	Cue	MissedWin	True
671.771	4.05	Win2	0.7222	0.001	No	2.729	0.0	n/a	LatePress	0	n/a	n/a	10	71	Fixation	MissedWin	True
675.817	0.17	Win2	0.7222	0.004	No	2.729	-0.004	2.0	LatePress	0	0.17	674.987	10	71	Target	MissedWin	True
675.987	0.3	Win2	0.7222	0.004	No	2.729	-0.004	2.0	LatePress	0	0.17	n/a	10	71	ButtonPress	MissedWin	True
676.001	0.53	Win2	0.7222	n/a	No	2.729	n/a	n/a	LatePress	0	n/a	n/a	10	71	Blank	MissedWin	True
676.519	1.45	Win2	0.7222	n/a	No	2.729	n/a	5.0	LatePress	0	0.036	675.555	10	71	Feedback	MissedWin	True
677.973	2.729	Win2	0.7222	n/a	No	2.729	n/a	n/a	LatePress	0	0.0	n/a	10	71	ISIslide	MissedWin	True
680.732	0.25	Win2	0.7123	0.0	No	2.768	0.032	n/a	NoResponse	0	n/a	n/a	10	72	Cue	MissedWin	True
680.982	4.1	Win2	0.7123	0.0	No	2.768	0.0	n/a	NoResponse	0	n/a	n/a	10	72	Fixation	MissedWin	True
685.078	0.16	Win2	0.7123	0.004	No	2.768	-0.004	2.0	NoResponse	0	0.199	684.277	10	72	Target	MissedWin	True
685.245	0.54	Win2	0.7123	n/a	No	2.768	n/a	n/a	NoResponse	0	n/a	n/a	10	72	Blank	MissedWin	True
685.277	0.3	Win2	0.7123	0.004	No	2.768	-0.004	2.0	NoResponse	0	0.199	n/a	10	72	ButtonPress	MissedWin	True
685.78	1.45	Win2	0.7123	n/a	No	2.768	n/a	5.0	NoResponse	0	0.044	684.824	10	72	Feedback	MissedWin	True
687.234	2.768	Win2	0.7123	n/a	No	2.768	n/a	n/a	NoResponse	0	0.0	n/a	10	72	ISIslide	MissedWin	True
690.026	0.25	Win2	0.7027	0.0	No	2.674	0.026	n/a	NoResponse	0	n/a	n/a	10	73	Cue	MissedWin	True
690.277	4.0	Win2	0.7027	0.0	No	2.674	0.001	n/a	NoResponse	0	n/a	n/a	10	73	Fixation	MissedWin	True
694.272	0.15	Win2	0.7027	0.004	No	2.674	-0.004	2.0	NoResponse	0	0.22	693.492	10	73	Target	MissedWin	True
694.423	0.55	Win2	0.7027	n/a	No	2.674	n/a	n/a	NoResponse	0	n/a	n/a	10	73	Blank	MissedWin	True
694.492	0.3	Win2	0.7027	0.004	No	2.674	-0.004	2.0	NoResponse	0	0.22	n/a	10	73	ButtonPress	MissedWin	True
694.974	1.45	Win2	0.7027	n/a	No	2.674	n/a	5.0	NoResponse	0	0.019	693.993	10	73	Feedback	MissedWin	True
696.429	2.674	Win2	0.7027	n/a	No	2.674	n/a	n/a	NoResponse	0	0.0	n/a	10	73	ISIslide	MissedWin	True
699.12	0.25	Lose2	0.6933	0.0	No	2.63	0.02	n/a	NoResponse	-1	n/a	n/a	9	74	Cue	Loss	True
699.371	4.05	Lose2	0.6933	0.0	No	2.63	0.001	n/a	NoResponse	-1	n/a	n/a	9	74	Fixation	Loss	True
703.416	0.15	Lose2	0.6933	0.004	No	2.63	-0.004	2.0	NoResponse	-1	0.172	702.588	9	74	Target	Loss	True
703.567	0.55	Lose2	0.6933	n/a	No	2.63	n/a	n/a	NoResponse	-1	n/a	n/a	9	74	Blank	Loss	True
703.588	0.3	Lose2	0.6933	0.004	No	2.63	-0.004	2.0	NoResponse	-1	0.172	n/a	9	74	ButtonPress	Loss	True
704.118	1.45	Lose2	0.6933	n/a	No	2.63	n/a	5.0	NoResponse	-1	0.046	703.164	9	74	Feedback	Loss	True
705.573	2.63	Lose2	0.6933	n/a	No	2.63	n/a	n/a	NoResponse	-1	0.0	n/a	9	74	ISIslide	Loss	True
708.231	0.25	Lose2	0.6842	0.0	No	2.919	0.031	n/a	NoResponse	-1	n/a	n/a	8	75	Cue	Loss	True
708.481	3.95	Lose2	0.6842	0.0	No	2.919	0.0	n/a	NoResponse	-1	n/a	n/a	8	75	Fixation	Loss	True
712.427	0.15	Lose2	0.6842	0.004	No	2.919	-0.004	2.0	NoResponse	-1	0.179	711.606	8	75	Target	Loss	True
712.577	0.55	Lose2	0.6842	n/a	No	2.919	n/a	n/a	NoResponse	-1	n/a	n/a	8	75	Blank	Loss	True
712.606	0.3	Lose2	0.6842	0.004	No	2.919	-0.004	2.0	NoResponse	-1	0.179	n/a	8	75	ButtonPress	Loss	True
713.129	1.45	Lose2	0.6842	n/a	No	2.919	n/a	5.0	NoResponse	-1	0.011	712.14	8	75	Feedback	Loss	True
714.583	2.919	Lose2	0.6842	n/a	No	2.919	n/a	n/a	NoResponse	-1	0.0	n/a	8	75	ISIslide	Loss	True
717.525	0.25	Control	0.6753	0.0	No	3.225	0.025	n/a	NoResponse	0	n/a	n/a	8	76	Cue	Neutral	True
717.776	4.05	Control	0.6753	0.0	No	3.225	0.001	n/a	NoResponse	0	n/a	n/a	8	76	Fixation	Neutral	True
721.821	0.15	Control	0.6753	0.004	No	3.225	-0.004	2.0	NoResponse	0	0.165	720.986	8	76	Target	Neutral	True
721.972	0.55	Control	0.6753	n/a	No	3.225	n/a	n/a	NoResponse	0	n/a	n/a	8	76	Blank	Neutral	True
721.986	0.3	Control	0.6753	0.004	No	3.225	-0.004	2.0	NoResponse	0	0.165	n/a	8	76	ButtonPress	Neutral	True
722.523	1.45	Control	0.6753	n/a	No	3.225	n/a	5.0	NoResponse	0	0.032	721.555	8	76	Feedback	Neutral	True
723.978	3.225	Control	0.6753	n/a	No	3.225	n/a	n/a	NoResponse	0	0.0	n/a	8	76	ISIslide	Neutral	True
727.221	0.25	Lose2	0.6667000000000001	0.0	No	2.579	0.021	n/a	NoResponse	-1	n/a	n/a	7	77	Cue	Loss	True
727.472	3.95	Lose2	0.6667000000000001	0.0	No	2.579	0.001	n/a	NoResponse	-1	n/a	n/a	7	77	Fixation	Loss	True
731.417	0.15	Lose2	0.6667000000000001	0.004	No	2.579	-0.004	2.0	NoResponse	-1	0.174	730.591	7	77	Target	Loss	True
731.567	0.55	Lose2	0.6667000000000001	n/a	No	2.579	n/a	n/a	NoResponse	-1	n/a	n/a	7	77	Blank	Loss	True
731.591	0.3	Lose2	0.6667000000000001	0.004	No	2.579	-0.004	2.0	NoResponse	-1	0.174	n/a	7	77	ButtonPress	Loss	True
732.119	1.45	Lose2	0.6667000000000001	n/a	No	2.579	n/a	5.0	NoResponse	-1	0.046	731.165	7	77	Feedback	Loss	True
733.573	2.579	Lose2	0.6667000000000001	n/a	No	2.579	n/a	n/a	NoResponse	-1	0.0	n/a	7	77	ISIslide	Loss	True
