onset	duration	cue_type	current_mean_accuracy	duration_error	is_hit	isi_adjusted	onset_delay	response	response_type	reward	rt	rt_time	total_reward	trial_number	trial_phase	trial_type	one_press
11.101	0.25	Control	1.0	0.0	Yes	2.949	0.001	n/a	GoodResponse	0	n/a	n/a	0	0	Cue	Neutral	True
11.351	3.85	Control	1.0	0.0	Yes	2.949	0.0	n/a	GoodResponse	0	n/a	n/a	0	0	Fixation	Neutral	True
15.199	0.4	Control	1.0	0.002	Yes	2.949	-0.002	4.0	GoodResponse	0	0.235	14.434	0	0	Target	Neutral	True
15.434	0.3	Control	1.0	0.002	Yes	2.949	-0.002	4.0	GoodResponse	0	0.235	n/a	0	0	ButtonPress	Neutral	True
15.599	0.3	Control	1.0	n/a	Yes	2.949	n/a	n/a	GoodResponse	0	n/a	n/a	0	0	Blank	Neutral	True
15.899	1.45	Control	1.0	n/a	Yes	2.949	n/a	5.0	GoodResponse	0	0.028	14.927	0	0	Feedback	Neutral	True
17.349	2.949	Control	1.0	n/a	Yes	2.949	n/a	n/a	GoodResponse	0	0.0	n/a	0	0	ISIslide	Neutral	True
20.331	0.25	Lose2	1.0	0.0	Yes	2.769	0.031	n/a	GoodResponse	0	n/a	n/a	0	1	Cue	AvoidedLoss	True
20.581	4.0	Lose2	1.0	0.0	Yes	2.769	0.0	n/a	GoodResponse	0	n/a	n/a	0	1	Fixation	AvoidedLoss	True
24.579	0.39	Lose2	1.0	0.002	Yes	2.769	-0.002	4.0	GoodResponse	0	0.239	23.818	0	1	Target	AvoidedLoss	True
24.818	0.3	Lose2	1.0	0.002	Yes	2.769	-0.002	4.0	GoodResponse	0	0.239	n/a	0	1	ButtonPress	AvoidedLoss	True
24.979	0.31	Lose2	1.0	n/a	Yes	2.769	n/a	n/a	GoodResponse	0	n/a	n/a	0	1	Blank	AvoidedLoss	True
25.279	1.45	Lose2	1.0	n/a	Yes	2.769	n/a	5.0	GoodResponse	0	0.014	24.293	0	1	Feedback	AvoidedLoss	True
26.729	2.769	Lose2	1.0	n/a	Yes	2.769	n/a	n/a	GoodResponse	0	0.0	n/a	0	1	ISIslide	AvoidedLoss	True
29.528	0.25	Control	1.0	0.0	Yes	2.572	0.028	n/a	GoodResponse	0	n/a	n/a	0	2	Cue	Neutral	True
29.778	4.1	Control	1.0	0.0	Yes	2.572	0.0	n/a	GoodResponse	0	n/a	n/a	0	2	Fixation	Neutral	True
33.876	0.38	Control	1.0	0.002	Yes	2.572	-0.002	4.0	GoodResponse	0	0.209	33.085	0	2	Target	Neutral	True
34.085	0.3	Control	1.0	0.002	Yes	2.572	-0.002	4.0	GoodResponse	0	0.209	n/a	0	2	ButtonPress	Neutral	True
34.259	0.32	Control	1.0	n/a	Yes	2.572	n/a	n/a	GoodResponse	0	n/a	n/a	0	2	Blank	Neutral	True
34.576	1.45	Control	1.0	n/a	Yes	2.572	n/a	5.0	GoodResponse	0	0.034	33.61	0	2	Feedback	Neutral	True
36.026	2.572	Control	1.0	n/a	Yes	2.572	n/a	n/a	GoodResponse	0	0.0	n/a	0	2	ISIslide	Neutral	True
38.625	0.25	Win2	1.0	0.0	Yes	2.825	0.025	n/a	GoodResponse	1	n/a	n/a	1	3	Cue	Win	True
38.875	3.95	Win2	1.0	0.0	Yes	2.825	0.0	n/a	GoodResponse	1	n/a	n/a	1	3	Fixation	Win	True
42.823	0.37	Win2	1.0	0.002	Yes	2.825	-0.002	4.0	GoodResponse	1	0.229	42.052	1	3	Target	Win	True
43.052	0.3	Win2	1.0	0.002	Yes	2.825	-0.002	4.0	GoodResponse	1	0.229	n/a	1	3	ButtonPress	Win	True
43.206	0.33	Win2	1.0	n/a	Yes	2.825	n/a	n/a	GoodResponse	1	n/a	n/a	1	3	Blank	Win	True
43.523	1.45	Win2	1.0	n/a	Yes	2.825	n/a	5.0	GoodResponse	1	0.014	42.537	1	3	Feedback	Win	True
44.972	2.825	Win2	1.0	n/a	Yes	2.825	n/a	n/a	GoodResponse	1	0.0	n/a	1	3	ISIslide	Win	True
47.822	0.25	Win2	1.0	0.0	Yes	3.278	0.022	n/a	GoodResponse	1	n/a	n/a	2	4	Cue	Win	True
48.071	4.0	Win2	1.0	0.001	Yes	3.278	-0.001	n/a	GoodResponse	1	n/a	n/a	2	4	Fixation	Win	True
52.07	0.36	Win2	1.0	0.002	Yes	3.278	-0.002	4.0	GoodResponse	1	0.24	51.31	2	4	Target	Win	True
52.31	0.3	Win2	1.0	0.002	Yes	3.278	-0.002	4.0	GoodResponse	1	0.24	n/a	2	4	ButtonPress	Win	True
52.437	0.34	Win2	1.0	n/a	Yes	3.278	n/a	n/a	GoodResponse	1	n/a	n/a	2	4	Blank	Win	True
52.77	1.45	Win2	1.0	n/a	Yes	3.278	n/a	5.0	GoodResponse	1	0.034	51.804	2	4	Feedback	Win	True
54.219	3.278	Win2	1.0	n/a	Yes	3.278	n/a	n/a	GoodResponse	1	0.0	n/a	2	4	ISIslide	Win	True
57.518	0.25	Win2	1.0	0.0	Yes	2.782	0.018	n/a	GoodResponse	1	n/a	n/a	3	5	Cue	Win	True
57.768	4.0	Win2	1.0	0.0	Yes	2.782	0.0	n/a	GoodResponse	1	n/a	n/a	3	5	Fixation	Win	True
61.767	0.35	Win2	1.0	0.001	Yes	2.782	-0.001	4.0	GoodResponse	1	0.217	60.984	3	5	Target	Win	True
61.984	0.3	Win2	1.0	0.001	Yes	2.782	-0.001	4.0	GoodResponse	1	0.217	n/a	3	5	ButtonPress	Win	True
62.117	0.35	Win2	1.0	n/a	Yes	2.782	n/a	n/a	GoodResponse	1	n/a	n/a	3	5	Blank	Win	True
62.467	1.45	Win2	1.0	n/a	Yes	2.782	n/a	5.0	GoodResponse	1	0.045	61.512	3	5	Feedback	Win	True
63.916	2.782	Win2	1.0	n/a	Yes	2.782	n/a	n/a	GoodResponse	1	0.0	n/a	3	5	ISIslide	Win	True
66.715	0.25	Lose2	1.0	0.0	Yes	2.735	0.015	n/a	GoodResponse	0	n/a	n/a	3	6	Cue	AvoidedLoss	True
66.965	3.95	Lose2	1.0	0.0	Yes	2.735	0.0	n/a	GoodResponse	0	n/a	n/a	3	6	Fixation	AvoidedLoss	True
70.914	0.34	Lose2	1.0	0.001	Yes	2.735	-0.001	4.0	GoodResponse	0	0.216	70.13	3	6	Target	AvoidedLoss	True
71.13	0.3	Lose2	1.0	0.001	Yes	2.735	-0.001	4.0	GoodResponse	0	0.216	n/a	3	6	ButtonPress	AvoidedLoss	True
71.263	0.36	Lose2	1.0	n/a	Yes	2.735	n/a	n/a	GoodResponse	0	n/a	n/a	3	6	Blank	AvoidedLoss	True
71.613	1.45	Lose2	1.0	n/a	Yes	2.735	n/a	5.0	GoodResponse	0	0.021	70.634	3	6	Feedback	AvoidedLoss	True
73.063	2.735	Lose2	1.0	n/a	Yes	2.735	n/a	n/a	GoodResponse	0	0.0	n/a	3	6	ISIslide	AvoidedLoss	True
75.812	0.25	Lose2	1.0	0.0	Yes	4.038	0.012	n/a	GoodResponse	0	n/a	n/a	3	7	Cue	AvoidedLoss	True
76.062	4.05	Lose2	1.0	0.0	Yes	4.038	0.0	n/a	GoodResponse	0	n/a	n/a	3	7	Fixation	AvoidedLoss	True
80.11	0.33	Lose2	1.0	0.002	Yes	4.038	-0.002	4.0	GoodResponse	0	0.32	79.43	3	7	Target	AvoidedLoss	True
80.43	0.3	Lose2	1.0	0.002	Yes	4.038	-0.002	4.0	GoodResponse	0	0.32	n/a	3	7	ButtonPress	AvoidedLoss	True
80.444	0.37	Lose2	1.0	n/a	Yes	4.038	n/a	n/a	GoodResponse	0	n/a	n/a	3	7	Blank	AvoidedLoss	True
80.81	1.45	Lose2	1.0	n/a	Yes	4.038	n/a	5.0	GoodResponse	0	0.043	79.853	3	7	Feedback	AvoidedLoss	True
82.26	4.038	Lose2	1.0	n/a	Yes	4.038	n/a	n/a	GoodResponse	0	0.0	n/a	3	7	ISIslide	AvoidedLoss	True
86.325	0.25	Lose2	1.0	0.0	Yes	3.025	0.025	n/a	GoodResponse	0	n/a	n/a	3	8	Cue	AvoidedLoss	True
86.575	3.95	Lose2	1.0	0.0	Yes	3.025	0.0	n/a	GoodResponse	0	n/a	n/a	3	8	Fixation	AvoidedLoss	True
90.524	0.32	Lose2	1.0	0.001	Yes	3.025	-0.001	4.0	GoodResponse	0	0.212	89.736	3	8	Target	AvoidedLoss	True
90.736	0.3	Lose2	1.0	0.001	Yes	3.025	-0.001	4.0	GoodResponse	0	0.212	n/a	3	8	ButtonPress	AvoidedLoss	True
90.857	0.38	Lose2	1.0	n/a	Yes	3.025	n/a	n/a	GoodResponse	0	n/a	n/a	3	8	Blank	AvoidedLoss	True
91.223	1.45	Lose2	1.0	n/a	Yes	3.025	n/a	5.0	GoodResponse	0	0.021	90.244	3	8	Feedback	AvoidedLoss	True
92.673	3.025	Lose2	1.0	n/a	Yes	3.025	n/a	n/a	GoodResponse	0	0.0	n/a	3	8	ISIslide	AvoidedLoss	True
95.722	0.25	Lose2	1.0	0.0	Yes	3.128	0.022	n/a	GoodResponse	0	n/a	n/a	3	9	Cue	AvoidedLoss	True
95.972	3.95	Lose2	1.0	0.0	Yes	3.128	0.0	n/a	GoodResponse	0	n/a	n/a	3	9	Fixation	AvoidedLoss	True
99.92	0.31	Lose2	1.0	0.002	Yes	3.128	-0.002	4.0	GoodResponse	0	0.219	99.139	3	9	Target	AvoidedLoss	True
100.139	0.3	Lose2	1.0	0.002	Yes	3.128	-0.002	4.0	GoodResponse	0	0.219	n/a	3	9	ButtonPress	AvoidedLoss	True
100.237	0.39	Lose2	1.0	n/a	Yes	3.128	n/a	n/a	GoodResponse	0	n/a	n/a	3	9	Blank	AvoidedLoss	True
100.62	1.45	Lose2	1.0	n/a	Yes	3.128	n/a	5.0	GoodResponse	0	0.038	99.658	3	9	Feedback	AvoidedLoss	True
102.07	3.128	Lose2	1.0	n/a	Yes	3.128	n/a	n/a	GoodResponse	0	0.0	n/a	3	9	ISIslide	AvoidedLoss	True
105.219	0.25	Control	1.0	0.0	Yes	3.281	0.019	n/a	GoodResponse	0	n/a	n/a	3	10	Cue	Neutral	True
105.468	4.0	Control	1.0	0.001	Yes	3.281	-0.001	n/a	GoodResponse	0	n/a	n/a	3	10	Fixation	Neutral	True
109.467	0.3	Control	1.0	0.002	Yes	3.281	-0.002	4.0	GoodResponse	0	0.246	108.713	3	10	Target	Neutral	True
109.713	0.3	Control	1.0	0.002	Yes	3.281	-0.002	4.0	GoodResponse	0	0.246	n/a	3	10	ButtonPress	Neutral	True
109.767	0.4	Control	1.0	n/a	Yes	3.281	n/a	n/a	GoodResponse	0	n/a	n/a	3	10	Blank	Neutral	True
110.167	1.45	Control	1.0	n/a	Yes	3.281	n/a	5.0	GoodResponse	0	0.005	109.172	3	10	Feedback	Neutral	True
111.616	3.281	Control	1.0	n/a	Yes	3.281	n/a	n/a	GoodResponse	0	0.0	n/a	3	10	ISIslide	Neutral	True
114.915	0.25	Lose2	0.9167000000000001	0.0	No	2.735	0.015	n/a	NoResponse	-1	n/a	n/a	2	11	Cue	Loss	False
115.165	4.05	Lose2	0.9167000000000001	0.0	No	2.735	0.0	n/a	NoResponse	-1	n/a	n/a	2	11	Fixation	Loss	False
119.214	0.29	Lose2	0.9167000000000001	0.001	No	2.735	-0.001	n/a	NoResponse	-1	n/a	n/a	2	11	Target	Loss	False
119.514	0.41	Lose2	0.9167000000000001	n/a	No	2.735	n/a	n/a	NoResponse	-1	n/a	n/a	2	11	Blank	Loss	False
119.914	1.45	Lose2	0.9167000000000001	n/a	No	2.735	n/a	5.0	NoResponse	-1	0.013	118.927	2	11	Feedback	Loss	False
121.363	2.735	Lose2	0.9167000000000001	n/a	No	2.735	n/a	n/a	NoResponse	-1	0.0	n/a	2	11	ISIslide	Loss	False
124.112	0.25	Control	0.9231	0.0	Yes	2.988	0.012	n/a	GoodResponse	0	n/a	n/a	2	12	Cue	Neutral	True
124.362	3.9	Control	0.9231	0.0	Yes	2.988	0.0	n/a	GoodResponse	0	n/a	n/a	2	12	Fixation	Neutral	True
128.261	0.28	Control	0.9231	0.001	Yes	2.988	-0.001	4.0	GoodResponse	0	0.231	127.492	2	12	Target	Neutral	True
128.492	0.3	Control	0.9231	0.001	Yes	2.988	-0.001	4.0	GoodResponse	0	0.231	n/a	2	12	ButtonPress	Neutral	True
128.544	0.42	Control	0.9231	n/a	Yes	2.988	n/a	n/a	GoodResponse	0	n/a	n/a	2	12	Blank	Neutral	True
128.96	1.45	Control	0.9231	n/a	Yes	2.988	n/a	5.0	GoodResponse	0	0.039	127.999	2	12	Feedback	Neutral	True
130.41	2.988	Control	0.9231	n/a	Yes	2.988	n/a	n/a	GoodResponse	0	0.0	n/a	2	12	ISIslide	Neutral	True
133.426	0.25	Control	0.8571	0.0	No	2.774	0.026	n/a	NoResponse	0	n/a	n/a	2	13	Cue	Neutral	True
133.675	4.0	Control	0.8571	0.001	No	2.774	-0.001	n/a	NoResponse	0	n/a	n/a	2	13	Fixation	Neutral	True
137.674	0.27	Control	0.8571	0.002	No	2.774	-0.002	4.0	NoResponse	0	0.329	137.003	2	13	Target	Neutral	True
137.957	0.43	Control	0.8571	n/a	No	2.774	n/a	n/a	NoResponse	0	n/a	n/a	2	13	Blank	Neutral	True
138.003	0.3	Control	0.8571	0.002	No	2.774	-0.002	4.0	NoResponse	0	0.329	n/a	2	13	ButtonPress	Neutral	True
138.374	1.45	Control	0.8571	n/a	No	2.774	n/a	5.0	NoResponse	0	0.04	137.414	2	13	Feedback	Neutral	True
139.823	2.774	Control	0.8571	n/a	No	2.774	n/a	n/a	NoResponse	0	0.0	n/a	2	13	ISIslide	Neutral	True
142.622	0.25	Win2	0.8667	0.0	Yes	2.678	0.022	n/a	GoodResponse	1	n/a	n/a	3	14	Cue	Win	True
142.872	4.1	Win2	0.8667	0.0	Yes	2.678	0.0	n/a	GoodResponse	1	n/a	n/a	3	14	Fixation	Win	True
146.971	0.26	Win2	0.8667	0.001	Yes	2.678	-0.001	4.0	GoodResponse	1	0.231	146.202	3	14	Target	Win	True
147.202	0.3	Win2	0.8667	0.001	Yes	2.678	-0.001	4.0	GoodResponse	1	0.231	n/a	3	14	ButtonPress	Win	True
147.237	0.44	Win2	0.8667	n/a	Yes	2.678	n/a	n/a	GoodResponse	1	n/a	n/a	3	14	Blank	Win	True
147.671	1.45	Win2	0.8667	n/a	Yes	2.678	n/a	5.0	GoodResponse	1	0.011	146.682	3	14	Feedback	Win	True
149.12	2.678	Win2	0.8667	n/a	Yes	2.678	n/a	n/a	GoodResponse	1	0.0	n/a	3	14	ISIslide	Win	True
151.819	0.25	Control	0.875	0.0	Yes	2.981	0.019	n/a	GoodResponse	0	n/a	n/a	3	15	Cue	Neutral	True
152.069	4.0	Control	0.875	0.0	Yes	2.981	0.0	n/a	GoodResponse	0	n/a	n/a	3	15	Fixation	Neutral	True
156.068	0.25	Control	0.875	0.001	Yes	2.981	-0.001	4.0	GoodResponse	0	0.243	155.311	3	15	Target	Neutral	True
156.311	0.3	Control	0.875	0.001	Yes	2.981	-0.001	4.0	GoodResponse	0	0.243	n/a	3	15	ButtonPress	Neutral	True
156.318	0.45	Control	0.875	n/a	Yes	2.981	n/a	n/a	GoodResponse	0	n/a	n/a	3	15	Blank	Neutral	True
156.768	1.45	Control	0.875	n/a	Yes	2.981	n/a	5.0	GoodResponse	0	0.036	155.804	3	15	Feedback	Neutral	True
158.217	2.981	Control	0.875	n/a	Yes	2.981	n/a	n/a	GoodResponse	0	0.0	n/a	3	15	ISIslide	Neutral	True
161.216	0.25	Win2	0.8234999999999999	0.0	No	2.884	0.016	n/a	LatePress	0	n/a	n/a	3	16	Cue	MissedWin	True
161.466	4.0	Win2	0.8234999999999999	0.0	No	2.884	0.0	n/a	LatePress	0	n/a	n/a	3	16	Fixation	MissedWin	True
165.465	0.24	Win2	0.8234999999999999	0.001	No	2.884	-0.001	4.0	LatePress	0	0.24	164.705	3	16	Target	MissedWin	True
165.705	0.3	Win2	0.8234999999999999	0.001	No	2.884	-0.001	4.0	LatePress	0	0.24	n/a	3	16	ButtonPress	MissedWin	True
165.714	0.46	Win2	0.8234999999999999	n/a	No	2.884	n/a	n/a	LatePress	0	n/a	n/a	3	16	Blank	MissedWin	True
166.164	1.45	Win2	0.8234999999999999	n/a	No	2.884	n/a	5.0	LatePress	0	0.006	165.17	3	16	Feedback	MissedWin	True
167.614	2.884	Win2	0.8234999999999999	n/a	No	2.884	n/a	n/a	LatePress	0	0.0	n/a	3	16	ISIslide	MissedWin	True
170.513	0.25	Lose2	0.7778	0.0	No	2.737	0.013	n/a	LatePress	-1	n/a	n/a	2	17	Cue	Loss	True
170.763	3.95	Lose2	0.7778	0.0	No	2.737	0.0	n/a	LatePress	-1	n/a	n/a	2	17	Fixation	Loss	True
174.711	0.23	Lose2	0.7778	0.002	No	2.737	-0.002	4.0	LatePress	-1	0.233	173.944	2	17	Target	Loss	True
174.944	0.3	Lose2	0.7778	0.002	No	2.737	-0.002	4.0	LatePress	-1	0.233	n/a	2	17	ButtonPress	Loss	True
174.945	0.47	Lose2	0.7778	n/a	No	2.737	n/a	n/a	LatePress	-1	n/a	n/a	2	17	Blank	Loss	True
175.411	1.45	Lose2	0.7778	n/a	No	2.737	n/a	5.0	LatePress	-1	0.028	174.439	2	17	Feedback	Loss	True
176.861	2.737	Lose2	0.7778	n/a	No	2.737	n/a	n/a	LatePress	-1	0.0	n/a	2	17	ISIslide	Loss	True
179.626	0.25	Lose2	0.7368000000000001	0.0	No	2.724	0.026	n/a	NoResponse	-1	n/a	n/a	1	18	Cue	Loss	False
179.876	4.05	Lose2	0.7368000000000001	0.0	No	2.724	0.0	4.0	NoResponse	-1	3.134	182.01	1	18	Fixation	Loss	False
183.01	0.3	Lose2	0.7368000000000001	0.0	No	2.724	0.0	4.0	NoResponse	-1	3.134	n/a	1	18	ButtonPress	Loss	False
183.925	0.22	Lose2	0.7368000000000001	0.001	No	2.724	-0.001	4.0	NoResponse	-1	0.258	183.183	1	18	Target	Loss	False
184.142	0.48	Lose2	0.7368000000000001	n/a	No	2.724	n/a	n/a	NoResponse	-1	n/a	n/a	1	18	Blank	Loss	False
184.183	0.3	Lose2	0.7368000000000001	0.001	No	2.724	-0.001	4.0	NoResponse	-1	0.258	n/a	1	18	ButtonPress	Loss	False
184.625	1.45	Lose2	0.7368000000000001	n/a	No	2.724	n/a	5.0	NoResponse	-1	0.033	183.658	1	18	Feedback	Loss	False
186.074	2.724	Lose2	0.7368000000000001	n/a	No	2.724	n/a	n/a	NoResponse	-1	0.0	n/a	1	18	ISIslide	Loss	False
188.823	0.25	Control	0.7	0.0	No	2.927	0.023	n/a	NoResponse	0	n/a	n/a	1	19	Cue	Neutral	True
189.073	3.95	Control	0.7	0.0	No	2.927	0.0	n/a	NoResponse	0	n/a	n/a	1	19	Fixation	Neutral	True
193.022	0.21	Control	0.7	0.001	No	2.927	-0.001	4.0	NoResponse	0	0.23	192.252	1	19	Target	Neutral	True
193.238	0.49	Control	0.7	n/a	No	2.927	n/a	n/a	NoResponse	0	n/a	n/a	1	19	Blank	Neutral	True
193.252	0.3	Control	0.7	0.001	No	2.927	-0.001	4.0	NoResponse	0	0.23	n/a	1	19	ButtonPress	Neutral	True
193.722	1.45	Control	0.7	n/a	No	2.927	n/a	5.0	NoResponse	0	0.01	192.732	1	19	Feedback	Neutral	True
195.171	2.927	Control	0.7	n/a	No	2.927	n/a	n/a	NoResponse	0	0.0	n/a	1	19	ISIslide	Neutral	True
198.12	0.25	Control	0.6667000000000001	0.0	No	2.63	0.02	n/a	NoResponse	0	n/a	n/a	1	20	Cue	Neutral	True
198.37	4.05	Control	0.6667000000000001	0.0	No	2.63	0.0	n/a	NoResponse	0	n/a	n/a	1	20	Fixation	Neutral	True
202.419	0.2	Control	0.6667000000000001	0.001	No	2.63	-0.001	4.0	NoResponse	0	0.289	201.708	1	20	Target	Neutral	True
202.619	0.5	Control	0.6667000000000001	n/a	No	2.63	n/a	n/a	NoResponse	0	n/a	n/a	1	20	Blank	Neutral	True
202.708	0.3	Control	0.6667000000000001	0.001	No	2.63	-0.001	4.0	NoResponse	0	0.289	n/a	1	20	ButtonPress	Neutral	True
203.118	1.45	Control	0.6667000000000001	n/a	No	2.63	n/a	5.0	NoResponse	0	0.028	202.146	1	20	Feedback	Neutral	True
204.568	2.63	Control	0.6667000000000001	n/a	No	2.63	n/a	4.0	NoResponse	0	2.357	n/a	1	20	ISIslide	Neutral	True
207.2	0.25	Control	0.6364	0.0	No	2.8	0.0	n/a	NoResponse	0	n/a	n/a	1	21	Cue	Neutral	True
207.45	4.1	Control	0.6364	0.0	No	2.8	0.0	n/a	NoResponse	0	n/a	n/a	1	21	Fixation	Neutral	True
211.549	0.19	Control	0.6364	0.001	No	2.8	-0.001	4.0	NoResponse	0	0.224	210.773	1	21	Target	Neutral	True
211.749	0.51	Control	0.6364	n/a	No	2.8	n/a	n/a	NoResponse	0	n/a	n/a	1	21	Blank	Neutral	True
211.773	0.3	Control	0.6364	0.001	No	2.8	-0.001	4.0	NoResponse	0	0.224	n/a	1	21	ButtonPress	Neutral	True
212.249	1.45	Control	0.6364	n/a	No	2.8	n/a	5.0	NoResponse	0	0.019	211.268	1	21	Feedback	Neutral	True
213.698	2.8	Control	0.6364	n/a	No	2.8	n/a	n/a	NoResponse	0	0.0	n/a	1	21	ISIslide	Neutral	True
216.514	0.25	Control	0.6087	0.0	No	2.786	0.014	n/a	NoResponse	0	n/a	n/a	1	22	Cue	Neutral	True
216.764	4.0	Control	0.6087	0.0	No	2.786	0.0	n/a	NoResponse	0	n/a	n/a	1	22	Fixation	Neutral	True
220.762	0.2	Control	0.6087	0.002	No	2.786	-0.002	4.0	NoResponse	0	0.256	220.018	1	22	Target	Neutral	True
220.962	0.5	Control	0.6087	n/a	No	2.786	n/a	n/a	NoResponse	0	n/a	n/a	1	22	Blank	Neutral	True
221.018	0.3	Control	0.6087	0.002	No	2.786	-0.002	4.0	NoResponse	0	0.256	n/a	1	22	ButtonPress	Neutral	True
221.462	1.45	Control	0.6087	n/a	No	2.786	n/a	5.0	NoResponse	0	0.025	220.487	1	22	Feedback	Neutral	True
222.912	2.786	Control	0.6087	n/a	No	2.786	n/a	n/a	NoResponse	0	0.0	n/a	1	22	ISIslide	Neutral	True
225.727	0.25	Control	0.5832999999999999	0.0	No	2.773	0.027	n/a	NoResponse	0	n/a	n/a	1	23	Cue	Neutral	True
225.977	3.9	Control	0.5832999999999999	0.0	No	2.773	0.0	n/a	NoResponse	0	n/a	n/a	1	23	Fixation	Neutral	True
229.876	0.21	Control	0.5832999999999999	0.001	No	2.773	-0.001	4.0	NoResponse	0	0.223	229.099	1	23	Target	Neutral	True
230.092	0.49	Control	0.5832999999999999	n/a	No	2.773	n/a	n/a	NoResponse	0	n/a	n/a	1	23	Blank	Neutral	True
230.099	0.3	Control	0.5832999999999999	0.001	No	2.773	-0.001	4.0	NoResponse	0	0.223	n/a	1	23	ButtonPress	Neutral	True
230.576	1.45	Control	0.5832999999999999	n/a	No	2.773	n/a	5.0	NoResponse	0	0.033	229.609	1	23	Feedback	Neutral	True
232.025	2.773	Control	0.5832999999999999	n/a	No	2.773	n/a	n/a	NoResponse	0	0.0	n/a	1	23	ISIslide	Neutral	True
234.824	0.25	Win2	0.56	0.0	No	3.126	0.024	n/a	NoResponse	0	n/a	n/a	1	24	Cue	MissedWin	True
235.074	3.95	Win2	0.56	0.0	No	3.126	0.0	n/a	NoResponse	0	n/a	n/a	1	24	Fixation	MissedWin	True
239.023	0.22	Win2	0.56	0.001	No	3.126	-0.001	4.0	NoResponse	0	0.226	238.249	1	24	Target	MissedWin	True
239.239	0.48	Win2	0.56	n/a	No	3.126	n/a	n/a	NoResponse	0	n/a	n/a	1	24	Blank	MissedWin	True
239.249	0.3	Win2	0.56	0.001	No	3.126	-0.001	4.0	NoResponse	0	0.226	n/a	1	24	ButtonPress	MissedWin	True
239.722	1.45	Win2	0.56	n/a	No	3.126	n/a	5.0	NoResponse	0	0.009	238.731	1	24	Feedback	MissedWin	True
241.172	3.126	Win2	0.56	n/a	No	3.126	n/a	n/a	NoResponse	0	0.0	n/a	1	24	ISIslide	MissedWin	True
244.321	0.25	Win2	0.5769	0.0	Yes	3.079	0.021	n/a	GoodResponse	1	n/a	n/a	2	25	Cue	Win	True
244.571	4.0	Win2	0.5769	0.0	Yes	3.079	0.0	n/a	GoodResponse	1	n/a	n/a	2	25	Fixation	Win	True
248.569	0.23	Win2	0.5769	0.002	Yes	3.079	-0.002	4.0	GoodResponse	1	0.193	247.762	2	25	Target	Win	True
248.762	0.3	Win2	0.5769	0.002	Yes	3.079	-0.002	4.0	GoodResponse	1	0.193	n/a	2	25	ButtonPress	Win	True
248.803	0.47	Win2	0.5769	n/a	Yes	3.079	n/a	n/a	GoodResponse	1	n/a	n/a	2	25	Blank	Win	True
249.269	1.45	Win2	0.5769	n/a	Yes	3.079	n/a	5.0	GoodResponse	1	0.023	248.292	2	25	Feedback	Win	True
250.719	3.079	Win2	0.5769	n/a	Yes	3.079	n/a	n/a	GoodResponse	1	0.0	n/a	2	25	ISIslide	Win	True
253.818	0.25	Win2	0.5926	0.0	Yes	2.932	0.018	n/a	GoodResponse	1	n/a	n/a	3	26	Cue	Win	True
254.068	3.95	Win2	0.5926	0.0	Yes	2.932	0.0	n/a	GoodResponse	1	n/a	n/a	3	26	Fixation	Win	True
258.016	0.24	Win2	0.5926	0.002	Yes	2.932	-0.002	4.0	GoodResponse	1	0.217	257.233	3	26	Target	Win	True
258.233	0.3	Win2	0.5926	0.002	Yes	2.932	-0.002	4.0	GoodResponse	1	0.217	n/a	3	26	ButtonPress	Win	True
258.266	0.46	Win2	0.5926	n/a	Yes	2.932	n/a	n/a	GoodResponse	1	n/a	n/a	3	26	Blank	Win	True
258.716	1.45	Win2	0.5926	n/a	Yes	2.932	n/a	5.0	GoodResponse	1	0.04	257.756	3	26	Feedback	Win	True
260.165	2.932	Win2	0.5926	n/a	Yes	2.932	n/a	n/a	GoodResponse	1	0.0	n/a	3	26	ISIslide	Win	True
263.114	0.25	Lose2	0.5714	0.001	No	2.836	0.014	n/a	NoResponse	-1	n/a	n/a	2	27	Cue	Loss	False
263.364	4.05	Lose2	0.5714	0.0	No	2.836	0.0	4.0	NoResponse	-1	3.696	266.06	2	27	Fixation	Loss	False
267.06	0.3	Lose2	0.5714	0.0	No	2.836	0.0	4.0	NoResponse	-1	3.696	n/a	2	27	ButtonPress	Loss	False
267.413	0.25	Lose2	0.5714	0.001	No	2.836	-0.001	4.0	NoResponse	-1	0.275	266.688	2	27	Target	Loss	False
267.663	0.45	Lose2	0.5714	n/a	No	2.836	n/a	n/a	NoResponse	-1	n/a	n/a	2	27	Blank	Loss	False
267.688	0.3	Lose2	0.5714	0.001	No	2.836	-0.001	4.0	NoResponse	-1	0.275	n/a	2	27	ButtonPress	Loss	False
268.113	1.45	Lose2	0.5714	n/a	No	2.836	n/a	5.0	NoResponse	-1	0.009	267.122	2	27	Feedback	Loss	False
269.562	2.836	Lose2	0.5714	n/a	No	2.836	n/a	n/a	NoResponse	-1	0.0	n/a	2	27	ISIslide	Loss	False
272.411	0.25	Control	0.5517	0.0	No	2.839	0.011	n/a	NoResponse	0	n/a	n/a	2	28	Cue	Neutral	True
272.661	4.05	Control	0.5517	0.0	No	2.839	0.0	n/a	NoResponse	0	n/a	n/a	2	28	Fixation	Neutral	True
276.71	0.26	Control	0.5517	0.001	No	2.839	-0.001	4.0	NoResponse	0	0.275	275.985	2	28	Target	Neutral	True
276.976	0.44	Control	0.5517	n/a	No	2.839	n/a	n/a	NoResponse	0	n/a	n/a	2	28	Blank	Neutral	True
276.985	0.3	Control	0.5517	0.001	No	2.839	-0.001	4.0	NoResponse	0	0.275	n/a	2	28	ButtonPress	Neutral	True
277.41	1.45	Control	0.5517	n/a	No	2.839	n/a	5.0	NoResponse	0	0.028	276.438	2	28	Feedback	Neutral	True
278.859	2.839	Control	0.5517	n/a	No	2.839	n/a	n/a	NoResponse	0	0.0	n/a	2	28	ISIslide	Neutral	True
281.725	0.25	Lose2	0.5667	0.0	Yes	2.825	0.025	n/a	GoodResponse	0	n/a	n/a	2	29	Cue	AvoidedLoss	True
281.975	3.95	Lose2	0.5667	0.0	Yes	2.825	0.0	n/a	GoodResponse	0	n/a	n/a	2	29	Fixation	AvoidedLoss	True
285.923	0.27	Lose2	0.5667	0.002	Yes	2.825	-0.002	4.0	GoodResponse	0	0.226	285.149	2	29	Target	AvoidedLoss	True
286.149	0.3	Lose2	0.5667	0.002	Yes	2.825	-0.002	4.0	GoodResponse	0	0.226	n/a	2	29	ButtonPress	AvoidedLoss	True
286.207	0.43	Lose2	0.5667	n/a	Yes	2.825	n/a	n/a	GoodResponse	0	n/a	n/a	2	29	Blank	AvoidedLoss	True
286.623	1.45	Lose2	0.5667	n/a	Yes	2.825	n/a	5.0	GoodResponse	0	0.035	285.658	2	29	Feedback	AvoidedLoss	True
288.073	2.825	Lose2	0.5667	n/a	Yes	2.825	n/a	n/a	GoodResponse	0	0.0	n/a	2	29	ISIslide	AvoidedLoss	True
290.922	0.25	Win2	0.5484	0.0	No	2.778	0.022	n/a	NoResponse	0	n/a	n/a	2	30	Cue	MissedWin	True
291.172	3.9	Win2	0.5484	0.0	No	2.778	0.0	n/a	NoResponse	0	n/a	n/a	2	30	Fixation	MissedWin	True
295.07	0.28	Win2	0.5484	0.002	No	2.778	-0.002	4.0	NoResponse	0	0.298	294.368	2	30	Target	MissedWin	True
295.353	0.42	Win2	0.5484	n/a	No	2.778	n/a	n/a	NoResponse	0	n/a	n/a	2	30	Blank	MissedWin	True
295.368	0.3	Win2	0.5484	0.002	No	2.778	-0.002	4.0	NoResponse	0	0.298	n/a	2	30	ButtonPress	MissedWin	True
295.77	1.45	Win2	0.5484	n/a	No	2.778	n/a	5.0	NoResponse	0	0.01	294.78	2	30	Feedback	MissedWin	True
297.219	2.778	Win2	0.5484	n/a	No	2.778	n/a	n/a	NoResponse	0	0.0	n/a	2	30	ISIslide	MissedWin	True
300.019	0.25	Lose2	0.5625	0.0	Yes	2.831	0.019	n/a	GoodResponse	0	n/a	n/a	2	31	Cue	AvoidedLoss	True
300.268	4.05	Lose2	0.5625	0.001	Yes	2.831	-0.001	n/a	GoodResponse	0	n/a	n/a	2	31	Fixation	AvoidedLoss	True
304.317	0.29	Lose2	0.5625	0.002	Yes	2.831	-0.002	4.0	GoodResponse	0	0.24	303.557	2	31	Target	AvoidedLoss	True
304.557	0.3	Lose2	0.5625	0.002	Yes	2.831	-0.002	4.0	GoodResponse	0	0.24	n/a	2	31	ButtonPress	AvoidedLoss	True
304.617	0.41	Lose2	0.5625	n/a	Yes	2.831	n/a	n/a	GoodResponse	0	n/a	n/a	2	31	Blank	AvoidedLoss	True
305.017	1.45	Lose2	0.5625	n/a	Yes	2.831	n/a	5.0	GoodResponse	0	0.031	304.048	2	31	Feedback	AvoidedLoss	True
306.466	2.831	Lose2	0.5625	n/a	Yes	2.831	n/a	n/a	GoodResponse	0	0.0	n/a	2	31	ISIslide	AvoidedLoss	True
309.315	0.25	Lose2	0.5758	0.0	Yes	2.635	0.015	n/a	GoodResponse	0	n/a	n/a	2	32	Cue	AvoidedLoss	True
309.565	4.15	Lose2	0.5758	0.0	Yes	2.635	0.0	n/a	GoodResponse	0	n/a	n/a	2	32	Fixation	AvoidedLoss	True
313.714	0.3	Lose2	0.5758	0.001	Yes	2.635	-0.001	4.0	GoodResponse	0	0.198	312.912	2	32	Target	AvoidedLoss	True
313.912	0.3	Lose2	0.5758	0.001	Yes	2.635	-0.001	4.0	GoodResponse	0	0.198	n/a	2	32	ButtonPress	AvoidedLoss	True
314.014	0.4	Lose2	0.5758	n/a	Yes	2.635	n/a	n/a	GoodResponse	0	n/a	n/a	2	32	Blank	AvoidedLoss	True
314.414	1.45	Lose2	0.5758	n/a	Yes	2.635	n/a	5.0	GoodResponse	0	0.0	313.414	2	32	Feedback	AvoidedLoss	True
315.863	2.635	Lose2	0.5758	n/a	Yes	2.635	n/a	n/a	GoodResponse	0	0.0	n/a	2	32	ISIslide	AvoidedLoss	True
318.512	0.25	Win2	0.5882000000000001	0.0	Yes	2.688	0.012	n/a	GoodResponse	1	n/a	n/a	3	33	Cue	Win	True
318.762	4.0	Win2	0.5882000000000001	0.0	Yes	2.688	0.0	n/a	GoodResponse	1	n/a	n/a	3	33	Fixation	Win	True
322.761	0.31	Win2	0.5882000000000001	0.001	Yes	2.688	-0.001	4.0	GoodResponse	1	0.216	321.977	3	33	Target	Win	True
322.977	0.3	Win2	0.5882000000000001	0.001	Yes	2.688	-0.001	4.0	GoodResponse	1	0.216	n/a	3	33	ButtonPress	Win	True
323.077	0.39	Win2	0.5882000000000001	n/a	Yes	2.688	n/a	n/a	GoodResponse	1	n/a	n/a	3	33	Blank	Win	True
323.46	1.45	Win2	0.5882000000000001	n/a	Yes	2.688	n/a	5.0	GoodResponse	1	0.027	322.487	3	33	Feedback	Win	True
324.91	2.688	Win2	0.5882000000000001	n/a	Yes	2.688	n/a	n/a	GoodResponse	1	0.0	n/a	3	33	ISIslide	Win	True
327.626	0.25	Lose2	0.6	0.0	Yes	2.624	0.026	n/a	GoodResponse	0	n/a	n/a	3	34	Cue	AvoidedLoss	True
327.876	4.05	Lose2	0.6	0.0	Yes	2.624	0.0	n/a	GoodResponse	0	n/a	n/a	3	34	Fixation	AvoidedLoss	True
331.924	0.32	Lose2	0.6	0.002	Yes	2.624	-0.002	4.0	GoodResponse	0	0.216	331.14	3	34	Target	AvoidedLoss	True
332.14	0.3	Lose2	0.6	0.002	Yes	2.624	-0.002	4.0	GoodResponse	0	0.216	n/a	3	34	ButtonPress	AvoidedLoss	True
332.257	0.38	Lose2	0.6	n/a	Yes	2.624	n/a	n/a	GoodResponse	0	n/a	n/a	3	34	Blank	AvoidedLoss	True
332.624	1.45	Lose2	0.6	n/a	Yes	2.624	n/a	5.0	GoodResponse	0	0.034	331.658	3	34	Feedback	AvoidedLoss	True
334.074	2.624	Lose2	0.6	n/a	Yes	2.624	n/a	n/a	GoodResponse	0	0.0	n/a	3	34	ISIslide	AvoidedLoss	True
336.723	0.25	Lose2	0.6111	0.0	Yes	2.677	0.023	n/a	GoodResponse	0	n/a	n/a	3	35	Cue	AvoidedLoss	True
336.973	4.0	Lose2	0.6111	0.0	Yes	2.677	0.0	n/a	GoodResponse	0	n/a	n/a	3	35	Fixation	AvoidedLoss	True
340.971	0.33	Lose2	0.6111	0.002	Yes	2.677	-0.002	4.0	GoodResponse	0	0.325	340.296	3	35	Target	AvoidedLoss	True
341.296	0.3	Lose2	0.6111	0.002	Yes	2.677	-0.002	4.0	GoodResponse	0	0.325	n/a	3	35	ButtonPress	AvoidedLoss	True
341.304	0.37	Lose2	0.6111	n/a	Yes	2.677	n/a	n/a	GoodResponse	0	n/a	n/a	3	35	Blank	AvoidedLoss	True
341.671	1.45	Lose2	0.6111	n/a	Yes	2.677	n/a	5.0	GoodResponse	0	0.012	340.683	3	35	Feedback	AvoidedLoss	True
343.12	2.677	Lose2	0.6111	n/a	Yes	2.677	n/a	n/a	GoodResponse	0	0.0	n/a	3	35	ISIslide	AvoidedLoss	True
345.819	0.25	Control	0.6215999999999999	0.001	Yes	2.681	0.019	n/a	GoodResponse	0	n/a	n/a	3	36	Cue	Neutral	True
346.069	4.0	Control	0.6215999999999999	0.0	Yes	2.681	0.0	n/a	GoodResponse	0	n/a	n/a	3	36	Fixation	Neutral	True
350.068	0.34	Control	0.6215999999999999	0.001	Yes	2.681	-0.001	4.0	GoodResponse	0	0.224	349.292	3	36	Target	Neutral	True
350.292	0.3	Control	0.6215999999999999	0.001	Yes	2.681	-0.001	4.0	GoodResponse	0	0.224	n/a	3	36	ButtonPress	Neutral	True
350.418	0.36	Control	0.6215999999999999	n/a	Yes	2.681	n/a	n/a	GoodResponse	0	n/a	n/a	3	36	Blank	Neutral	True
350.768	1.45	Control	0.6215999999999999	n/a	Yes	2.681	n/a	5.0	GoodResponse	0	0.036	349.804	3	36	Feedback	Neutral	True
352.217	2.681	Control	0.6215999999999999	n/a	Yes	2.681	n/a	n/a	GoodResponse	0	0.0	n/a	3	36	ISIslide	Neutral	True
354.916	0.25	Win2	0.6315999999999999	0.0	Yes	2.884	0.016	n/a	GoodResponse	1	n/a	n/a	4	37	Cue	Win	True
355.166	4.0	Win2	0.6315999999999999	0.0	Yes	2.884	0.0	n/a	GoodResponse	1	n/a	n/a	4	37	Fixation	Win	True
359.165	0.35	Win2	0.6315999999999999	0.001	Yes	2.884	-0.001	4.0	GoodResponse	1	0.244	358.409	4	37	Target	Win	True
359.409	0.3	Win2	0.6315999999999999	0.001	Yes	2.884	-0.001	4.0	GoodResponse	1	0.244	n/a	4	37	ButtonPress	Win	True
359.515	0.35	Win2	0.6315999999999999	n/a	Yes	2.884	n/a	n/a	GoodResponse	1	n/a	n/a	4	37	Blank	Win	True
359.865	1.45	Win2	0.6315999999999999	n/a	Yes	2.884	n/a	5.0	GoodResponse	1	0.012	358.877	4	37	Feedback	Win	True
361.314	2.884	Win2	0.6315999999999999	n/a	Yes	2.884	n/a	n/a	GoodResponse	1	0.0	n/a	4	37	ISIslide	Win	True
364.213	0.25	Lose2	0.6409999999999999	0.0	Yes	2.837	0.013	n/a	GoodResponse	0	n/a	n/a	4	38	Cue	AvoidedLoss	True
364.463	3.95	Lose2	0.6409999999999999	0.0	Yes	2.837	0.0	n/a	GoodResponse	0	n/a	n/a	4	38	Fixation	AvoidedLoss	True
368.412	0.36	Lose2	0.6409999999999999	0.001	Yes	2.837	-0.001	4.0	GoodResponse	0	0.224	367.636	4	38	Target	AvoidedLoss	True
368.636	0.3	Lose2	0.6409999999999999	0.001	Yes	2.837	-0.001	4.0	GoodResponse	0	0.224	n/a	4	38	ButtonPress	AvoidedLoss	True
368.778	0.34	Lose2	0.6409999999999999	n/a	Yes	2.837	n/a	n/a	GoodResponse	0	n/a	n/a	4	38	Blank	AvoidedLoss	True
369.112	1.45	Lose2	0.6409999999999999	n/a	Yes	2.837	n/a	5.0	GoodResponse	0	0.034	368.146	4	38	Feedback	AvoidedLoss	True
370.561	2.837	Lose2	0.6409999999999999	n/a	Yes	2.837	n/a	n/a	GoodResponse	0	0.0	n/a	4	38	ISIslide	AvoidedLoss	True
373.427	0.25	Win2	0.65	0.0	Yes	2.973	0.027	n/a	GoodResponse	1	n/a	n/a	5	39	Cue	Win	True
373.677	4.1	Win2	0.65	0.0	Yes	2.973	0.0	n/a	GoodResponse	1	n/a	n/a	5	39	Fixation	Win	True
377.775	0.37	Win2	0.65	0.002	Yes	2.973	-0.002	4.0	GoodResponse	1	0.211	376.986	5	39	Target	Win	True
377.986	0.3	Win2	0.65	0.002	Yes	2.973	-0.002	4.0	GoodResponse	1	0.211	n/a	5	39	ButtonPress	Win	True
378.158	0.33	Win2	0.65	n/a	Yes	2.973	n/a	n/a	GoodResponse	1	n/a	n/a	5	39	Blank	Win	True
378.475	1.45	Win2	0.65	n/a	Yes	2.973	n/a	5.0	GoodResponse	1	0.037	377.512	5	39	Feedback	Win	True
379.924	2.973	Win2	0.65	n/a	Yes	2.973	n/a	n/a	GoodResponse	1	0.0	n/a	5	39	ISIslide	Win	True
382.923	0.25	Win2	0.6585	0.001	Yes	2.727	0.023	n/a	GoodResponse	1	n/a	n/a	6	40	Cue	Win	True
383.173	3.95	Win2	0.6585	0.0	Yes	2.727	0.0	n/a	GoodResponse	1	n/a	n/a	6	40	Fixation	Win	True
387.122	0.38	Win2	0.6585	0.001	Yes	2.727	-0.001	4.0	GoodResponse	1	0.24	386.362	6	40	Target	Win	True
387.362	0.3	Win2	0.6585	0.001	Yes	2.727	-0.001	4.0	GoodResponse	1	0.24	n/a	6	40	ButtonPress	Win	True
387.505	0.32	Win2	0.6585	n/a	Yes	2.727	n/a	n/a	GoodResponse	1	n/a	n/a	6	40	Blank	Win	True
387.822	1.45	Win2	0.6585	n/a	Yes	2.727	n/a	5.0	GoodResponse	1	0.007	386.829	6	40	Feedback	Win	True
389.271	2.727	Win2	0.6585	n/a	Yes	2.727	n/a	n/a	GoodResponse	1	0.0	n/a	6	40	ISIslide	Win	True
392.02	0.25	Win2	0.6667000000000001	0.0	Yes	2.78	0.02	n/a	GoodResponse	1	n/a	n/a	7	41	Cue	Win	True
392.27	3.9	Win2	0.6667000000000001	0.0	Yes	2.78	0.0	n/a	GoodResponse	1	n/a	n/a	7	41	Fixation	Win	True
396.169	0.38	Win2	0.6667000000000001	0.001	Yes	2.78	-0.001	4.0	GoodResponse	1	0.225	395.394	7	41	Target	Win	True
396.394	0.3	Win2	0.6667000000000001	0.001	Yes	2.78	-0.001	4.0	GoodResponse	1	0.225	n/a	7	41	ButtonPress	Win	True
396.552	0.32	Win2	0.6667000000000001	n/a	Yes	2.78	n/a	n/a	GoodResponse	1	n/a	n/a	7	41	Blank	Win	True
396.869	1.45	Win2	0.6667000000000001	n/a	Yes	2.78	n/a	5.0	GoodResponse	1	0.033	395.902	7	41	Feedback	Win	True
398.318	2.78	Win2	0.6667000000000001	n/a	Yes	2.78	n/a	n/a	GoodResponse	1	0.0	n/a	7	41	ISIslide	Win	True
401.117	0.25	Control	0.6744	0.0	Yes	2.933	0.017	n/a	GoodResponse	0	n/a	n/a	7	42	Cue	Neutral	True
401.367	3.85	Control	0.6744	0.0	Yes	2.933	0.0	n/a	GoodResponse	0	n/a	n/a	7	42	Fixation	Neutral	True
405.216	0.37	Control	0.6744	0.001	Yes	2.933	-0.001	4.0	GoodResponse	0	0.236	404.452	7	42	Target	Neutral	True
405.452	0.3	Control	0.6744	0.001	Yes	2.933	-0.001	4.0	GoodResponse	0	0.236	n/a	7	42	ButtonPress	Neutral	True
405.582	0.33	Control	0.6744	n/a	Yes	2.933	n/a	n/a	GoodResponse	0	n/a	n/a	7	42	Blank	Neutral	True
405.916	1.45	Control	0.6744	n/a	Yes	2.933	n/a	5.0	GoodResponse	0	0.011	404.927	7	42	Feedback	Neutral	True
407.365	2.933	Control	0.6744	n/a	Yes	2.933	n/a	n/a	GoodResponse	0	0.0	n/a	7	42	ISIslide	Neutral	True
410.314	0.25	Win2	0.6818000000000001	0.0	Yes	3.186	0.014	n/a	GoodResponse	1	n/a	n/a	8	43	Cue	Win	True
410.564	4.0	Win2	0.6818000000000001	0.0	Yes	3.186	0.0	n/a	GoodResponse	1	n/a	n/a	8	43	Fixation	Win	True
414.563	0.36	Win2	0.6818000000000001	0.001	Yes	3.186	-0.001	4.0	GoodResponse	1	0.225	413.788	8	43	Target	Win	True
414.788	0.3	Win2	0.6818000000000001	0.001	Yes	3.186	-0.001	4.0	GoodResponse	1	0.225	n/a	8	43	ButtonPress	Win	True
414.929	0.34	Win2	0.6818000000000001	n/a	Yes	3.186	n/a	n/a	GoodResponse	1	n/a	n/a	8	43	Blank	Win	True
415.262	1.45	Win2	0.6818000000000001	n/a	Yes	3.186	n/a	5.0	GoodResponse	1	0.03	414.292	8	43	Feedback	Win	True
416.712	3.186	Win2	0.6818000000000001	n/a	Yes	3.186	n/a	n/a	GoodResponse	1	0.0	n/a	8	43	ISIslide	Win	True
419.927	0.25	Win2	0.6889	0.001	Yes	2.973	0.027	n/a	GoodResponse	1	n/a	n/a	9	44	Cue	Win	True
420.177	4.0	Win2	0.6889	0.0	Yes	2.973	0.0	n/a	GoodResponse	1	n/a	n/a	9	44	Fixation	Win	True
424.176	0.35	Win2	0.6889	0.001	Yes	2.973	-0.001	4.0	GoodResponse	1	0.26	423.436	9	44	Target	Win	True
424.436	0.3	Win2	0.6889	0.001	Yes	2.973	-0.001	4.0	GoodResponse	1	0.26	n/a	9	44	ButtonPress	Win	True
424.526	0.35	Win2	0.6889	n/a	Yes	2.973	n/a	n/a	GoodResponse	1	n/a	n/a	9	44	Blank	Win	True
424.876	1.45	Win2	0.6889	n/a	Yes	2.973	n/a	5.0	GoodResponse	1	0.025	423.901	9	44	Feedback	Win	True
426.325	2.973	Win2	0.6889	n/a	Yes	2.973	n/a	n/a	GoodResponse	1	0.0	n/a	9	44	ISIslide	Win	True
429.324	0.25	Control	0.6957	0.0	Yes	2.876	0.024	n/a	GoodResponse	0	n/a	n/a	9	45	Cue	Neutral	False
429.574	4.1	Control	0.6957	0.0	Yes	2.876	0.0	4.0	GoodResponse	0	0.067	428.641	9	45	Fixation	Neutral	False
429.641	0.3	Control	0.6957	0.0	Yes	2.876	0.0	4.0	GoodResponse	0	0.067	n/a	9	45	ButtonPress	Neutral	False
433.673	0.34	Control	0.6957	0.001	Yes	2.876	-0.001	4.0	GoodResponse	0	0.257	432.93	9	45	Target	Neutral	False
433.93	0.3	Control	0.6957	0.001	Yes	2.876	-0.001	4.0	GoodResponse	0	0.257	n/a	9	45	ButtonPress	Neutral	False
434.023	0.36	Control	0.6957	n/a	Yes	2.876	n/a	n/a	GoodResponse	0	n/a	n/a	9	45	Blank	Neutral	False
434.373	1.45	Control	0.6957	n/a	Yes	2.876	n/a	5.0	GoodResponse	0	0.041	433.414	9	45	Feedback	Neutral	False
435.822	2.876	Control	0.6957	n/a	Yes	2.876	n/a	n/a	GoodResponse	0	0.0	n/a	9	45	ISIslide	Neutral	False
438.721	0.25	Lose2	0.7021	0.0	Yes	3.379	0.021	n/a	GoodResponse	0	n/a	n/a	9	46	Cue	AvoidedLoss	True
438.971	4.0	Lose2	0.7021	0.0	Yes	3.379	0.0	n/a	GoodResponse	0	n/a	n/a	9	46	Fixation	AvoidedLoss	True
442.97	0.33	Lose2	0.7021	0.001	Yes	3.379	-0.001	4.0	GoodResponse	0	0.205	442.175	9	46	Target	AvoidedLoss	True
443.175	0.3	Lose2	0.7021	0.001	Yes	3.379	-0.001	4.0	GoodResponse	0	0.205	n/a	9	46	ButtonPress	AvoidedLoss	True
443.303	0.37	Lose2	0.7021	n/a	Yes	3.379	n/a	n/a	GoodResponse	0	n/a	n/a	9	46	Blank	AvoidedLoss	True
443.669	1.45	Lose2	0.7021	n/a	Yes	3.379	n/a	5.0	GoodResponse	0	0.013	442.682	9	46	Feedback	AvoidedLoss	True
445.119	3.379	Lose2	0.7021	n/a	Yes	3.379	n/a	n/a	GoodResponse	0	0.0	n/a	9	46	ISIslide	AvoidedLoss	True
448.518	0.25	Lose2	0.7082999999999999	0.0	Yes	2.682	0.018	n/a	GoodResponse	0	n/a	n/a	9	47	Cue	AvoidedLoss	True
448.768	4.0	Lose2	0.7082999999999999	0.0	Yes	2.682	0.0	n/a	GoodResponse	0	n/a	n/a	9	47	Fixation	AvoidedLoss	True
452.766	0.32	Lose2	0.7082999999999999	0.002	Yes	2.682	-0.002	4.0	GoodResponse	0	0.224	451.99	9	47	Target	AvoidedLoss	True
452.99	0.3	Lose2	0.7082999999999999	0.002	Yes	2.682	-0.002	4.0	GoodResponse	0	0.224	n/a	9	47	ButtonPress	AvoidedLoss	True
453.099	0.38	Lose2	0.7082999999999999	n/a	Yes	2.682	n/a	n/a	GoodResponse	0	n/a	n/a	9	47	Blank	AvoidedLoss	True
453.466	1.45	Lose2	0.7082999999999999	n/a	Yes	2.682	n/a	5.0	GoodResponse	0	0.021	452.487	9	47	Feedback	AvoidedLoss	True
454.915	2.682	Lose2	0.7082999999999999	n/a	Yes	2.682	n/a	n/a	GoodResponse	0	0.0	n/a	9	47	ISIslide	AvoidedLoss	True
457.615	0.25	Lose2	0.7143	0.0	Yes	3.035	0.015	n/a	GoodResponse	0	n/a	n/a	9	48	Cue	AvoidedLoss	True
457.864	3.95	Lose2	0.7143	0.001	Yes	3.035	-0.001	n/a	GoodResponse	0	n/a	n/a	9	48	Fixation	AvoidedLoss	True
461.813	0.31	Lose2	0.7143	0.002	Yes	3.035	-0.002	4.0	GoodResponse	0	0.193	461.006	9	48	Target	AvoidedLoss	True
462.006	0.3	Lose2	0.7143	0.002	Yes	3.035	-0.002	4.0	GoodResponse	0	0.193	n/a	9	48	ButtonPress	AvoidedLoss	True
462.13	0.39	Lose2	0.7143	n/a	Yes	3.035	n/a	n/a	GoodResponse	0	n/a	n/a	9	48	Blank	AvoidedLoss	True
462.513	1.45	Lose2	0.7143	n/a	Yes	3.035	n/a	5.0	GoodResponse	0	0.047	461.56	9	48	Feedback	AvoidedLoss	True
463.962	3.035	Lose2	0.7143	n/a	Yes	3.035	n/a	n/a	GoodResponse	0	0.0	n/a	9	48	ISIslide	AvoidedLoss	True
467.028	0.25	Control	0.72	0.0	Yes	2.872	0.028	n/a	GoodResponse	0	n/a	n/a	9	49	Cue	Neutral	True
467.278	4.0	Control	0.72	0.0	Yes	2.872	0.0	n/a	GoodResponse	0	n/a	n/a	9	49	Fixation	Neutral	True
471.277	0.3	Control	0.72	0.001	Yes	2.872	-0.001	4.0	GoodResponse	0	0.21	470.487	9	49	Target	Neutral	True
471.487	0.3	Control	0.72	0.001	Yes	2.872	-0.001	4.0	GoodResponse	0	0.21	n/a	9	49	ButtonPress	Neutral	True
471.576	0.4	Control	0.72	n/a	Yes	2.872	n/a	n/a	GoodResponse	0	n/a	n/a	9	49	Blank	Neutral	True
471.976	1.45	Control	0.72	n/a	Yes	2.872	n/a	5.0	GoodResponse	0	0.048	471.024	9	49	Feedback	Neutral	True
473.426	2.872	Control	0.72	n/a	Yes	2.872	n/a	n/a	GoodResponse	0	0.0	n/a	9	49	ISIslide	Neutral	True
476.325	0.25	Control	0.7254999999999999	0.0	Yes	2.775	0.025	n/a	GoodResponse	0	n/a	n/a	9	50	Cue	Neutral	True
476.575	4.0	Control	0.7254999999999999	0.0	Yes	2.775	0.0	n/a	GoodResponse	0	n/a	n/a	9	50	Fixation	Neutral	True
480.573	0.29	Control	0.7254999999999999	0.002	Yes	2.775	-0.002	4.0	GoodResponse	0	0.258	479.831	9	50	Target	Neutral	True
480.831	0.3	Control	0.7254999999999999	0.002	Yes	2.775	-0.002	4.0	GoodResponse	0	0.258	n/a	9	50	ButtonPress	Neutral	True
480.873	0.41	Control	0.7254999999999999	n/a	Yes	2.775	n/a	n/a	GoodResponse	0	n/a	n/a	9	50	Blank	Neutral	True
481.273	1.45	Control	0.7254999999999999	n/a	Yes	2.775	n/a	5.0	GoodResponse	0	0.019	480.292	9	50	Feedback	Neutral	True
482.723	2.775	Control	0.7254999999999999	n/a	Yes	2.775	n/a	n/a	GoodResponse	0	0.0	n/a	9	50	ISIslide	Neutral	True
485.522	0.25	Control	0.7308	0.0	Yes	2.728	0.022	n/a	GoodResponse	0	n/a	n/a	9	51	Cue	Neutral	True
485.772	3.95	Control	0.7308	0.0	Yes	2.728	0.0	n/a	GoodResponse	0	n/a	n/a	9	51	Fixation	Neutral	True
489.72	0.28	Control	0.7308	0.002	Yes	2.728	-0.002	4.0	GoodResponse	0	0.225	488.945	9	51	Target	Neutral	True
489.945	0.3	Control	0.7308	0.002	Yes	2.728	-0.002	4.0	GoodResponse	0	0.225	n/a	9	51	ButtonPress	Neutral	True
490.003	0.42	Control	0.7308	n/a	Yes	2.728	n/a	n/a	GoodResponse	0	n/a	n/a	9	51	Blank	Neutral	True
490.42	1.45	Control	0.7308	n/a	Yes	2.728	n/a	5.0	GoodResponse	0	0.043	489.463	9	51	Feedback	Neutral	True
491.869	2.728	Control	0.7308	n/a	Yes	2.728	n/a	n/a	GoodResponse	0	0.0	n/a	9	51	ISIslide	Neutral	True
494.619	0.25	Control	0.7170000000000001	0.0	No	2.631	0.019	n/a	NoResponse	0	n/a	n/a	9	52	Cue	Neutral	True
494.868	4.05	Control	0.7170000000000001	0.001	No	2.631	-0.001	n/a	NoResponse	0	n/a	n/a	9	52	Fixation	Neutral	True
498.917	0.27	Control	0.7170000000000001	0.002	No	2.631	-0.002	4.0	NoResponse	0	0.299	498.216	9	52	Target	Neutral	True
499.2	0.43	Control	0.7170000000000001	n/a	No	2.631	n/a	n/a	NoResponse	0	n/a	n/a	9	52	Blank	Neutral	True
499.216	0.3	Control	0.7170000000000001	0.002	No	2.631	-0.002	4.0	NoResponse	0	0.299	n/a	9	52	ButtonPress	Neutral	True
499.617	1.45	Control	0.7170000000000001	n/a	No	2.631	n/a	5.0	NoResponse	0	0.016	498.633	9	52	Feedback	Neutral	True
501.066	2.631	Control	0.7170000000000001	n/a	No	2.631	n/a	n/a	NoResponse	0	0.0	n/a	9	52	ISIslide	Neutral	True
503.715	0.25	Win2	0.7037	0.001	No	2.935	0.015	n/a	NoResponse	0	n/a	n/a	9	53	Cue	MissedWin	False
503.965	4.05	Win2	0.7037	0.0	No	2.935	0.0	4.0	NoResponse	0	0.175	503.14	9	53	Fixation	MissedWin	False
504.14	0.3	Win2	0.7037	0.0	No	2.935	0.0	4.0	NoResponse	0	0.175	n/a	9	53	ButtonPress	MissedWin	False
508.014	0.26	Win2	0.7037	0.001	No	2.935	-0.001	4.0	NoResponse	0	0.275	507.289	9	53	Target	MissedWin	False
508.281	0.44	Win2	0.7037	n/a	No	2.935	n/a	n/a	NoResponse	0	n/a	n/a	9	53	Blank	MissedWin	False
508.289	0.3	Win2	0.7037	0.001	No	2.935	-0.001	4.0	NoResponse	0	0.275	n/a	9	53	ButtonPress	MissedWin	False
508.714	1.45	Win2	0.7037	n/a	No	2.935	n/a	5.0	NoResponse	0	0.041	507.755	9	53	Feedback	MissedWin	False
510.163	2.935	Win2	0.7037	n/a	No	2.935	n/a	n/a	NoResponse	0	0.0	n/a	9	53	ISIslide	MissedWin	False
513.112	0.25	Win2	0.7091	0.0	Yes	2.738	0.012	n/a	GoodResponse	1	n/a	n/a	10	54	Cue	Win	True
513.362	3.95	Win2	0.7091	0.0	Yes	2.738	0.0	n/a	GoodResponse	1	n/a	n/a	10	54	Fixation	Win	True
517.311	0.25	Win2	0.7091	0.001	Yes	2.738	-0.001	4.0	GoodResponse	1	0.235	516.546	10	54	Target	Win	True
517.546	0.3	Win2	0.7091	0.001	Yes	2.738	-0.001	4.0	GoodResponse	1	0.235	n/a	10	54	ButtonPress	Win	True
517.561	0.45	Win2	0.7091	n/a	Yes	2.738	n/a	n/a	GoodResponse	1	n/a	n/a	10	54	Blank	Win	True
518.011	1.45	Win2	0.7091	n/a	Yes	2.738	n/a	5.0	GoodResponse	1	0.012	517.023	10	54	Feedback	Win	True
519.46	2.738	Win2	0.7091	n/a	Yes	2.738	n/a	n/a	GoodResponse	1	0.0	n/a	10	54	ISIslide	Win	True
522.226	0.25	Control	0.6964	0.0	No	3.024	0.026	n/a	NoResponse	0	n/a	n/a	10	55	Cue	Neutral	True
522.476	3.95	Control	0.6964	0.0	No	3.024	0.0	n/a	NoResponse	0	n/a	n/a	10	55	Fixation	Neutral	True
526.424	0.24	Control	0.6964	0.002	No	3.024	-0.002	4.0	NoResponse	0	0.289	525.713	10	55	Target	Neutral	True
526.674	0.46	Control	0.6964	n/a	No	3.024	n/a	n/a	NoResponse	0	n/a	n/a	10	55	Blank	Neutral	True
526.713	0.3	Control	0.6964	0.002	No	3.024	-0.002	4.0	NoResponse	0	0.289	n/a	10	55	ButtonPress	Neutral	True
527.124	1.45	Control	0.6964	n/a	No	3.024	n/a	5.0	NoResponse	0	0.022	526.146	10	55	Feedback	Neutral	True
528.574	3.024	Control	0.6964	n/a	No	3.024	n/a	n/a	NoResponse	0	0.0	n/a	10	55	ISIslide	Neutral	True
531.623	0.25	Control	0.6842	0.0	No	2.827	0.023	n/a	NoResponse	0	n/a	n/a	10	56	Cue	Neutral	True
531.872	3.95	Control	0.6842	0.001	No	2.827	-0.001	n/a	NoResponse	0	n/a	n/a	10	56	Fixation	Neutral	True
535.821	0.23	Control	0.6842	0.002	No	2.827	-0.002	4.0	NoResponse	0	0.253	535.074	10	56	Target	Neutral	True
536.054	0.47	Control	0.6842	n/a	No	2.827	n/a	n/a	NoResponse	0	n/a	n/a	10	56	Blank	Neutral	True
536.074	0.3	Control	0.6842	0.002	No	2.827	-0.002	4.0	NoResponse	0	0.253	n/a	10	56	ButtonPress	Neutral	True
536.521	1.45	Control	0.6842	n/a	No	2.827	n/a	5.0	NoResponse	0	0.039	535.56	10	56	Feedback	Neutral	True
537.97	2.827	Control	0.6842	n/a	No	2.827	n/a	n/a	NoResponse	0	0.0	n/a	10	56	ISIslide	Neutral	True
540.819	0.25	Control	0.6724	0.0	No	3.481	0.019	n/a	NoResponse	0	n/a	n/a	10	57	Cue	Neutral	True
541.069	4.0	Control	0.6724	0.0	No	3.481	0.0	n/a	NoResponse	0	n/a	n/a	10	57	Fixation	Neutral	True
545.068	0.22	Control	0.6724	0.001	No	3.481	-0.001	4.0	NoResponse	0	0.233	544.301	10	57	Target	Neutral	True
545.285	0.48	Control	0.6724	n/a	No	3.481	n/a	n/a	NoResponse	0	n/a	n/a	10	57	Blank	Neutral	True
545.301	0.3	Control	0.6724	0.001	No	3.481	-0.001	4.0	NoResponse	0	0.233	n/a	10	57	ButtonPress	Neutral	True
545.768	1.45	Control	0.6724	n/a	No	3.481	n/a	5.0	NoResponse	0	0.012	544.78	10	57	Feedback	Neutral	True
547.217	3.481	Control	0.6724	n/a	No	3.481	n/a	n/a	NoResponse	0	0.0	n/a	10	57	ISIslide	Neutral	True
550.716	0.25	Win2	0.6609999999999999	0.0	No	2.734	0.016	n/a	NoResponse	0	n/a	n/a	10	58	Cue	MissedWin	True
550.966	4.05	Win2	0.6609999999999999	0.0	No	2.734	0.0	n/a	NoResponse	0	n/a	n/a	10	58	Fixation	MissedWin	True
555.015	0.21	Win2	0.6609999999999999	0.001	No	2.734	-0.001	4.0	NoResponse	0	0.228	554.243	10	58	Target	MissedWin	True
555.231	0.49	Win2	0.6609999999999999	n/a	No	2.734	n/a	n/a	NoResponse	0	n/a	n/a	10	58	Blank	MissedWin	True
555.243	0.3	Win2	0.6609999999999999	0.001	No	2.734	-0.001	4.0	NoResponse	0	0.228	n/a	10	58	ButtonPress	MissedWin	True
555.714	1.45	Win2	0.6609999999999999	n/a	No	2.734	n/a	5.0	NoResponse	0	0.017	554.731	10	58	Feedback	MissedWin	True
557.164	2.734	Win2	0.6609999999999999	n/a	No	2.734	n/a	n/a	NoResponse	0	0.0	n/a	10	58	ISIslide	MissedWin	True
559.913	0.25	Lose2	0.65	0.0	No	2.687	0.013	n/a	NoResponse	-1	n/a	n/a	9	59	Cue	Loss	True
560.163	4.0	Lose2	0.65	0.0	No	2.687	0.0	n/a	NoResponse	-1	n/a	n/a	9	59	Fixation	Loss	True
564.161	0.21	Lose2	0.65	0.002	No	2.687	-0.002	4.0	NoResponse	-1	0.237	563.398	9	59	Target	Loss	True
564.378	0.49	Lose2	0.65	n/a	No	2.687	n/a	n/a	NoResponse	-1	n/a	n/a	9	59	Blank	Loss	True
564.398	0.3	Lose2	0.65	0.002	No	2.687	-0.002	4.0	NoResponse	-1	0.237	n/a	9	59	ButtonPress	Loss	True
564.861	1.45	Lose2	0.65	n/a	No	2.687	n/a	5.0	NoResponse	-1	0.041	563.902	9	59	Feedback	Loss	True
566.311	2.687	Lose2	0.65	n/a	No	2.687	n/a	n/a	NoResponse	-1	0.0	n/a	9	59	ISIslide	Loss	True
569.026	0.25	Control	0.6393	0.001	No	2.674	0.026	n/a	NoResponse	0	n/a	n/a	9	60	Cue	Neutral	True
569.276	4.0	Control	0.6393	0.0	No	2.674	0.0	n/a	NoResponse	0	n/a	n/a	9	60	Fixation	Neutral	True
573.275	0.22	Control	0.6393	0.001	No	2.674	-0.001	4.0	NoResponse	0	0.231	572.506	9	60	Target	Neutral	True
573.492	0.48	Control	0.6393	n/a	No	2.674	n/a	n/a	NoResponse	0	n/a	n/a	9	60	Blank	Neutral	True
573.506	0.3	Control	0.6393	0.001	No	2.674	-0.001	4.0	NoResponse	0	0.231	n/a	9	60	ButtonPress	Neutral	True
573.975	1.45	Control	0.6393	n/a	No	2.674	n/a	5.0	NoResponse	0	0.048	573.023	9	60	Feedback	Neutral	True
575.424	2.674	Control	0.6393	n/a	No	2.674	n/a	n/a	NoResponse	0	0.0	n/a	9	60	ISIslide	Neutral	True
578.123	0.25	Lose2	0.6452	0.0	Yes	2.977	0.023	n/a	GoodResponse	0	n/a	n/a	9	61	Cue	AvoidedLoss	True
578.373	4.0	Lose2	0.6452	0.0	Yes	2.977	0.0	n/a	GoodResponse	0	n/a	n/a	9	61	Fixation	AvoidedLoss	True
582.372	0.23	Lose2	0.6452	0.001	Yes	2.977	-0.001	4.0	GoodResponse	0	0.187	581.559	9	61	Target	AvoidedLoss	True
582.559	0.3	Lose2	0.6452	0.001	Yes	2.977	-0.001	4.0	GoodResponse	0	0.187	n/a	9	61	ButtonPress	AvoidedLoss	True
582.605	0.47	Lose2	0.6452	n/a	Yes	2.977	n/a	n/a	GoodResponse	0	n/a	n/a	9	61	Blank	AvoidedLoss	True
583.072	1.45	Lose2	0.6452	n/a	Yes	2.977	n/a	5.0	GoodResponse	0	0.024	582.096	9	61	Feedback	AvoidedLoss	True
584.521	2.977	Lose2	0.6452	n/a	Yes	2.977	n/a	n/a	GoodResponse	0	0.0	n/a	9	61	ISIslide	AvoidedLoss	True
587.52	0.25	Lose2	0.6507999999999999	0.0	Yes	2.88	0.02	n/a	GoodResponse	0	n/a	n/a	9	62	Cue	AvoidedLoss	True
587.77	3.9	Lose2	0.6507999999999999	0.0	Yes	2.88	0.0	n/a	GoodResponse	0	n/a	n/a	9	62	Fixation	AvoidedLoss	True
591.669	0.24	Lose2	0.6507999999999999	0.001	Yes	2.88	-0.001	4.0	GoodResponse	0	0.203	590.872	9	62	Target	AvoidedLoss	True
591.872	0.3	Lose2	0.6507999999999999	0.001	Yes	2.88	-0.001	4.0	GoodResponse	0	0.203	n/a	9	62	ButtonPress	AvoidedLoss	True
591.919	0.46	Lose2	0.6507999999999999	n/a	Yes	2.88	n/a	n/a	GoodResponse	0	n/a	n/a	9	62	Blank	AvoidedLoss	True
592.368	1.45	Lose2	0.6507999999999999	n/a	Yes	2.88	n/a	5.0	GoodResponse	0	0.046	591.414	9	62	Feedback	AvoidedLoss	True
593.818	2.88	Lose2	0.6507999999999999	n/a	Yes	2.88	n/a	n/a	GoodResponse	0	0.0	n/a	9	62	ISIslide	AvoidedLoss	True
596.717	0.25	Lose2	0.6562	0.0	Yes	2.633	0.017	n/a	GoodResponse	0	n/a	n/a	9	63	Cue	AvoidedLoss	True
596.967	4.05	Lose2	0.6562	0.0	Yes	2.633	0.0	n/a	GoodResponse	0	n/a	n/a	9	63	Fixation	AvoidedLoss	True
601.015	0.25	Lose2	0.6562	0.002	Yes	2.633	-0.002	4.0	GoodResponse	0	0.192	600.207	9	63	Target	AvoidedLoss	True
601.207	0.3	Lose2	0.6562	0.002	Yes	2.633	-0.002	4.0	GoodResponse	0	0.192	n/a	9	63	ButtonPress	AvoidedLoss	True
601.265	0.45	Lose2	0.6562	n/a	Yes	2.633	n/a	n/a	GoodResponse	0	n/a	n/a	9	63	Blank	AvoidedLoss	True
601.715	1.45	Lose2	0.6562	n/a	Yes	2.633	n/a	5.0	GoodResponse	0	0.016	600.731	9	63	Feedback	AvoidedLoss	True
603.165	2.633	Lose2	0.6562	n/a	Yes	2.633	n/a	n/a	GoodResponse	0	0.0	n/a	9	63	ISIslide	AvoidedLoss	True
605.814	0.25	Win2	0.6615000000000001	0.0	Yes	3.136	0.014	n/a	GoodResponse	1	n/a	n/a	10	64	Cue	Win	True
606.064	4.15	Win2	0.6615000000000001	0.0	Yes	3.136	0.0	n/a	GoodResponse	1	n/a	n/a	10	64	Fixation	Win	True
610.212	0.25	Win2	0.6615000000000001	0.002	Yes	3.136	-0.002	4.0	GoodResponse	1	0.215	609.427	10	64	Target	Win	True
610.427	0.3	Win2	0.6615000000000001	0.002	Yes	3.136	-0.002	4.0	GoodResponse	1	0.215	n/a	10	64	ButtonPress	Win	True
610.462	0.45	Win2	0.6615000000000001	n/a	Yes	3.136	n/a	n/a	GoodResponse	1	n/a	n/a	10	64	Blank	Win	True
610.912	1.45	Win2	0.6615000000000001	n/a	Yes	3.136	n/a	5.0	GoodResponse	1	0.038	609.95	10	64	Feedback	Win	True
612.362	3.136	Win2	0.6615000000000001	n/a	Yes	3.136	n/a	n/a	GoodResponse	1	0.0	n/a	10	64	ISIslide	Win	True
615.527	0.25	Control	0.6515000000000001	0.0	No	2.773	0.027	n/a	NoResponse	0	n/a	n/a	10	65	Cue	Neutral	True
615.777	4.0	Control	0.6515000000000001	0.0	No	2.773	0.0	n/a	NoResponse	0	n/a	n/a	10	65	Fixation	Neutral	True
619.776	0.25	Control	0.6515000000000001	0.001	No	2.773	-0.001	4.0	NoResponse	0	0.427	619.203	10	65	Target	Neutral	True
620.026	0.45	Control	0.6515000000000001	n/a	No	2.773	n/a	n/a	NoResponse	0	n/a	n/a	10	65	Blank	Neutral	True
620.203	0.3	Control	0.6515000000000001	0.001	No	2.773	-0.001	4.0	NoResponse	0	0.427	n/a	10	65	ButtonPress	Neutral	True
620.475	1.45	Control	0.6515000000000001	n/a	No	2.773	n/a	5.0	NoResponse	0	0.037	619.512	10	65	Feedback	Neutral	True
621.925	2.773	Control	0.6515000000000001	n/a	No	2.773	n/a	n/a	NoResponse	0	0.0	n/a	10	65	ISIslide	Neutral	True
624.724	0.25	Win2	0.6567000000000001	0.0	Yes	2.776	0.024	n/a	GoodResponse	1	n/a	n/a	11	66	Cue	Win	True
624.974	3.9	Win2	0.6567000000000001	0.0	Yes	2.776	0.0	n/a	GoodResponse	1	n/a	n/a	11	66	Fixation	Win	True
628.873	0.26	Win2	0.6567000000000001	0.001	Yes	2.776	-0.001	4.0	GoodResponse	1	0.232	628.105	11	66	Target	Win	True
629.105	0.3	Win2	0.6567000000000001	0.001	Yes	2.776	-0.001	4.0	GoodResponse	1	0.232	n/a	11	66	ButtonPress	Win	True
629.139	0.44	Win2	0.6567000000000001	n/a	Yes	2.776	n/a	n/a	GoodResponse	1	n/a	n/a	11	66	Blank	Win	True
629.572	1.45	Win2	0.6567000000000001	n/a	Yes	2.776	n/a	5.0	GoodResponse	1	0.013	628.585	11	66	Feedback	Win	True
631.022	2.776	Win2	0.6567000000000001	n/a	Yes	2.776	n/a	n/a	GoodResponse	1	0.0	n/a	11	66	ISIslide	Win	True
633.821	0.25	Control	0.6618	0.0	Yes	2.729	0.021	n/a	GoodResponse	0	n/a	n/a	11	67	Cue	Neutral	True
634.071	3.95	Control	0.6618	0.0	Yes	2.729	0.0	n/a	GoodResponse	0	n/a	n/a	11	67	Fixation	Neutral	True
638.019	0.26	Control	0.6618	0.002	Yes	2.729	-0.002	4.0	GoodResponse	0	0.259	637.278	11	67	Target	Neutral	True
638.278	0.3	Control	0.6618	0.002	Yes	2.729	-0.002	4.0	GoodResponse	0	0.259	n/a	11	67	ButtonPress	Neutral	True
638.286	0.44	Control	0.6618	n/a	Yes	2.729	n/a	n/a	GoodResponse	0	n/a	n/a	11	67	Blank	Neutral	True
638.719	1.45	Control	0.6618	n/a	Yes	2.729	n/a	5.0	GoodResponse	0	0.037	637.756	11	67	Feedback	Neutral	True
640.169	2.729	Control	0.6618	n/a	Yes	2.729	n/a	n/a	GoodResponse	0	0.0	n/a	11	67	ISIslide	Neutral	True
642.918	0.25	Win2	0.6667000000000001	0.0	Yes	3.082	0.018	n/a	GoodResponse	1	n/a	n/a	12	68	Cue	Win	True
643.168	4.0	Win2	0.6667000000000001	0.0	Yes	3.082	0.0	n/a	GoodResponse	1	n/a	n/a	12	68	Fixation	Win	True
647.166	0.26	Win2	0.6667000000000001	0.002	Yes	3.082	-0.002	4.0	GoodResponse	1	0.212	646.378	12	68	Target	Win	True
647.378	0.3	Win2	0.6667000000000001	0.002	Yes	3.082	-0.002	4.0	GoodResponse	1	0.212	n/a	12	68	ButtonPress	Win	True
647.433	0.44	Win2	0.6667000000000001	n/a	Yes	3.082	n/a	n/a	GoodResponse	1	n/a	n/a	12	68	Blank	Win	True
647.866	1.45	Win2	0.6667000000000001	n/a	Yes	3.082	n/a	5.0	GoodResponse	1	0.011	646.877	12	68	Feedback	Win	True
649.316	3.082	Win2	0.6667000000000001	n/a	Yes	3.082	n/a	n/a	GoodResponse	1	0.0	n/a	12	68	ISIslide	Win	True
652.415	0.25	Win2	0.6714	0.0	Yes	3.235	0.015	n/a	GoodResponse	1	n/a	n/a	13	69	Cue	Win	True
652.664	3.95	Win2	0.6714	0.001	Yes	3.235	-0.001	n/a	GoodResponse	1	n/a	n/a	13	69	Fixation	Win	True
656.613	0.25	Win2	0.6714	0.002	Yes	3.235	-0.002	4.0	GoodResponse	1	0.249	655.862	13	69	Target	Win	True
656.862	0.3	Win2	0.6714	0.002	Yes	3.235	-0.002	4.0	GoodResponse	1	0.249	n/a	13	69	ButtonPress	Win	True
656.863	0.45	Win2	0.6714	n/a	Yes	3.235	n/a	n/a	GoodResponse	1	n/a	n/a	13	69	Blank	Win	True
657.313	1.45	Win2	0.6714	n/a	Yes	3.235	n/a	5.0	GoodResponse	1	0.027	656.34	13	69	Feedback	Win	True
658.762	3.235	Win2	0.6714	n/a	Yes	3.235	n/a	n/a	GoodResponse	1	0.0	n/a	13	69	ISIslide	Win	True
662.028	0.25	Lose2	0.6761	0.0	Yes	3.022	0.028	n/a	GoodResponse	0	n/a	n/a	13	70	Cue	AvoidedLoss	True
662.278	4.05	Lose2	0.6761	0.0	Yes	3.022	0.0	n/a	GoodResponse	0	n/a	n/a	13	70	Fixation	AvoidedLoss	True
666.326	0.24	Lose2	0.6761	0.002	Yes	3.022	-0.002	4.0	GoodResponse	0	0.172	665.498	13	70	Target	AvoidedLoss	True
666.498	0.3	Lose2	0.6761	0.002	Yes	3.022	-0.002	4.0	GoodResponse	0	0.172	n/a	13	70	ButtonPress	AvoidedLoss	True
666.576	0.46	Lose2	0.6761	n/a	Yes	3.022	n/a	n/a	GoodResponse	0	n/a	n/a	13	70	Blank	AvoidedLoss	True
667.026	1.45	Lose2	0.6761	n/a	Yes	3.022	n/a	5.0	GoodResponse	0	0.022	666.048	13	70	Feedback	AvoidedLoss	True
668.476	3.022	Lose2	0.6761	n/a	Yes	3.022	n/a	n/a	GoodResponse	0	0.0	n/a	13	70	ISIslide	AvoidedLoss	True
671.525	0.25	Win2	0.6806	0.0	Yes	2.725	0.025	n/a	GoodResponse	1	n/a	n/a	14	71	Cue	Win	True
671.775	4.05	Win2	0.6806	0.0	Yes	2.725	0.0	n/a	GoodResponse	1	n/a	n/a	14	71	Fixation	Win	True
675.823	0.23	Win2	0.6806	0.002	Yes	2.725	-0.002	4.0	GoodResponse	1	0.227	675.05	14	71	Target	Win	True
676.05	0.3	Win2	0.6806	0.002	Yes	2.725	-0.002	4.0	GoodResponse	1	0.227	n/a	14	71	ButtonPress	Win	True
676.056	0.47	Win2	0.6806	n/a	Yes	2.725	n/a	n/a	GoodResponse	1	n/a	n/a	14	71	Blank	Win	True
676.523	1.45	Win2	0.6806	n/a	Yes	2.725	n/a	5.0	GoodResponse	1	0.037	675.56	14	71	Feedback	Win	True
677.972	2.725	Win2	0.6806	n/a	Yes	2.725	n/a	n/a	GoodResponse	1	0.0	n/a	14	71	ISIslide	Win	True
680.722	0.25	Win2	0.6712	0.0	No	2.778	0.022	n/a	LatePress	0	n/a	n/a	14	72	Cue	MissedWin	True
680.971	4.1	Win2	0.6712	0.001	No	2.778	-0.001	n/a	LatePress	0	n/a	n/a	14	72	Fixation	MissedWin	True
685.07	0.22	Win2	0.6712	0.002	No	2.778	-0.002	4.0	LatePress	0	0.22	684.29	14	72	Target	MissedWin	True
685.29	0.3	Win2	0.6712	0.002	No	2.778	-0.002	4.0	LatePress	0	0.22	n/a	14	72	ButtonPress	MissedWin	True
685.303	0.48	Win2	0.6712	n/a	No	2.778	n/a	n/a	LatePress	0	n/a	n/a	14	72	Blank	MissedWin	True
685.77	1.45	Win2	0.6712	n/a	No	2.778	n/a	5.0	LatePress	0	0.01	684.78	14	72	Feedback	MissedWin	True
687.219	2.778	Win2	0.6712	n/a	No	2.778	n/a	n/a	LatePress	0	0.0	n/a	14	72	ISIslide	MissedWin	True
690.018	0.25	Win2	0.6622	0.0	No	2.682	0.018	n/a	NoResponse	0	n/a	n/a	14	73	Cue	MissedWin	True
690.268	4.0	Win2	0.6622	0.0	No	2.682	0.0	n/a	NoResponse	0	n/a	n/a	14	73	Fixation	MissedWin	True
694.267	0.21	Win2	0.6622	0.001	No	2.682	-0.001	4.0	NoResponse	0	0.258	693.525	14	73	Target	MissedWin	True
694.483	0.49	Win2	0.6622	n/a	No	2.682	n/a	n/a	NoResponse	0	n/a	n/a	14	73	Blank	MissedWin	True
694.525	0.3	Win2	0.6622	0.001	No	2.682	-0.001	4.0	NoResponse	0	0.258	n/a	14	73	ButtonPress	MissedWin	True
694.967	1.45	Win2	0.6622	n/a	No	2.682	n/a	5.0	NoResponse	0	0.032	693.999	14	73	Feedback	MissedWin	True
696.416	2.682	Win2	0.6622	n/a	No	2.682	n/a	n/a	NoResponse	0	0.0	n/a	14	73	ISIslide	MissedWin	True
699.115	0.25	Lose2	0.6533	0.0	No	2.635	0.015	n/a	NoResponse	-1	n/a	n/a	13	74	Cue	Loss	True
699.365	4.05	Lose2	0.6533	0.0	No	2.635	0.0	n/a	NoResponse	-1	n/a	n/a	13	74	Fixation	Loss	True
703.414	0.21	Lose2	0.6533	0.001	No	2.635	-0.001	4.0	NoResponse	-1	0.248	702.662	13	74	Target	Loss	True
703.63	0.49	Lose2	0.6533	n/a	No	2.635	n/a	n/a	NoResponse	-1	n/a	n/a	13	74	Blank	Loss	True
703.662	0.3	Lose2	0.6533	0.001	No	2.635	-0.001	4.0	NoResponse	-1	0.248	n/a	13	74	ButtonPress	Loss	True
704.113	1.45	Lose2	0.6533	n/a	No	2.635	n/a	5.0	NoResponse	-1	0.008	703.121	13	74	Feedback	Loss	True
705.563	2.635	Lose2	0.6533	n/a	No	2.635	n/a	n/a	NoResponse	-1	0.0	n/a	13	74	ISIslide	Loss	True
708.229	0.25	Lose2	0.6579	0.0	Yes	2.921	0.029	n/a	GoodResponse	0	n/a	n/a	13	75	Cue	AvoidedLoss	True
708.479	3.95	Lose2	0.6579	0.0	Yes	2.921	0.0	n/a	GoodResponse	0	n/a	n/a	13	75	Fixation	AvoidedLoss	True
712.427	0.22	Lose2	0.6579	0.002	Yes	2.921	-0.002	4.0	GoodResponse	0	0.194	711.621	13	75	Target	AvoidedLoss	True
712.621	0.3	Lose2	0.6579	0.002	Yes	2.921	-0.002	4.0	GoodResponse	0	0.194	n/a	13	75	ButtonPress	AvoidedLoss	True
712.661	0.48	Lose2	0.6579	n/a	Yes	2.921	n/a	n/a	GoodResponse	0	n/a	n/a	13	75	Blank	AvoidedLoss	True
713.127	1.45	Lose2	0.6579	n/a	Yes	2.921	n/a	5.0	GoodResponse	0	0.019	712.146	13	75	Feedback	AvoidedLoss	True
714.577	2.921	Lose2	0.6579	n/a	Yes	2.921	n/a	n/a	GoodResponse	0	0.0	n/a	13	75	ISIslide	AvoidedLoss	True
717.526	0.25	Control	0.6494	0.0	No	3.224	0.026	n/a	LatePress	0	n/a	n/a	13	76	Cue	Neutral	True
717.775	4.05	Control	0.6494	0.001	No	3.224	-0.001	n/a	LatePress	0	n/a	n/a	13	76	Fixation	Neutral	True
721.824	0.22	Control	0.6494	0.002	No	3.224	-0.002	4.0	LatePress	0	0.232	721.056	13	76	Target	Neutral	True
722.056	0.3	Control	0.6494	0.002	No	3.224	-0.002	4.0	LatePress	0	0.232	n/a	13	76	ButtonPress	Neutral	True
722.057	0.48	Control	0.6494	n/a	No	3.224	n/a	n/a	LatePress	0	n/a	n/a	13	76	Blank	Neutral	True
722.524	1.45	Control	0.6494	n/a	No	3.224	n/a	5.0	LatePress	0	0.036	721.56	13	76	Feedback	Neutral	True
723.973	3.224	Control	0.6494	n/a	No	3.224	n/a	n/a	LatePress	0	0.0	n/a	13	76	ISIslide	Neutral	True
727.222	0.25	Lose2	0.6537999999999999	0.0	Yes	2.578	0.022	n/a	GoodResponse	0	n/a	n/a	13	77	Cue	AvoidedLoss	True
727.472	3.95	Lose2	0.6537999999999999	0.0	Yes	2.578	0.0	n/a	GoodResponse	0	n/a	n/a	13	77	Fixation	AvoidedLoss	True
731.421	0.23	Lose2	0.6537999999999999	0.001	Yes	2.578	-0.001	4.0	GoodResponse	0	0.174	730.595	13	77	Target	AvoidedLoss	True
731.595	0.3	Lose2	0.6537999999999999	0.001	Yes	2.578	-0.001	4.0	GoodResponse	0	0.174	n/a	13	77	ButtonPress	AvoidedLoss	True
731.654	0.47	Lose2	0.6537999999999999	n/a	Yes	2.578	n/a	n/a	GoodResponse	0	n/a	n/a	13	77	Blank	AvoidedLoss	True
732.121	1.45	Lose2	0.6537999999999999	n/a	Yes	2.578	n/a	5.0	GoodResponse	0	0.0	731.121	13	77	Feedback	AvoidedLoss	True
733.57	2.578	Lose2	0.6537999999999999	n/a	Yes	2.578	n/a	n/a	GoodResponse	0	0.0	n/a	13	77	ISIslide	AvoidedLoss	True
