onset	duration	cue_type	current_mean_accuracy	duration_error	is_hit	isi_adjusted	onset_delay	response	response_type	reward	rt	rt_time	total_reward	trial_number	trial_phase	trial_type	one_press
11.105	0.25	Control	1.0	0.0	Yes	2.945	0.005	n/a	GoodResponse	0	n/a	n/a	0	0	Cue	Neutral	False
11.356	3.85	Control	1.0	0.0	Yes	2.945	0.001	1.0	GoodResponse	0	0.055	10.411	0	0	Fixation	Neutral	False
11.411	0.3	Control	1.0	0.0	Yes	2.945	0.001	1.0	GoodResponse	0	0.055	n/a	0	0	ButtonPress	Neutral	False
15.217	0.4	Control	1.0	0.0	Yes	2.945	0.012	1.0	GoodResponse	0	0.311	14.528	0	0	Target	Neutral	False
15.528	0.3	Control	1.0	0.0	Yes	2.945	0.012	1.0	GoodResponse	0	0.311	n/a	0	0	ButtonPress	Neutral	False
15.602	0.3	Control	1.0	n/a	Yes	2.945	n/a	n/a	GoodResponse	0	n/a	n/a	0	0	Blank	Neutral	False
15.903	1.45	Control	1.0	n/a	Yes	2.945	n/a	5.0	GoodResponse	0	0.024	14.927	0	0	Feedback	Neutral	False
17.357	2.945	Control	1.0	n/a	Yes	2.945	n/a	n/a	GoodResponse	0	0.0	n/a	0	0	ISIslide	Neutral	False
20.316	0.25	Lose2	1.0	0.0	Yes	2.784	0.016	n/a	GoodResponse	0	n/a	n/a	0	1	Cue	AvoidedLoss	False
20.566	4.0	Lose2	1.0	0.001	Yes	2.784	0.0	1.0	GoodResponse	0	0.055	19.621	0	1	Fixation	AvoidedLoss	False
20.621	0.3	Lose2	1.0	0.001	Yes	2.784	0.0	1.0	GoodResponse	0	0.055	n/a	0	1	ButtonPress	AvoidedLoss	False
24.562	0.39	Lose2	1.0	0.004	Yes	2.784	-0.004	1.0	GoodResponse	0	0.234	23.796	0	1	Target	AvoidedLoss	False
24.796	0.3	Lose2	1.0	0.004	Yes	2.784	-0.004	1.0	GoodResponse	0	0.234	n/a	0	1	ButtonPress	AvoidedLoss	False
24.963	0.31	Lose2	1.0	n/a	Yes	2.784	n/a	n/a	GoodResponse	0	n/a	n/a	0	1	Blank	AvoidedLoss	False
25.264	1.45	Lose2	1.0	n/a	Yes	2.784	n/a	5.0	GoodResponse	0	0.029	24.293	0	1	Feedback	AvoidedLoss	False
26.718	2.784	Lose2	1.0	n/a	Yes	2.784	n/a	n/a	GoodResponse	0	0.0	n/a	0	1	ISIslide	AvoidedLoss	False
29.527	0.25	Control	1.0	0.0	Yes	2.573	0.027	1.0	GoodResponse	0	0.203	28.73	0	2	Cue	Neutral	False
29.73	0.3	Control	1.0	0.0	Yes	2.573	0.027	1.0	GoodResponse	0	0.203	n/a	0	2	ButtonPress	Neutral	False
29.777	4.1	Control	1.0	0.0	Yes	2.573	0.0	n/a	GoodResponse	0	n/a	n/a	0	2	Fixation	Neutral	False
33.873	0.38	Control	1.0	0.004	Yes	2.573	-0.004	1.0	GoodResponse	0	0.234	33.107	0	2	Target	Neutral	False
34.107	0.3	Control	1.0	0.004	Yes	2.573	-0.004	1.0	GoodResponse	0	0.234	n/a	0	2	ButtonPress	Neutral	False
34.257	0.32	Control	1.0	n/a	Yes	2.573	n/a	n/a	GoodResponse	0	n/a	n/a	0	2	Blank	Neutral	False
34.575	1.45	Control	1.0	n/a	Yes	2.573	n/a	5.0	GoodResponse	0	0.035	33.61	0	2	Feedback	Neutral	False
36.029	2.573	Control	1.0	n/a	Yes	2.573	n/a	n/a	GoodResponse	0	0.0	n/a	0	2	ISIslide	Neutral	False
38.62	0.25	Win2	1.0	0.001	Yes	2.83	0.02	1.0	GoodResponse	1	0.208	37.828	1	3	Cue	Win	False
38.828	0.3	Win2	1.0	0.001	Yes	2.83	0.02	1.0	GoodResponse	1	0.208	n/a	1	3	ButtonPress	Win	False
38.871	3.95	Win2	1.0	0.0	Yes	2.83	0.001	n/a	GoodResponse	1	n/a	n/a	1	3	Fixation	Win	False
42.816	0.37	Win2	1.0	0.004	Yes	2.83	-0.004	1.0	GoodResponse	1	0.204	42.02	1	3	Target	Win	False
43.02	0.3	Win2	1.0	0.004	Yes	2.83	-0.004	1.0	GoodResponse	1	0.204	n/a	1	3	ButtonPress	Win	False
43.201	0.33	Win2	1.0	n/a	Yes	2.83	n/a	n/a	GoodResponse	1	n/a	n/a	1	3	Blank	Win	False
43.518	1.45	Win2	1.0	n/a	Yes	2.83	n/a	5.0	GoodResponse	1	0.018	42.536	1	3	Feedback	Win	False
44.973	2.83	Win2	1.0	n/a	Yes	2.83	n/a	n/a	GoodResponse	1	0.0	n/a	1	3	ISIslide	Win	False
47.831	0.25	Win2	1.0	0.0	Yes	3.269	0.031	n/a	GoodResponse	1	n/a	n/a	2	4	Cue	Win	False
48.082	4.0	Win2	1.0	0.0	Yes	3.269	0.001	1.0	GoodResponse	1	0.079	47.161	2	4	Fixation	Win	False
48.161	0.3	Win2	1.0	0.0	Yes	3.269	0.001	1.0	GoodResponse	1	0.079	n/a	2	4	ButtonPress	Win	False
52.077	0.36	Win2	1.0	0.004	Yes	3.269	-0.004	1.0	GoodResponse	1	0.23	51.307	2	4	Target	Win	False
52.307	0.3	Win2	1.0	0.004	Yes	3.269	-0.004	1.0	GoodResponse	1	0.23	n/a	2	4	ButtonPress	Win	False
52.445	0.34	Win2	1.0	n/a	Yes	3.269	n/a	n/a	GoodResponse	1	n/a	n/a	2	4	Blank	Win	False
52.779	1.45	Win2	1.0	n/a	Yes	3.269	n/a	5.0	GoodResponse	1	0.025	51.804	2	4	Feedback	Win	False
54.234	3.269	Win2	1.0	n/a	Yes	3.269	n/a	n/a	GoodResponse	1	0.0	n/a	2	4	ISIslide	Win	False
57.527	0.25	Win2	1.0	0.0	Yes	2.773	0.027	1.0	GoodResponse	1	0.192	56.719	3	5	Cue	Win	False
57.719	0.3	Win2	1.0	0.0	Yes	2.773	0.027	1.0	GoodResponse	1	0.192	n/a	3	5	ButtonPress	Win	False
57.778	4.0	Win2	1.0	0.0	Yes	2.773	0.001	n/a	GoodResponse	1	n/a	n/a	3	5	Fixation	Win	False
61.773	0.35	Win2	1.0	0.004	Yes	2.773	-0.004	1.0	GoodResponse	1	0.178	60.951	3	5	Target	Win	False
61.951	0.3	Win2	1.0	0.004	Yes	2.773	-0.004	1.0	GoodResponse	1	0.178	n/a	3	5	ButtonPress	Win	False
62.124	0.35	Win2	1.0	n/a	Yes	2.773	n/a	n/a	GoodResponse	1	n/a	n/a	3	5	Blank	Win	False
62.475	1.45	Win2	1.0	n/a	Yes	2.773	n/a	5.0	GoodResponse	1	0.037	61.512	3	5	Feedback	Win	False
63.929	2.773	Win2	1.0	n/a	Yes	2.773	n/a	n/a	GoodResponse	1	0.0	n/a	3	5	ISIslide	Win	False
66.721	0.25	Lose2	1.0	0.0	Yes	2.729	0.021	1.0	GoodResponse	0	0.237	65.958	3	6	Cue	AvoidedLoss	False
66.958	0.3	Lose2	1.0	0.0	Yes	2.729	0.021	1.0	GoodResponse	0	0.237	n/a	3	6	ButtonPress	AvoidedLoss	False
66.972	3.95	Lose2	1.0	0.0	Yes	2.729	0.001	n/a	GoodResponse	0	n/a	n/a	3	6	Fixation	AvoidedLoss	False
70.917	0.34	Lose2	1.0	0.004	Yes	2.729	-0.004	1.0	GoodResponse	0	0.16	70.077	3	6	Target	AvoidedLoss	False
71.077	0.3	Lose2	1.0	0.004	Yes	2.729	-0.004	1.0	GoodResponse	0	0.16	n/a	3	6	ButtonPress	AvoidedLoss	False
71.268	0.36	Lose2	1.0	n/a	Yes	2.729	n/a	n/a	GoodResponse	0	n/a	n/a	3	6	Blank	AvoidedLoss	False
71.619	1.45	Lose2	1.0	n/a	Yes	2.729	n/a	5.0	GoodResponse	0	0.015	70.634	3	6	Feedback	AvoidedLoss	False
73.073	2.729	Lose2	1.0	n/a	Yes	2.729	n/a	1.0	GoodResponse	0	2.425	n/a	3	6	ISIslide	AvoidedLoss	False
75.798	0.25	Lose2	1.0	0.0	Yes	4.052	-0.002	1.0	GoodResponse	0	0.237	75.035	3	7	Cue	AvoidedLoss	False
76.035	0.3	Lose2	1.0	0.0	Yes	4.052	-0.002	1.0	GoodResponse	0	0.237	n/a	3	7	ButtonPress	AvoidedLoss	False
76.049	4.05	Lose2	1.0	0.0	Yes	4.052	0.001	1.0	GoodResponse	0	0.217	75.266	3	7	Fixation	AvoidedLoss	False
76.266	0.3	Lose2	1.0	0.0	Yes	4.052	0.001	1.0	GoodResponse	0	0.217	n/a	3	7	ButtonPress	AvoidedLoss	False
80.094	0.33	Lose2	1.0	0.004	Yes	4.052	-0.004	1.0	GoodResponse	0	0.267	79.361	3	7	Target	AvoidedLoss	False
80.361	0.3	Lose2	1.0	0.004	Yes	4.052	-0.004	1.0	GoodResponse	0	0.267	n/a	3	7	ButtonPress	AvoidedLoss	False
80.429	0.37	Lose2	1.0	n/a	Yes	4.052	n/a	n/a	GoodResponse	0	n/a	n/a	3	7	Blank	AvoidedLoss	False
80.797	1.45	Lose2	1.0	n/a	Yes	4.052	n/a	5.0	GoodResponse	0	0.008	79.805	3	7	Feedback	AvoidedLoss	False
82.251	4.052	Lose2	1.0	n/a	Yes	4.052	n/a	n/a	GoodResponse	0	0.0	n/a	3	7	ISIslide	AvoidedLoss	False
86.33	0.25	Lose2	1.0	0.0	Yes	3.02	0.03	1.0	GoodResponse	0	0.199	85.529	3	8	Cue	AvoidedLoss	False
86.529	0.3	Lose2	1.0	0.0	Yes	3.02	0.03	1.0	GoodResponse	0	0.199	n/a	3	8	ButtonPress	AvoidedLoss	False
86.58	3.95	Lose2	1.0	0.001	Yes	3.02	0.0	n/a	GoodResponse	0	n/a	n/a	3	8	Fixation	AvoidedLoss	False
90.526	0.32	Lose2	1.0	0.004	Yes	3.02	-0.004	1.0	GoodResponse	0	0.273	89.799	3	8	Target	AvoidedLoss	False
90.799	0.3	Lose2	1.0	0.004	Yes	3.02	-0.004	1.0	GoodResponse	0	0.273	n/a	3	8	ButtonPress	AvoidedLoss	False
90.86	0.38	Lose2	1.0	n/a	Yes	3.02	n/a	n/a	GoodResponse	0	n/a	n/a	3	8	Blank	AvoidedLoss	False
91.228	1.45	Lose2	1.0	n/a	Yes	3.02	n/a	5.0	GoodResponse	0	0.015	90.243	3	8	Feedback	AvoidedLoss	False
92.682	3.02	Lose2	1.0	n/a	Yes	3.02	n/a	n/a	GoodResponse	0	0.0	n/a	3	8	ISIslide	AvoidedLoss	False
95.725	0.25	Lose2	1.0	0.0	Yes	3.125	0.025	1.0	GoodResponse	0	0.209	94.934	3	9	Cue	AvoidedLoss	False
95.934	0.3	Lose2	1.0	0.0	Yes	3.125	0.025	1.0	GoodResponse	0	0.209	n/a	3	9	ButtonPress	AvoidedLoss	False
95.975	3.95	Lose2	1.0	0.0	Yes	3.125	0.0	n/a	GoodResponse	0	n/a	n/a	3	9	Fixation	AvoidedLoss	False
99.937	0.31	Lose2	1.0	0.0	Yes	3.125	0.012	1.0	GoodResponse	0	0.209	99.146	3	9	Target	AvoidedLoss	False
100.146	0.3	Lose2	1.0	0.0	Yes	3.125	0.012	1.0	GoodResponse	0	0.209	n/a	3	9	ButtonPress	AvoidedLoss	False
100.238	0.39	Lose2	1.0	n/a	Yes	3.125	n/a	n/a	GoodResponse	0	n/a	n/a	3	9	Blank	AvoidedLoss	False
100.622	1.45	Lose2	1.0	n/a	Yes	3.125	n/a	5.0	GoodResponse	0	0.036	99.658	3	9	Feedback	AvoidedLoss	False
102.077	3.125	Lose2	1.0	n/a	Yes	3.125	n/a	n/a	GoodResponse	0	0.0	n/a	3	9	ISIslide	AvoidedLoss	False
105.22	0.25	Control	1.0	0.0	Yes	3.28	0.02	1.0	GoodResponse	0	0.201	104.421	3	10	Cue	Neutral	False
105.421	0.3	Control	1.0	0.0	Yes	3.28	0.02	1.0	GoodResponse	0	0.201	n/a	3	10	ButtonPress	Neutral	False
105.47	4.0	Control	1.0	0.0	Yes	3.28	0.0	n/a	GoodResponse	0	n/a	n/a	3	10	Fixation	Neutral	False
109.466	0.3	Control	1.0	0.004	Yes	3.28	-0.004	1.0	GoodResponse	0	0.204	108.67	3	10	Target	Neutral	False
109.67	0.3	Control	1.0	0.004	Yes	3.28	-0.004	1.0	GoodResponse	0	0.204	n/a	3	10	ButtonPress	Neutral	False
109.766	0.4	Control	1.0	n/a	Yes	3.28	n/a	n/a	GoodResponse	0	n/a	n/a	3	10	Blank	Neutral	False
110.168	1.45	Control	1.0	n/a	Yes	3.28	n/a	5.0	GoodResponse	0	0.002	109.17	3	10	Feedback	Neutral	False
111.622	3.28	Control	1.0	n/a	Yes	3.28	n/a	n/a	GoodResponse	0	0.0	n/a	3	10	ISIslide	Neutral	False
114.915	0.25	Lose2	0.9167000000000001	0.0	No	2.735	0.015	n/a	NoResponse	-1	n/a	n/a	2	11	Cue	Loss	False
115.166	4.05	Lose2	0.9167000000000001	0.0	No	2.735	0.001	1.0	NoResponse	-1	0.049	114.215	2	11	Fixation	Loss	False
115.215	0.3	Lose2	0.9167000000000001	0.0	No	2.735	0.001	1.0	NoResponse	-1	0.049	n/a	2	11	ButtonPress	Loss	False
119.211	0.29	Lose2	0.9167000000000001	0.004	No	2.735	-0.004	1.0	NoResponse	-1	0.342	118.553	2	11	Target	Loss	False
119.512	0.41	Lose2	0.9167000000000001	n/a	No	2.735	n/a	n/a	NoResponse	-1	n/a	n/a	2	11	Blank	Loss	False
119.553	0.3	Lose2	0.9167000000000001	0.004	No	2.735	-0.004	1.0	NoResponse	-1	0.342	n/a	2	11	ButtonPress	Loss	False
119.913	1.45	Lose2	0.9167000000000001	n/a	No	2.735	n/a	5.0	NoResponse	-1	0.013	118.926	2	11	Feedback	Loss	False
121.368	2.735	Lose2	0.9167000000000001	n/a	No	2.735	n/a	n/a	NoResponse	-1	0.0	n/a	2	11	ISIslide	Loss	False
124.126	0.25	Control	0.9231	0.0	Yes	2.974	0.026	n/a	GoodResponse	0	n/a	n/a	2	12	Cue	Neutral	False
124.377	3.9	Control	0.9231	0.0	Yes	2.974	0.001	1.0	GoodResponse	0	0.113	123.49	2	12	Fixation	Neutral	False
124.49	0.3	Control	0.9231	0.0	Yes	2.974	0.001	1.0	GoodResponse	0	0.113	n/a	2	12	ButtonPress	Neutral	False
128.272	0.28	Control	0.9231	0.004	Yes	2.974	-0.004	1.0	GoodResponse	0	0.254	127.526	2	12	Target	Neutral	False
128.526	0.3	Control	0.9231	0.004	Yes	2.974	-0.004	1.0	GoodResponse	0	0.254	n/a	2	12	ButtonPress	Neutral	False
128.556	0.42	Control	0.9231	n/a	Yes	2.974	n/a	n/a	GoodResponse	0	n/a	n/a	2	12	Blank	Neutral	False
128.974	1.45	Control	0.9231	n/a	Yes	2.974	n/a	5.0	GoodResponse	0	0.024	127.998	2	12	Feedback	Neutral	False
130.428	2.974	Control	0.9231	n/a	Yes	2.974	n/a	n/a	GoodResponse	0	0.0	n/a	2	12	ISIslide	Neutral	False
133.421	0.25	Control	0.9286	0.0	Yes	2.779	0.021	n/a	GoodResponse	0	n/a	n/a	2	13	Cue	Neutral	False
133.671	4.0	Control	0.9286	0.0	Yes	2.779	0.0	1.0	GoodResponse	0	0.012	132.683	2	13	Fixation	Neutral	False
133.683	0.3	Control	0.9286	0.0	Yes	2.779	0.0	1.0	GoodResponse	0	0.012	n/a	2	13	ButtonPress	Neutral	False
137.667	0.27	Control	0.9286	0.004	Yes	2.779	-0.004	1.0	GoodResponse	0	0.253	136.92	2	13	Target	Neutral	False
137.92	0.3	Control	0.9286	0.004	Yes	2.779	-0.004	1.0	GoodResponse	0	0.253	n/a	2	13	ButtonPress	Neutral	False
137.951	0.43	Control	0.9286	n/a	Yes	2.779	n/a	n/a	GoodResponse	0	n/a	n/a	2	13	Blank	Neutral	False
138.369	1.45	Control	0.9286	n/a	Yes	2.779	n/a	5.0	GoodResponse	0	0.044	137.413	2	13	Feedback	Neutral	False
139.823	2.779	Control	0.9286	n/a	Yes	2.779	n/a	n/a	GoodResponse	0	0.0	n/a	2	13	ISIslide	Neutral	False
142.615	0.25	Win2	0.9333	0.0	Yes	2.685	0.015	1.0	GoodResponse	1	0.206	141.821	3	14	Cue	Win	False
142.821	0.3	Win2	0.9333	0.0	Yes	2.685	0.015	1.0	GoodResponse	1	0.206	n/a	3	14	ButtonPress	Win	False
142.865	4.1	Win2	0.9333	0.001	Yes	2.685	0.0	1.0	GoodResponse	1	1.194	143.059	3	14	Fixation	Win	False
144.059	0.3	Win2	0.9333	0.001	Yes	2.685	0.0	1.0	GoodResponse	1	1.194	n/a	3	14	ButtonPress	Win	False
146.961	0.26	Win2	0.9333	0.004	Yes	2.685	-0.004	1.0	GoodResponse	1	0.227	146.188	3	14	Target	Win	False
147.188	0.3	Win2	0.9333	0.004	Yes	2.685	-0.004	1.0	GoodResponse	1	0.227	n/a	3	14	ButtonPress	Win	False
147.229	0.44	Win2	0.9333	n/a	Yes	2.685	n/a	n/a	GoodResponse	1	n/a	n/a	3	14	Blank	Win	False
147.663	1.45	Win2	0.9333	n/a	Yes	2.685	n/a	5.0	GoodResponse	1	0.018	146.681	3	14	Feedback	Win	False
149.117	2.685	Win2	0.9333	n/a	Yes	2.685	n/a	n/a	GoodResponse	1	0.0	n/a	3	14	ISIslide	Win	False
151.826	0.25	Control	0.875	0.0	No	2.974	0.026	n/a	NoResponse	0	n/a	n/a	3	15	Cue	Neutral	False
152.076	4.0	Control	0.875	0.0	No	2.974	0.0	1.0	NoResponse	0	0.007	151.083	3	15	Fixation	Neutral	False
152.083	0.3	Control	0.875	0.0	No	2.974	0.0	1.0	NoResponse	0	0.007	n/a	3	15	ButtonPress	Neutral	False
156.072	0.25	Control	0.875	0.004	No	2.974	-0.004	1.0	NoResponse	0	0.279	155.351	3	15	Target	Neutral	False
156.322	0.45	Control	0.875	n/a	No	2.974	n/a	n/a	NoResponse	0	n/a	n/a	3	15	Blank	Neutral	False
156.351	0.3	Control	0.875	0.004	No	2.974	-0.004	1.0	NoResponse	0	0.279	n/a	3	15	ButtonPress	Neutral	False
156.774	1.45	Control	0.875	n/a	No	2.974	n/a	5.0	NoResponse	0	0.029	155.803	3	15	Feedback	Neutral	False
158.228	2.974	Control	0.875	n/a	No	2.974	n/a	n/a	NoResponse	0	0.0	n/a	3	15	ISIslide	Neutral	False
161.22	0.25	Win2	0.8824	0.0	Yes	2.88	0.02	1.0	GoodResponse	1	0.209	160.429	4	16	Cue	Win	False
161.429	0.3	Win2	0.8824	0.0	Yes	2.88	0.02	1.0	GoodResponse	1	0.209	n/a	4	16	ButtonPress	Win	False
161.471	4.0	Win2	0.8824	0.0	Yes	2.88	0.001	n/a	GoodResponse	1	n/a	n/a	4	16	Fixation	Win	False
165.466	0.24	Win2	0.8824	0.004	Yes	2.88	-0.004	1.0	GoodResponse	1	0.195	164.661	4	16	Target	Win	False
165.661	0.3	Win2	0.8824	0.004	Yes	2.88	-0.004	1.0	GoodResponse	1	0.195	n/a	4	16	ButtonPress	Win	False
165.717	0.46	Win2	0.8824	n/a	Yes	2.88	n/a	n/a	GoodResponse	1	n/a	n/a	4	16	Blank	Win	False
166.169	1.45	Win2	0.8824	n/a	Yes	2.88	n/a	5.0	GoodResponse	1	0.049	165.218	4	16	Feedback	Win	False
167.623	2.88	Win2	0.8824	n/a	Yes	2.88	n/a	n/a	GoodResponse	1	0.0	n/a	4	16	ISIslide	Win	False
170.515	0.25	Lose2	0.8889	0.0	Yes	2.735	0.015	1.0	GoodResponse	0	0.187	169.702	4	17	Cue	AvoidedLoss	False
170.702	0.3	Lose2	0.8889	0.0	Yes	2.735	0.015	1.0	GoodResponse	0	0.187	n/a	4	17	ButtonPress	AvoidedLoss	False
170.766	3.95	Lose2	0.8889	0.0	Yes	2.735	0.001	1.0	GoodResponse	0	0.786	170.552	4	17	Fixation	AvoidedLoss	False
171.552	0.3	Lose2	0.8889	0.0	Yes	2.735	0.001	1.0	GoodResponse	0	0.786	n/a	4	17	ButtonPress	AvoidedLoss	False
174.711	0.23	Lose2	0.8889	0.004	Yes	2.735	-0.004	1.0	GoodResponse	0	0.21	173.921	4	17	Target	AvoidedLoss	False
174.921	0.3	Lose2	0.8889	0.004	Yes	2.735	-0.004	1.0	GoodResponse	0	0.21	n/a	4	17	ButtonPress	AvoidedLoss	False
174.945	0.47	Lose2	0.8889	n/a	Yes	2.735	n/a	n/a	GoodResponse	0	n/a	n/a	4	17	Blank	AvoidedLoss	False
175.413	1.45	Lose2	0.8889	n/a	Yes	2.735	n/a	5.0	GoodResponse	0	0.024	174.437	4	17	Feedback	AvoidedLoss	False
176.867	2.735	Lose2	0.8889	n/a	Yes	2.735	n/a	n/a	GoodResponse	0	0.0	n/a	4	17	ISIslide	AvoidedLoss	False
179.625	0.25	Lose2	0.8946999999999999	0.0	Yes	2.725	0.025	1.0	GoodResponse	0	0.162	178.787	4	18	Cue	AvoidedLoss	False
179.787	0.3	Lose2	0.8946999999999999	0.0	Yes	2.725	0.025	1.0	GoodResponse	0	0.162	n/a	4	18	ButtonPress	AvoidedLoss	False
179.876	4.05	Lose2	0.8946999999999999	0.0	Yes	2.725	0.001	n/a	GoodResponse	0	n/a	n/a	4	18	Fixation	AvoidedLoss	False
183.922	0.22	Lose2	0.8946999999999999	0.003	Yes	2.725	-0.003	1.0	GoodResponse	0	0.195	183.117	4	18	Target	AvoidedLoss	False
184.117	0.3	Lose2	0.8946999999999999	0.003	Yes	2.725	-0.003	1.0	GoodResponse	0	0.195	n/a	4	18	ButtonPress	AvoidedLoss	False
184.156	0.48	Lose2	0.8946999999999999	n/a	Yes	2.725	n/a	n/a	GoodResponse	0	n/a	n/a	4	18	Blank	AvoidedLoss	False
184.624	1.45	Lose2	0.8946999999999999	n/a	Yes	2.725	n/a	5.0	GoodResponse	0	0.032	183.656	4	18	Feedback	AvoidedLoss	False
186.078	2.725	Lose2	0.8946999999999999	n/a	Yes	2.725	n/a	n/a	GoodResponse	0	0.0	n/a	4	18	ISIslide	AvoidedLoss	False
188.82	0.25	Control	0.85	0.0	No	2.93	0.02	n/a	NoResponse	0	n/a	n/a	4	19	Cue	Neutral	False
189.07	3.95	Control	0.85	0.0	No	2.93	0.0	1.0	NoResponse	0	0.014	188.084	4	19	Fixation	Neutral	False
189.084	0.3	Control	0.85	0.0	No	2.93	0.0	1.0	NoResponse	0	0.014	n/a	4	19	ButtonPress	Neutral	False
193.032	0.21	Control	0.85	0.0	No	2.93	0.012	1.0	NoResponse	0	0.216	192.248	4	19	Target	Neutral	False
193.233	0.49	Control	0.85	n/a	No	2.93	n/a	n/a	NoResponse	0	n/a	n/a	4	19	Blank	Neutral	False
193.248	0.3	Control	0.85	0.0	No	2.93	0.012	1.0	NoResponse	0	0.216	n/a	4	19	ButtonPress	Neutral	False
193.718	1.45	Control	0.85	n/a	No	2.93	n/a	5.0	NoResponse	0	0.012	192.73	4	19	Feedback	Neutral	False
195.172	2.93	Control	0.85	n/a	No	2.93	n/a	n/a	NoResponse	0	0.0	n/a	4	19	ISIslide	Neutral	False
198.114	0.25	Control	0.8571	0.0	Yes	2.636	0.014	n/a	GoodResponse	0	n/a	n/a	4	20	Cue	Neutral	False
198.365	4.05	Control	0.8571	0.0	Yes	2.636	0.001	1.0	GoodResponse	0	0.025	197.39	4	20	Fixation	Neutral	False
198.39	0.3	Control	0.8571	0.0	Yes	2.636	0.001	1.0	GoodResponse	0	0.025	n/a	4	20	ButtonPress	Neutral	False
202.41	0.2	Control	0.8571	0.004	Yes	2.636	-0.004	1.0	GoodResponse	0	0.199	201.609	4	20	Target	Neutral	False
202.609	0.3	Control	0.8571	0.004	Yes	2.636	-0.004	1.0	GoodResponse	0	0.199	n/a	4	20	ButtonPress	Neutral	False
202.611	0.5	Control	0.8571	n/a	Yes	2.636	n/a	n/a	GoodResponse	0	n/a	n/a	4	20	Blank	Neutral	False
203.112	1.45	Control	0.8571	n/a	Yes	2.636	n/a	5.0	GoodResponse	0	0.032	202.144	4	20	Feedback	Neutral	False
204.567	2.636	Control	0.8571	n/a	Yes	2.636	n/a	n/a	GoodResponse	0	0.0	n/a	4	20	ISIslide	Neutral	False
207.225	0.25	Control	0.8181999999999999	0.0	No	2.775	0.025	1.0	NoResponse	0	0.231	206.456	4	21	Cue	Neutral	False
207.456	0.3	Control	0.8181999999999999	0.0	No	2.775	0.025	1.0	NoResponse	0	0.231	n/a	4	21	ButtonPress	Neutral	False
207.475	4.1	Control	0.8181999999999999	0.0	No	2.775	0.0	1.0	NoResponse	0	3.27	209.745	4	21	Fixation	Neutral	False
210.745	0.3	Control	0.8181999999999999	0.0	No	2.775	0.0	1.0	NoResponse	0	3.27	n/a	4	21	ButtonPress	Neutral	False
211.571	0.19	Control	0.8181999999999999	0.004	No	2.775	-0.004	1.0	NoResponse	0	0.255	210.826	4	21	Target	Neutral	False
211.771	0.51	Control	0.8181999999999999	n/a	No	2.775	n/a	n/a	NoResponse	0	n/a	n/a	4	21	Blank	Neutral	False
211.826	0.3	Control	0.8181999999999999	0.004	No	2.775	-0.004	1.0	NoResponse	0	0.255	n/a	4	21	ButtonPress	Neutral	False
212.273	1.45	Control	0.8181999999999999	n/a	No	2.775	n/a	5.0	NoResponse	0	0.041	211.314	4	21	Feedback	Neutral	False
213.727	2.775	Control	0.8181999999999999	n/a	No	2.775	n/a	n/a	NoResponse	0	0.0	n/a	4	21	ISIslide	Neutral	False
216.519	0.25	Control	0.7826000000000001	0.0	No	2.781	0.019	n/a	PrematurePress	0	n/a	n/a	4	22	Cue	Neutral	False
216.77	4.0	Control	0.7826000000000001	0.0	No	2.781	0.001	1.0	PrematurePress	0	0.013	215.783	4	22	Fixation	Neutral	False
216.783	0.3	Control	0.7826000000000001	0.0	No	2.781	0.001	1.0	PrematurePress	0	0.013	n/a	4	22	ButtonPress	Neutral	False
220.765	0.18	Control	0.7826000000000001	0.004	No	2.781	-0.004	1.0	PrematurePress	0	0.054	219.819	4	22	Target	Neutral	False
220.819	0.3	Control	0.7826000000000001	0.004	No	2.781	-0.004	1.0	PrematurePress	0	0.054	n/a	4	22	ButtonPress	Neutral	False
220.949	0.52	Control	0.7826000000000001	n/a	No	2.781	n/a	n/a	PrematurePress	0	n/a	n/a	4	22	Blank	Neutral	False
221.467	1.45	Control	0.7826000000000001	n/a	No	2.781	n/a	5.0	PrematurePress	0	0.018	220.485	4	22	Feedback	Neutral	False
222.921	2.781	Control	0.7826000000000001	n/a	No	2.781	n/a	n/a	PrematurePress	0	0.0	n/a	4	22	ISIslide	Neutral	False
225.73	0.25	Control	0.75	0.0	No	2.77	0.03	1.0	NoResponse	0	0.197	224.927	4	23	Cue	Neutral	False
225.927	0.3	Control	0.75	0.0	No	2.77	0.03	1.0	NoResponse	0	0.197	n/a	4	23	ButtonPress	Neutral	False
225.981	3.9	Control	0.75	0.0	No	2.77	0.001	1.0	NoResponse	0	1.798	226.779	4	23	Fixation	Neutral	False
227.779	0.3	Control	0.75	0.0	No	2.77	0.001	1.0	NoResponse	0	1.798	n/a	4	23	ButtonPress	Neutral	False
229.876	0.17	Control	0.75	0.004	No	2.77	-0.004	1.0	NoResponse	0	0.201	229.077	4	23	Target	Neutral	False
230.059	0.53	Control	0.75	n/a	No	2.77	n/a	n/a	NoResponse	0	n/a	n/a	4	23	Blank	Neutral	False
230.077	0.3	Control	0.75	0.004	No	2.77	-0.004	1.0	NoResponse	0	0.201	n/a	4	23	ButtonPress	Neutral	False
230.578	1.45	Control	0.75	n/a	No	2.77	n/a	5.0	NoResponse	0	0.029	229.607	4	23	Feedback	Neutral	False
232.032	2.77	Control	0.75	n/a	No	2.77	n/a	n/a	NoResponse	0	0.0	n/a	4	23	ISIslide	Neutral	False
234.824	0.25	Win2	0.72	0.0	No	3.126	0.024	1.0	NoResponse	0	0.214	234.038	4	24	Cue	MissedWin	False
235.038	0.3	Win2	0.72	0.0	No	3.126	0.024	1.0	NoResponse	0	0.214	n/a	4	24	ButtonPress	MissedWin	False
235.074	3.95	Win2	0.72	0.001	No	3.126	0.0	n/a	NoResponse	0	n/a	n/a	4	24	Fixation	MissedWin	False
239.02	0.16	Win2	0.72	0.004	No	3.126	-0.004	1.0	NoResponse	0	0.195	238.215	4	24	Target	MissedWin	False
239.187	0.54	Win2	0.72	n/a	No	3.126	n/a	n/a	NoResponse	0	n/a	n/a	4	24	Blank	MissedWin	False
239.215	0.3	Win2	0.72	0.004	No	3.126	-0.004	1.0	NoResponse	0	0.195	n/a	4	24	ButtonPress	MissedWin	False
239.722	1.45	Win2	0.72	n/a	No	3.126	n/a	5.0	NoResponse	0	0.007	238.729	4	24	Feedback	MissedWin	False
241.176	3.126	Win2	0.72	n/a	No	3.126	n/a	n/a	NoResponse	0	0.0	n/a	4	24	ISIslide	MissedWin	False
244.319	0.25	Win2	0.6923	0.0	No	3.081	0.019	1.0	NoResponse	0	0.219	243.538	4	25	Cue	MissedWin	False
244.538	0.3	Win2	0.6923	0.0	No	3.081	0.019	1.0	NoResponse	0	0.219	n/a	4	25	ButtonPress	MissedWin	False
244.57	4.0	Win2	0.6923	0.0	No	3.081	0.001	n/a	NoResponse	0	n/a	n/a	4	25	Fixation	MissedWin	False
248.565	0.15	Win2	0.6923	0.004	No	3.081	-0.004	1.0	NoResponse	0	0.162	247.727	4	25	Target	MissedWin	False
248.715	0.55	Win2	0.6923	n/a	No	3.081	n/a	n/a	NoResponse	0	n/a	n/a	4	25	Blank	MissedWin	False
248.727	0.3	Win2	0.6923	0.004	No	3.081	-0.004	1.0	NoResponse	0	0.162	n/a	4	25	ButtonPress	MissedWin	False
249.267	1.45	Win2	0.6923	n/a	No	3.081	n/a	5.0	NoResponse	0	0.023	248.29	4	25	Feedback	MissedWin	False
250.721	3.081	Win2	0.6923	n/a	No	3.081	n/a	n/a	NoResponse	0	0.0	n/a	4	25	ISIslide	MissedWin	False
253.831	0.25	Win2	0.6667000000000001	0.0	No	2.919	0.031	n/a	NoResponse	0	n/a	n/a	4	26	Cue	MissedWin	False
254.081	3.95	Win2	0.6667000000000001	0.0	No	2.919	0.0	1.0	NoResponse	0	0.028	253.109	4	26	Fixation	MissedWin	False
254.109	0.3	Win2	0.6667000000000001	0.0	No	2.919	0.0	1.0	NoResponse	0	0.028	n/a	4	26	ButtonPress	MissedWin	False
258.043	0.15	Win2	0.6667000000000001	0.0	No	2.919	0.012	1.0	NoResponse	0	0.227	257.27	4	26	Target	MissedWin	False
258.177	0.55	Win2	0.6667000000000001	n/a	No	2.919	n/a	n/a	NoResponse	0	n/a	n/a	4	26	Blank	MissedWin	False
258.27	0.3	Win2	0.6667000000000001	0.0	No	2.919	0.012	1.0	NoResponse	0	0.227	n/a	4	26	ButtonPress	MissedWin	False
258.729	1.45	Win2	0.6667000000000001	n/a	No	2.919	n/a	5.0	NoResponse	0	0.024	257.753	4	26	Feedback	MissedWin	False
260.183	2.919	Win2	0.6667000000000001	n/a	No	2.919	n/a	n/a	NoResponse	0	0.0	n/a	4	26	ISIslide	MissedWin	False
263.125	0.25	Lose2	0.6429	0.0	No	2.825	0.025	n/a	NoResponse	-1	n/a	n/a	3	27	Cue	Loss	False
263.376	4.05	Lose2	0.6429	0.0	No	2.825	0.001	1.0	NoResponse	-1	0.035	262.411	3	27	Fixation	Loss	False
263.411	0.3	Lose2	0.6429	0.0	No	2.825	0.001	1.0	NoResponse	-1	0.035	n/a	3	27	ButtonPress	Loss	False
267.421	0.15	Lose2	0.6429	0.004	No	2.825	-0.004	1.0	NoResponse	-1	0.163	266.584	3	27	Target	Loss	False
267.572	0.55	Lose2	0.6429	n/a	No	2.825	n/a	n/a	NoResponse	-1	n/a	n/a	3	27	Blank	Loss	False
267.584	0.3	Lose2	0.6429	0.004	No	2.825	-0.004	1.0	NoResponse	-1	0.163	n/a	3	27	ButtonPress	Loss	False
268.123	1.45	Lose2	0.6429	n/a	No	2.825	n/a	5.0	NoResponse	-1	0.044	267.167	3	27	Feedback	Loss	False
269.578	2.825	Lose2	0.6429	n/a	No	2.825	n/a	n/a	NoResponse	-1	0.0	n/a	3	27	ISIslide	Loss	False
272.419	0.25	Control	0.6207	0.001	No	2.831	0.019	n/a	NoResponse	0	n/a	n/a	3	28	Cue	Neutral	False
272.67	4.05	Control	0.6207	0.0	No	2.831	0.001	1.0	NoResponse	0	0.09	271.76	3	28	Fixation	Neutral	False
272.76	0.3	Control	0.6207	0.0	No	2.831	0.001	1.0	NoResponse	0	0.09	n/a	3	28	ButtonPress	Neutral	False
276.716	0.16	Control	0.6207	0.003	No	2.831	-0.003	1.0	NoResponse	0	0.22	275.936	3	28	Target	Neutral	False
276.883	0.54	Control	0.6207	n/a	No	2.831	n/a	n/a	NoResponse	0	n/a	n/a	3	28	Blank	Neutral	False
276.936	0.3	Control	0.6207	0.003	No	2.831	-0.003	1.0	NoResponse	0	0.22	n/a	3	28	ButtonPress	Neutral	False
277.418	1.45	Control	0.6207	n/a	No	2.831	n/a	5.0	NoResponse	0	0.018	276.436	3	28	Feedback	Neutral	False
278.872	2.831	Control	0.6207	n/a	No	2.831	n/a	1.0	NoResponse	0	2.785	n/a	3	28	ISIslide	Neutral	False
281.697	0.25	Lose2	0.6333	0.0	Yes	2.853	-0.003	1.0	GoodResponse	0	0.239	280.936	3	29	Cue	AvoidedLoss	False
281.936	0.3	Lose2	0.6333	0.0	Yes	2.853	-0.003	1.0	GoodResponse	0	0.239	n/a	3	29	ButtonPress	AvoidedLoss	False
281.948	3.95	Lose2	0.6333	0.0	Yes	2.853	0.001	n/a	GoodResponse	0	n/a	n/a	3	29	Fixation	AvoidedLoss	False
285.893	0.17	Lose2	0.6333	0.004	Yes	2.853	-0.004	1.0	GoodResponse	0	0.16	285.053	3	29	Target	AvoidedLoss	False
286.053	0.3	Lose2	0.6333	0.004	Yes	2.853	-0.004	1.0	GoodResponse	0	0.16	n/a	3	29	ButtonPress	AvoidedLoss	False
286.077	0.53	Lose2	0.6333	n/a	Yes	2.853	n/a	n/a	GoodResponse	0	n/a	n/a	3	29	Blank	AvoidedLoss	False
286.595	1.45	Lose2	0.6333	n/a	Yes	2.853	n/a	5.0	GoodResponse	0	0.012	285.607	3	29	Feedback	AvoidedLoss	False
288.05	2.853	Lose2	0.6333	n/a	Yes	2.853	n/a	n/a	GoodResponse	0	0.0	n/a	3	29	ISIslide	AvoidedLoss	False
290.925	0.25	Win2	0.6129	0.0	No	2.775	0.025	1.0	NoResponse	0	0.237	290.162	3	30	Cue	MissedWin	False
291.162	0.3	Win2	0.6129	0.0	No	2.775	0.025	1.0	NoResponse	0	0.237	n/a	3	30	ButtonPress	MissedWin	False
291.176	3.9	Win2	0.6129	0.0	No	2.775	0.001	1.0	NoResponse	0	0.35	290.526	3	30	Fixation	MissedWin	False
291.526	0.3	Win2	0.6129	0.0	No	2.775	0.001	1.0	NoResponse	0	0.35	n/a	3	30	ButtonPress	MissedWin	False
295.071	0.18	Win2	0.6129	0.004	No	2.775	-0.004	1.0	NoResponse	0	0.19	294.261	3	30	Target	MissedWin	False
295.254	0.52	Win2	0.6129	n/a	No	2.775	n/a	n/a	NoResponse	0	n/a	n/a	3	30	Blank	MissedWin	False
295.261	0.3	Win2	0.6129	0.004	No	2.775	-0.004	1.0	NoResponse	0	0.19	n/a	3	30	ButtonPress	MissedWin	False
295.773	1.45	Win2	0.6129	n/a	No	2.775	n/a	5.0	NoResponse	0	0.007	294.78	3	30	Feedback	MissedWin	False
297.227	2.775	Win2	0.6129	n/a	No	2.775	n/a	n/a	NoResponse	0	0.0	n/a	3	30	ISIslide	MissedWin	False
300.019	0.25	Lose2	0.5938	0.0	No	2.831	0.019	1.0	NoResponse	-1	0.196	299.215	2	31	Cue	Loss	False
300.215	0.3	Lose2	0.5938	0.0	No	2.831	0.019	1.0	NoResponse	-1	0.196	n/a	2	31	ButtonPress	Loss	False
300.269	4.05	Lose2	0.5938	0.001	No	2.831	0.0	1.0	NoResponse	-1	3.708	302.977	2	31	Fixation	Loss	False
303.977	0.3	Lose2	0.5938	0.001	No	2.831	0.0	1.0	NoResponse	-1	3.708	n/a	2	31	ButtonPress	Loss	False
304.315	0.19	Lose2	0.5938	0.004	No	2.831	-0.004	1.0	NoResponse	-1	0.225	303.54	2	31	Target	Loss	False
304.515	0.51	Lose2	0.5938	n/a	No	2.831	n/a	n/a	NoResponse	-1	n/a	n/a	2	31	Blank	Loss	False
304.54	0.3	Lose2	0.5938	0.004	No	2.831	-0.004	1.0	NoResponse	-1	0.225	n/a	2	31	ButtonPress	Loss	False
305.017	1.45	Lose2	0.5938	n/a	No	2.831	n/a	5.0	NoResponse	-1	0.028	304.045	2	31	Feedback	Loss	False
306.471	2.831	Lose2	0.5938	n/a	No	2.831	n/a	n/a	NoResponse	-1	0.0	n/a	2	31	ISIslide	Loss	False
309.33	0.25	Lose2	0.5758	0.0	No	2.62	0.03	n/a	NoResponse	-1	n/a	n/a	1	32	Cue	Loss	True
309.581	4.15	Lose2	0.5758	0.0	No	2.62	0.001	1.0	NoResponse	-1	0.13	308.711	1	32	Fixation	Loss	True
309.711	0.3	Lose2	0.5758	0.0	No	2.62	0.001	1.0	NoResponse	-1	0.13	n/a	1	32	ButtonPress	Loss	True
313.726	0.2	Lose2	0.5758	0.004	No	2.62	-0.004	n/a	NoResponse	-1	n/a	n/a	1	32	Target	Loss	True
313.927	0.5	Lose2	0.5758	n/a	No	2.62	n/a	n/a	NoResponse	-1	n/a	n/a	1	32	Blank	Loss	True
314.428	1.45	Lose2	0.5758	n/a	No	2.62	n/a	5.0	NoResponse	-1	0.032	313.46	1	32	Feedback	Loss	True
315.883	2.62	Lose2	0.5758	n/a	No	2.62	n/a	n/a	NoResponse	-1	0.0	n/a	1	32	ISIslide	Loss	True
318.524	0.25	Win2	0.5882000000000001	0.0	Yes	2.676	0.024	n/a	GoodResponse	1	n/a	n/a	2	33	Cue	Win	False
318.775	4.0	Win2	0.5882000000000001	0.0	Yes	2.676	0.001	1.0	GoodResponse	1	0.02	317.795	2	33	Fixation	Win	False
318.795	0.3	Win2	0.5882000000000001	0.0	Yes	2.676	0.001	1.0	GoodResponse	1	0.02	n/a	2	33	ButtonPress	Win	False
322.77	0.21	Win2	0.5882000000000001	0.004	Yes	2.676	-0.004	1.0	GoodResponse	1	0.155	321.925	2	33	Target	Win	False
322.925	0.3	Win2	0.5882000000000001	0.004	Yes	2.676	-0.004	1.0	GoodResponse	1	0.155	n/a	2	33	ButtonPress	Win	False
322.987	0.49	Win2	0.5882000000000001	n/a	Yes	2.676	n/a	n/a	GoodResponse	1	n/a	n/a	2	33	Blank	Win	False
323.472	1.45	Win2	0.5882000000000001	n/a	Yes	2.676	n/a	5.0	GoodResponse	1	0.012	322.484	2	33	Feedback	Win	False
324.926	2.676	Win2	0.5882000000000001	n/a	Yes	2.676	n/a	n/a	GoodResponse	1	0.0	n/a	2	33	ISIslide	Win	False
327.618	0.25	Lose2	0.6	0.0	Yes	2.632	0.018	1.0	GoodResponse	0	0.237	326.855	2	34	Cue	AvoidedLoss	False
327.855	0.3	Lose2	0.6	0.0	Yes	2.632	0.018	1.0	GoodResponse	0	0.237	n/a	2	34	ButtonPress	AvoidedLoss	False
327.869	4.05	Lose2	0.6	0.0	Yes	2.632	0.001	n/a	GoodResponse	0	n/a	n/a	2	34	Fixation	AvoidedLoss	False
331.914	0.22	Lose2	0.6	0.004	Yes	2.632	-0.004	1.0	GoodResponse	0	0.194	331.108	2	34	Target	AvoidedLoss	False
332.108	0.3	Lose2	0.6	0.004	Yes	2.632	-0.004	1.0	GoodResponse	0	0.194	n/a	2	34	ButtonPress	AvoidedLoss	False
332.148	0.48	Lose2	0.6	n/a	Yes	2.632	n/a	n/a	GoodResponse	0	n/a	n/a	2	34	Blank	AvoidedLoss	False
332.616	1.45	Lose2	0.6	n/a	Yes	2.632	n/a	5.0	GoodResponse	0	0.039	331.655	2	34	Feedback	AvoidedLoss	False
334.07	2.632	Lose2	0.6	n/a	Yes	2.632	n/a	n/a	GoodResponse	0	0.0	n/a	2	34	ISIslide	AvoidedLoss	False
336.728	0.25	Lose2	0.5832999999999999	0.001	No	2.672	0.028	n/a	NoResponse	-1	n/a	n/a	1	35	Cue	Loss	True
336.979	4.0	Lose2	0.5832999999999999	0.0	No	2.672	0.001	1.0	NoResponse	-1	0.074	336.053	1	35	Fixation	Loss	True
337.053	0.3	Lose2	0.5832999999999999	0.0	No	2.672	0.001	1.0	NoResponse	-1	0.074	n/a	1	35	ButtonPress	Loss	True
340.974	0.23	Lose2	0.5832999999999999	0.004	No	2.672	-0.004	n/a	NoResponse	-1	n/a	n/a	1	35	Target	Loss	True
341.208	0.47	Lose2	0.5832999999999999	n/a	No	2.672	n/a	n/a	NoResponse	-1	n/a	n/a	1	35	Blank	Loss	True
341.677	1.45	Lose2	0.5832999999999999	n/a	No	2.672	n/a	5.0	NoResponse	-1	0.006	340.683	1	35	Feedback	Loss	True
343.131	2.672	Lose2	0.5832999999999999	n/a	No	2.672	n/a	n/a	NoResponse	-1	0.0	n/a	1	35	ISIslide	Loss	True
345.822	0.25	Control	0.5946	0.0	Yes	2.678	0.022	n/a	GoodResponse	0	n/a	n/a	1	36	Cue	Neutral	False
346.073	4.0	Control	0.5946	0.0	Yes	2.678	0.001	1.0	GoodResponse	0	0.029	345.102	1	36	Fixation	Neutral	False
346.102	0.3	Control	0.5946	0.0	Yes	2.678	0.001	1.0	GoodResponse	0	0.029	n/a	1	36	ButtonPress	Neutral	False
350.068	0.24	Control	0.5946	0.004	Yes	2.678	-0.004	1.0	GoodResponse	0	0.199	349.267	1	36	Target	Neutral	False
350.267	0.3	Control	0.5946	0.004	Yes	2.678	-0.004	1.0	GoodResponse	0	0.199	n/a	1	36	ButtonPress	Neutral	False
350.319	0.46	Control	0.5946	n/a	Yes	2.678	n/a	n/a	GoodResponse	0	n/a	n/a	1	36	Blank	Neutral	False
350.77	1.45	Control	0.5946	n/a	Yes	2.678	n/a	5.0	GoodResponse	0	0.03	349.8	1	36	Feedback	Neutral	False
352.225	2.678	Control	0.5946	n/a	Yes	2.678	n/a	n/a	GoodResponse	0	0.0	n/a	1	36	ISIslide	Neutral	False
354.916	0.25	Win2	0.6053000000000001	0.0	Yes	2.884	0.016	n/a	GoodResponse	1	n/a	n/a	2	37	Cue	Win	False
355.167	4.0	Win2	0.6053000000000001	0.0	Yes	2.884	0.001	1.0	GoodResponse	1	0.065	354.232	2	37	Fixation	Win	False
355.232	0.3	Win2	0.6053000000000001	0.0	Yes	2.884	0.001	1.0	GoodResponse	1	0.065	n/a	2	37	ButtonPress	Win	False
359.162	0.25	Win2	0.6053000000000001	0.004	Yes	2.884	-0.004	1.0	GoodResponse	1	0.193	358.355	2	37	Target	Win	False
359.355	0.3	Win2	0.6053000000000001	0.004	Yes	2.884	-0.004	1.0	GoodResponse	1	0.193	n/a	2	37	ButtonPress	Win	False
359.413	0.45	Win2	0.6053000000000001	n/a	Yes	2.884	n/a	n/a	GoodResponse	1	n/a	n/a	2	37	Blank	Win	False
359.864	1.45	Win2	0.6053000000000001	n/a	Yes	2.884	n/a	5.0	GoodResponse	1	0.01	358.874	2	37	Feedback	Win	False
361.319	2.884	Win2	0.6053000000000001	n/a	Yes	2.884	n/a	n/a	GoodResponse	1	0.0	n/a	2	37	ISIslide	Win	False
364.227	0.25	Lose2	0.6154	0.0	Yes	2.823	0.027	n/a	GoodResponse	0	n/a	n/a	2	38	Cue	AvoidedLoss	False
364.478	3.95	Lose2	0.6154	0.0	Yes	2.823	0.001	1.0	GoodResponse	0	0.022	363.5	2	38	Fixation	AvoidedLoss	False
364.5	0.3	Lose2	0.6154	0.0	Yes	2.823	0.001	1.0	GoodResponse	0	0.022	n/a	2	38	ButtonPress	AvoidedLoss	False
368.423	0.26	Lose2	0.6154	0.004	Yes	2.823	-0.004	1.0	GoodResponse	0	0.121	367.544	2	38	Target	AvoidedLoss	False
368.544	0.3	Lose2	0.6154	0.004	Yes	2.823	-0.004	1.0	GoodResponse	0	0.121	n/a	2	38	ButtonPress	AvoidedLoss	False
368.691	0.44	Lose2	0.6154	n/a	Yes	2.823	n/a	n/a	GoodResponse	0	n/a	n/a	2	38	Blank	AvoidedLoss	False
369.125	1.45	Lose2	0.6154	n/a	Yes	2.823	n/a	5.0	GoodResponse	0	0.017	368.142	2	38	Feedback	AvoidedLoss	False
370.58	2.823	Lose2	0.6154	n/a	Yes	2.823	n/a	n/a	GoodResponse	0	0.0	n/a	2	38	ISIslide	AvoidedLoss	False
373.421	0.25	Win2	0.625	0.001	Yes	2.979	0.021	n/a	GoodResponse	1	n/a	n/a	3	39	Cue	Win	False
373.672	4.1	Win2	0.625	0.0	Yes	2.979	0.001	1.0	GoodResponse	1	0.095	372.767	3	39	Fixation	Win	False
373.767	0.3	Win2	0.625	0.0	Yes	2.979	0.001	1.0	GoodResponse	1	0.095	n/a	3	39	ButtonPress	Win	False
377.768	0.27	Win2	0.625	0.003	Yes	2.979	-0.003	1.0	GoodResponse	1	0.181	376.949	3	39	Target	Win	False
377.949	0.3	Win2	0.625	0.003	Yes	2.979	-0.003	1.0	GoodResponse	1	0.181	n/a	3	39	ButtonPress	Win	False
378.052	0.43	Win2	0.625	n/a	Yes	2.979	n/a	n/a	GoodResponse	1	n/a	n/a	3	39	Blank	Win	False
378.47	1.45	Win2	0.625	n/a	Yes	2.979	n/a	5.0	GoodResponse	1	0.038	377.508	3	39	Feedback	Win	False
379.924	2.979	Win2	0.625	n/a	Yes	2.979	n/a	n/a	GoodResponse	1	0.0	n/a	3	39	ISIslide	Win	False
382.917	0.25	Win2	0.6341	0.0	Yes	2.733	0.017	n/a	GoodResponse	1	n/a	n/a	4	40	Cue	Win	False
383.167	3.95	Win2	0.6341	0.0	Yes	2.733	0.0	1.0	GoodResponse	1	0.017	382.184	4	40	Fixation	Win	False
383.184	0.3	Win2	0.6341	0.0	Yes	2.733	0.0	1.0	GoodResponse	1	0.017	n/a	4	40	ButtonPress	Win	False
387.129	0.28	Win2	0.6341	0.0	Yes	2.733	0.012	1.0	GoodResponse	1	0.183	386.312	4	40	Target	Win	False
387.312	0.3	Win2	0.6341	0.0	Yes	2.733	0.012	1.0	GoodResponse	1	0.183	n/a	4	40	ButtonPress	Win	False
387.397	0.42	Win2	0.6341	n/a	Yes	2.733	n/a	n/a	GoodResponse	1	n/a	n/a	4	40	Blank	Win	False
387.815	1.45	Win2	0.6341	n/a	Yes	2.733	n/a	5.0	GoodResponse	1	0.009	386.824	4	40	Feedback	Win	False
389.269	2.733	Win2	0.6341	n/a	Yes	2.733	n/a	n/a	GoodResponse	1	0.0	n/a	4	40	ISIslide	Win	False
392.027	0.25	Win2	0.6429	0.0	Yes	2.773	0.027	1.0	GoodResponse	1	0.237	391.264	5	41	Cue	Win	False
392.264	0.3	Win2	0.6429	0.0	Yes	2.773	0.027	1.0	GoodResponse	1	0.237	n/a	5	41	ButtonPress	Win	False
392.278	3.9	Win2	0.6429	0.0	Yes	2.773	0.001	n/a	GoodResponse	1	n/a	n/a	5	41	Fixation	Win	False
396.173	0.29	Win2	0.6429	0.004	Yes	2.773	-0.004	1.0	GoodResponse	1	0.204	395.377	5	41	Target	Win	False
396.377	0.3	Win2	0.6429	0.004	Yes	2.773	-0.004	1.0	GoodResponse	1	0.204	n/a	5	41	ButtonPress	Win	False
396.474	0.41	Win2	0.6429	n/a	Yes	2.773	n/a	n/a	GoodResponse	1	n/a	n/a	5	41	Blank	Win	False
396.875	1.45	Win2	0.6429	n/a	Yes	2.773	n/a	5.0	GoodResponse	1	0.022	395.897	5	41	Feedback	Win	False
398.329	2.773	Win2	0.6429	n/a	Yes	2.773	n/a	n/a	GoodResponse	1	0.0	n/a	5	41	ISIslide	Win	False
401.121	0.25	Control	0.6512	0.0	Yes	2.929	0.021	1.0	GoodResponse	0	0.236	400.357	5	42	Cue	Neutral	False
401.357	0.3	Control	0.6512	0.0	Yes	2.929	0.021	1.0	GoodResponse	0	0.236	n/a	5	42	ButtonPress	Neutral	False
401.372	3.85	Control	0.6512	0.0	Yes	2.929	0.001	1.0	GoodResponse	0	3.577	403.949	5	42	Fixation	Neutral	False
404.949	0.3	Control	0.6512	0.0	Yes	2.929	0.001	1.0	GoodResponse	0	3.577	n/a	5	42	ButtonPress	Neutral	False
405.217	0.3	Control	0.6512	0.004	Yes	2.929	-0.004	1.0	GoodResponse	0	0.242	404.459	5	42	Target	Neutral	False
405.459	0.3	Control	0.6512	0.004	Yes	2.929	-0.004	1.0	GoodResponse	0	0.242	n/a	5	42	ButtonPress	Neutral	False
405.517	0.4	Control	0.6512	n/a	Yes	2.929	n/a	n/a	GoodResponse	0	n/a	n/a	5	42	Blank	Neutral	False
405.919	1.45	Control	0.6512	n/a	Yes	2.929	n/a	5.0	GoodResponse	0	0.006	404.925	5	42	Feedback	Neutral	False
407.373	2.929	Control	0.6512	n/a	Yes	2.929	n/a	n/a	GoodResponse	0	0.0	n/a	5	42	ISIslide	Neutral	False
410.315	0.25	Win2	0.6364	0.0	No	3.185	0.015	1.0	NoResponse	0	0.2	409.515	5	43	Cue	MissedWin	False
410.515	0.3	Win2	0.6364	0.0	No	3.185	0.015	1.0	NoResponse	0	0.2	n/a	5	43	ButtonPress	MissedWin	False
410.566	4.0	Win2	0.6364	0.0	No	3.185	0.001	1.0	NoResponse	0	3.932	413.498	5	43	Fixation	MissedWin	False
414.498	0.3	Win2	0.6364	0.0	No	3.185	0.001	1.0	NoResponse	0	3.932	n/a	5	43	ButtonPress	MissedWin	False
414.561	0.31	Win2	0.6364	0.004	No	3.185	-0.004	n/a	NoResponse	0	n/a	n/a	5	43	Target	MissedWin	False
414.879	0.39	Win2	0.6364	n/a	No	3.185	n/a	n/a	NoResponse	0	n/a	n/a	5	43	Blank	MissedWin	False
415.263	1.45	Win2	0.6364	n/a	No	3.185	n/a	5.0	NoResponse	0	0.025	414.288	5	43	Feedback	MissedWin	False
416.718	3.185	Win2	0.6364	n/a	No	3.185	n/a	n/a	NoResponse	0	0.0	n/a	5	43	ISIslide	MissedWin	False
419.927	0.25	Win2	0.6444	0.0	Yes	2.973	0.027	1.0	GoodResponse	1	0.248	419.175	6	44	Cue	Win	False
420.175	0.3	Win2	0.6444	0.0	Yes	2.973	0.027	1.0	GoodResponse	1	0.248	n/a	6	44	ButtonPress	Win	False
420.178	4.0	Win2	0.6444	0.0	Yes	2.973	0.001	n/a	GoodResponse	1	n/a	n/a	6	44	Fixation	Win	False
424.173	0.32	Win2	0.6444	0.004	Yes	2.973	-0.004	1.0	GoodResponse	1	0.183	423.356	6	44	Target	Win	False
424.356	0.3	Win2	0.6444	0.004	Yes	2.973	-0.004	1.0	GoodResponse	1	0.183	n/a	6	44	ButtonPress	Win	False
424.508	0.38	Win2	0.6444	n/a	Yes	2.973	n/a	n/a	GoodResponse	1	n/a	n/a	6	44	Blank	Win	False
424.875	1.45	Win2	0.6444	n/a	Yes	2.973	n/a	5.0	GoodResponse	1	0.023	423.898	6	44	Feedback	Win	False
426.33	2.973	Win2	0.6444	n/a	Yes	2.973	n/a	n/a	GoodResponse	1	0.0	n/a	6	44	ISIslide	Win	False
429.322	0.25	Control	0.6522	0.0	Yes	2.878	0.022	n/a	GoodResponse	0	n/a	n/a	6	45	Cue	Neutral	False
429.573	4.1	Control	0.6522	0.0	Yes	2.878	0.001	1.0	GoodResponse	0	0.104	428.677	6	45	Fixation	Neutral	False
429.677	0.3	Control	0.6522	0.0	Yes	2.878	0.001	1.0	GoodResponse	0	0.104	n/a	6	45	ButtonPress	Neutral	False
433.668	0.33	Control	0.6522	0.004	Yes	2.878	-0.004	1.0	GoodResponse	0	0.142	432.81	6	45	Target	Neutral	False
433.81	0.3	Control	0.6522	0.004	Yes	2.878	-0.004	1.0	GoodResponse	0	0.142	n/a	6	45	ButtonPress	Neutral	False
434.003	0.37	Control	0.6522	n/a	Yes	2.878	n/a	n/a	GoodResponse	0	n/a	n/a	6	45	Blank	Neutral	False
434.37	1.45	Control	0.6522	n/a	Yes	2.878	n/a	5.0	GoodResponse	0	0.039	433.409	6	45	Feedback	Neutral	False
435.825	2.878	Control	0.6522	n/a	Yes	2.878	n/a	n/a	GoodResponse	0	0.0	n/a	6	45	ISIslide	Neutral	False
438.717	0.25	Lose2	0.6596	0.0	Yes	3.383	0.017	n/a	GoodResponse	0	n/a	n/a	6	46	Cue	AvoidedLoss	False
438.967	4.0	Lose2	0.6596	0.001	Yes	3.383	0.0	1.0	GoodResponse	0	0.032	437.999	6	46	Fixation	AvoidedLoss	False
438.999	0.3	Lose2	0.6596	0.001	Yes	3.383	0.0	1.0	GoodResponse	0	0.032	n/a	6	46	ButtonPress	AvoidedLoss	False
442.963	0.34	Lose2	0.6596	0.004	Yes	3.383	-0.004	1.0	GoodResponse	0	0.177	442.14	6	46	Target	AvoidedLoss	False
443.14	0.3	Lose2	0.6596	0.004	Yes	3.383	-0.004	1.0	GoodResponse	0	0.177	n/a	6	46	ButtonPress	AvoidedLoss	False
443.314	0.36	Lose2	0.6596	n/a	Yes	3.383	n/a	n/a	GoodResponse	0	n/a	n/a	6	46	Blank	AvoidedLoss	False
443.665	1.45	Lose2	0.6596	n/a	Yes	3.383	n/a	5.0	GoodResponse	0	0.012	442.677	6	46	Feedback	AvoidedLoss	False
445.119	3.383	Lose2	0.6596	n/a	Yes	3.383	n/a	n/a	GoodResponse	0	0.0	n/a	6	46	ISIslide	AvoidedLoss	False
448.529	0.25	Lose2	0.6667000000000001	0.0	Yes	2.671	0.029	1.0	GoodResponse	0	0.201	447.73	6	47	Cue	AvoidedLoss	False
448.73	0.3	Lose2	0.6667000000000001	0.0	Yes	2.671	0.029	1.0	GoodResponse	0	0.201	n/a	6	47	ButtonPress	AvoidedLoss	False
448.78	4.0	Lose2	0.6667000000000001	0.0	Yes	2.671	0.001	n/a	GoodResponse	0	n/a	n/a	6	47	Fixation	AvoidedLoss	False
452.775	0.34	Lose2	0.6667000000000001	0.004	Yes	2.671	-0.004	1.0	GoodResponse	0	0.181	451.956	6	47	Target	AvoidedLoss	False
452.956	0.3	Lose2	0.6667000000000001	0.004	Yes	2.671	-0.004	1.0	GoodResponse	0	0.181	n/a	6	47	ButtonPress	AvoidedLoss	False
453.126	0.36	Lose2	0.6667000000000001	n/a	Yes	2.671	n/a	n/a	GoodResponse	0	n/a	n/a	6	47	Blank	AvoidedLoss	False
453.477	1.45	Lose2	0.6667000000000001	n/a	Yes	2.671	n/a	5.0	GoodResponse	0	0.006	452.483	6	47	Feedback	AvoidedLoss	False
454.932	2.671	Lose2	0.6667000000000001	n/a	Yes	2.671	n/a	n/a	GoodResponse	0	0.0	n/a	6	47	ISIslide	AvoidedLoss	False
457.623	0.25	Lose2	0.6735	0.0	Yes	3.027	0.023	n/a	GoodResponse	0	n/a	n/a	6	48	Cue	AvoidedLoss	False
457.874	3.95	Lose2	0.6735	0.0	Yes	3.027	0.001	1.0	GoodResponse	0	0.006	456.88	6	48	Fixation	AvoidedLoss	False
457.88	0.3	Lose2	0.6735	0.0	Yes	3.027	0.001	1.0	GoodResponse	0	0.006	n/a	6	48	ButtonPress	AvoidedLoss	False
461.819	0.33	Lose2	0.6735	0.004	Yes	3.027	-0.004	1.0	GoodResponse	0	0.178	460.997	6	48	Target	AvoidedLoss	False
461.997	0.3	Lose2	0.6735	0.004	Yes	3.027	-0.004	1.0	GoodResponse	0	0.178	n/a	6	48	ButtonPress	AvoidedLoss	False
462.153	0.37	Lose2	0.6735	n/a	Yes	3.027	n/a	n/a	GoodResponse	0	n/a	n/a	6	48	Blank	AvoidedLoss	False
462.521	1.45	Lose2	0.6735	n/a	Yes	3.027	n/a	5.0	GoodResponse	0	0.035	461.556	6	48	Feedback	AvoidedLoss	False
463.976	3.027	Lose2	0.6735	n/a	Yes	3.027	n/a	n/a	GoodResponse	0	0.0	n/a	6	48	ISIslide	AvoidedLoss	False
467.018	0.25	Control	0.66	0.0	No	2.882	0.018	n/a	PrematurePress	0	n/a	n/a	6	49	Cue	Neutral	False
467.269	4.0	Control	0.66	0.0	No	2.882	0.001	1.0	PrematurePress	0	0.013	466.282	6	49	Fixation	Neutral	False
467.282	0.3	Control	0.66	0.0	No	2.882	0.001	1.0	PrematurePress	0	0.013	n/a	6	49	ButtonPress	Neutral	False
471.264	0.32	Control	0.66	0.004	No	2.882	-0.004	1.0	PrematurePress	0	0.033	470.297	6	49	Target	Neutral	False
471.297	0.3	Control	0.66	0.004	No	2.882	-0.004	1.0	PrematurePress	0	0.033	n/a	6	49	ButtonPress	Neutral	False
471.598	0.38	Control	0.66	n/a	No	2.882	n/a	n/a	PrematurePress	0	n/a	n/a	6	49	Blank	Neutral	False
471.966	1.45	Control	0.66	n/a	No	2.882	n/a	5.0	PrematurePress	0	0.006	470.972	6	49	Feedback	Neutral	False
473.42	2.882	Control	0.66	n/a	No	2.882	n/a	n/a	PrematurePress	0	0.0	n/a	6	49	ISIslide	Neutral	False
476.329	0.25	Control	0.6667000000000001	0.0	Yes	2.771	0.029	n/a	GoodResponse	0	n/a	n/a	6	50	Cue	Neutral	False
476.58	4.0	Control	0.6667000000000001	0.0	Yes	2.771	0.001	1.0	GoodResponse	0	0.096	475.676	6	50	Fixation	Neutral	False
476.676	0.3	Control	0.6667000000000001	0.0	Yes	2.771	0.001	1.0	GoodResponse	0	0.096	n/a	6	50	ButtonPress	Neutral	False
480.575	0.32	Control	0.6667000000000001	0.004	Yes	2.771	-0.004	1.0	GoodResponse	0	0.207	479.782	6	50	Target	Neutral	False
480.782	0.3	Control	0.6667000000000001	0.004	Yes	2.771	-0.004	1.0	GoodResponse	0	0.207	n/a	6	50	ButtonPress	Neutral	False
480.91	0.38	Control	0.6667000000000001	n/a	Yes	2.771	n/a	n/a	GoodResponse	0	n/a	n/a	6	50	Blank	Neutral	False
481.277	1.45	Control	0.6667000000000001	n/a	Yes	2.771	n/a	5.0	GoodResponse	0	0.009	480.286	6	50	Feedback	Neutral	False
482.732	2.771	Control	0.6667000000000001	n/a	Yes	2.771	n/a	n/a	GoodResponse	0	0.0	n/a	6	50	ISIslide	Neutral	False
485.523	0.25	Control	0.6731	0.0	Yes	2.727	0.023	1.0	GoodResponse	0	0.249	484.772	6	51	Cue	Neutral	False
485.772	0.3	Control	0.6731	0.0	Yes	2.727	0.023	1.0	GoodResponse	0	0.249	n/a	6	51	ButtonPress	Neutral	False
485.774	3.95	Control	0.6731	0.0	Yes	2.727	0.001	n/a	GoodResponse	0	n/a	n/a	6	51	Fixation	Neutral	False
489.719	0.31	Control	0.6731	0.004	Yes	2.727	-0.004	1.0	GoodResponse	0	0.193	488.912	6	51	Target	Neutral	False
489.912	0.3	Control	0.6731	0.004	Yes	2.727	-0.004	1.0	GoodResponse	0	0.193	n/a	6	51	ButtonPress	Neutral	False
490.037	0.39	Control	0.6731	n/a	Yes	2.727	n/a	n/a	GoodResponse	0	n/a	n/a	6	51	Blank	Neutral	False
490.421	1.45	Control	0.6731	n/a	Yes	2.727	n/a	5.0	GoodResponse	0	0.036	489.457	6	51	Feedback	Neutral	False
491.876	2.727	Control	0.6731	n/a	Yes	2.727	n/a	n/a	GoodResponse	0	0.0	n/a	6	51	ISIslide	Neutral	False
494.617	0.25	Control	0.6792	0.0	Yes	2.633	0.017	n/a	GoodResponse	0	n/a	n/a	6	52	Cue	Neutral	False
494.868	4.05	Control	0.6792	0.0	Yes	2.633	0.001	1.0	GoodResponse	0	0.021	493.889	6	52	Fixation	Neutral	False
494.889	0.3	Control	0.6792	0.0	Yes	2.633	0.001	1.0	GoodResponse	0	0.021	n/a	6	52	ButtonPress	Neutral	False
498.913	0.3	Control	0.6792	0.004	Yes	2.633	-0.004	1.0	GoodResponse	0	0.184	498.097	6	52	Target	Neutral	False
499.097	0.3	Control	0.6792	0.004	Yes	2.633	-0.004	1.0	GoodResponse	0	0.184	n/a	6	52	ButtonPress	Neutral	False
499.214	0.4	Control	0.6792	n/a	Yes	2.633	n/a	n/a	GoodResponse	0	n/a	n/a	6	52	Blank	Neutral	False
499.615	1.45	Control	0.6792	n/a	Yes	2.633	n/a	5.0	GoodResponse	0	0.013	498.628	6	52	Feedback	Neutral	False
501.07	2.633	Control	0.6792	n/a	Yes	2.633	n/a	n/a	GoodResponse	0	0.0	n/a	6	52	ISIslide	Neutral	False
503.728	0.25	Win2	0.6851999999999999	0.0	Yes	2.922	0.028	n/a	GoodResponse	1	n/a	n/a	7	53	Cue	Win	False
503.978	4.05	Win2	0.6851999999999999	0.001	Yes	2.922	0.0	1.0	GoodResponse	1	0.022	503.0	7	53	Fixation	Win	False
504	0.3	Win2	0.6851999999999999	0.001	Yes	2.922	0.0	1.0	GoodResponse	1	0.022	n/a	7	53	ButtonPress	Win	False
508.024	0.29	Win2	0.6851999999999999	0.004	Yes	2.922	-0.004	1.0	GoodResponse	1	0.196	507.22	7	53	Target	Win	False
508.22	0.3	Win2	0.6851999999999999	0.004	Yes	2.922	-0.004	1.0	GoodResponse	1	0.196	n/a	7	53	ButtonPress	Win	False
508.325	0.41	Win2	0.6851999999999999	n/a	Yes	2.922	n/a	n/a	GoodResponse	1	n/a	n/a	7	53	Blank	Win	False
508.726	1.45	Win2	0.6851999999999999	n/a	Yes	2.922	n/a	5.0	GoodResponse	1	0.024	507.75	7	53	Feedback	Win	False
510.18	2.922	Win2	0.6851999999999999	n/a	Yes	2.922	n/a	n/a	GoodResponse	1	0.0	n/a	7	53	ISIslide	Win	False
513.122	0.25	Win2	0.6909000000000001	0.001	Yes	2.728	0.022	1.0	GoodResponse	1	0.197	512.319	8	54	Cue	Win	False
513.319	0.3	Win2	0.6909000000000001	0.001	Yes	2.728	0.022	1.0	GoodResponse	1	0.197	n/a	8	54	ButtonPress	Win	False
513.373	3.95	Win2	0.6909000000000001	0.0	Yes	2.728	0.001	n/a	GoodResponse	1	n/a	n/a	8	54	Fixation	Win	False
517.318	0.28	Win2	0.6909000000000001	0.004	Yes	2.728	-0.004	1.0	GoodResponse	1	0.159	516.477	8	54	Target	Win	False
517.477	0.3	Win2	0.6909000000000001	0.004	Yes	2.728	-0.004	1.0	GoodResponse	1	0.159	n/a	8	54	ButtonPress	Win	False
517.603	0.42	Win2	0.6909000000000001	n/a	Yes	2.728	n/a	n/a	GoodResponse	1	n/a	n/a	8	54	Blank	Win	False
518.02	1.45	Win2	0.6909000000000001	n/a	Yes	2.728	n/a	5.0	GoodResponse	1	0.046	517.066	8	54	Feedback	Win	False
519.475	2.728	Win2	0.6909000000000001	n/a	Yes	2.728	n/a	n/a	GoodResponse	1	0.0	n/a	8	54	ISIslide	Win	False
522.216	0.25	Control	0.6964	0.0	Yes	3.034	0.016	n/a	GoodResponse	0	n/a	n/a	8	55	Cue	Neutral	False
522.467	3.95	Control	0.6964	0.0	Yes	3.034	0.001	1.0	GoodResponse	0	0.016	521.483	8	55	Fixation	Neutral	False
522.483	0.3	Control	0.6964	0.0	Yes	3.034	0.001	1.0	GoodResponse	0	0.016	n/a	8	55	ButtonPress	Neutral	False
526.412	0.27	Control	0.6964	0.004	Yes	3.034	-0.004	1.0	GoodResponse	0	0.184	525.596	8	55	Target	Neutral	False
526.596	0.3	Control	0.6964	0.004	Yes	3.034	-0.004	1.0	GoodResponse	0	0.184	n/a	8	55	ButtonPress	Neutral	False
526.696	0.43	Control	0.6964	n/a	Yes	3.034	n/a	n/a	GoodResponse	0	n/a	n/a	8	55	Blank	Neutral	False
527.114	1.45	Control	0.6964	n/a	Yes	3.034	n/a	5.0	GoodResponse	0	0.026	526.14	8	55	Feedback	Neutral	False
528.569	3.034	Control	0.6964	n/a	Yes	3.034	n/a	n/a	GoodResponse	0	0.0	n/a	8	55	ISIslide	Neutral	False
531.628	0.25	Control	0.7018000000000001	0.0	Yes	2.822	0.028	1.0	GoodResponse	0	0.193	530.821	8	56	Cue	Neutral	False
531.821	0.3	Control	0.7018000000000001	0.0	Yes	2.822	0.028	1.0	GoodResponse	0	0.193	n/a	8	56	ButtonPress	Neutral	False
531.879	3.95	Control	0.7018000000000001	0.0	Yes	2.822	0.001	n/a	GoodResponse	0	n/a	n/a	8	56	Fixation	Neutral	False
535.824	0.26	Control	0.7018000000000001	0.004	Yes	2.822	-0.004	1.0	GoodResponse	0	0.193	535.017	8	56	Target	Neutral	False
536.017	0.3	Control	0.7018000000000001	0.004	Yes	2.822	-0.004	1.0	GoodResponse	0	0.193	n/a	8	56	ButtonPress	Neutral	False
536.091	0.44	Control	0.7018000000000001	n/a	Yes	2.822	n/a	n/a	GoodResponse	0	n/a	n/a	8	56	Blank	Neutral	False
536.526	1.45	Control	0.7018000000000001	n/a	Yes	2.822	n/a	5.0	GoodResponse	0	0.028	535.554	8	56	Feedback	Neutral	False
537.98	2.822	Control	0.7018000000000001	n/a	Yes	2.822	n/a	n/a	GoodResponse	0	0.0	n/a	8	56	ISIslide	Neutral	False
540.822	0.25	Control	0.6897	0.0	No	3.478	0.022	1.0	NoResponse	0	0.195	540.017	8	57	Cue	Neutral	False
541.017	0.3	Control	0.6897	0.0	No	3.478	0.022	1.0	NoResponse	0	0.195	n/a	8	57	ButtonPress	Neutral	False
541.073	4.0	Control	0.6897	0.0	No	3.478	0.001	1.0	NoResponse	0	3.953	544.026	8	57	Fixation	Neutral	False
545.026	0.3	Control	0.6897	0.0	No	3.478	0.001	1.0	NoResponse	0	3.953	n/a	8	57	ButtonPress	Neutral	False
545.068	0.25	Control	0.6897	0.004	No	3.478	-0.004	n/a	NoResponse	0	n/a	n/a	8	57	Target	Neutral	False
545.319	0.45	Control	0.6897	n/a	No	3.478	n/a	n/a	NoResponse	0	n/a	n/a	8	57	Blank	Neutral	False
545.77	1.45	Control	0.6897	n/a	No	3.478	n/a	5.0	NoResponse	0	0.006	544.776	8	57	Feedback	Neutral	False
547.224	3.478	Control	0.6897	n/a	No	3.478	n/a	n/a	NoResponse	0	0.0	n/a	8	57	ISIslide	Neutral	False
550.718	0.25	Win2	0.6949	0.0	Yes	2.732	0.018	1.0	GoodResponse	1	0.215	549.933	9	58	Cue	Win	False
550.933	0.3	Win2	0.6949	0.0	Yes	2.732	0.018	1.0	GoodResponse	1	0.215	n/a	9	58	ButtonPress	Win	False
550.969	4.05	Win2	0.6949	0.0	Yes	2.732	0.001	n/a	GoodResponse	1	n/a	n/a	9	58	Fixation	Win	False
555.014	0.24	Win2	0.6949	0.004	Yes	2.732	-0.004	1.0	GoodResponse	1	0.213	554.227	9	58	Target	Win	False
555.227	0.3	Win2	0.6949	0.004	Yes	2.732	-0.004	1.0	GoodResponse	1	0.213	n/a	9	58	ButtonPress	Win	False
555.265	0.46	Win2	0.6949	n/a	Yes	2.732	n/a	n/a	GoodResponse	1	n/a	n/a	9	58	Blank	Win	False
555.717	1.45	Win2	0.6949	n/a	Yes	2.732	n/a	5.0	GoodResponse	1	0.007	554.724	9	58	Feedback	Win	False
557.171	2.732	Win2	0.6949	n/a	Yes	2.732	n/a	n/a	GoodResponse	1	0.0	n/a	9	58	ISIslide	Win	False
559.929	0.25	Lose2	0.6833	0.0	No	2.671	0.029	1.0	NoResponse	-1	0.194	559.123	8	59	Cue	Loss	False
560.123	0.3	Lose2	0.6833	0.0	No	2.671	0.029	1.0	NoResponse	-1	0.194	n/a	8	59	ButtonPress	Loss	False
560.18	4.0	Lose2	0.6833	0.0	No	2.671	0.001	1.0	NoResponse	-1	3.946	563.126	8	59	Fixation	Loss	False
564.126	0.3	Lose2	0.6833	0.0	No	2.671	0.001	1.0	NoResponse	-1	3.946	n/a	8	59	ButtonPress	Loss	False
564.175	0.23	Lose2	0.6833	0.004	No	2.671	-0.004	n/a	NoResponse	-1	n/a	n/a	8	59	Target	Loss	False
564.409	0.47	Lose2	0.6833	n/a	No	2.671	n/a	n/a	NoResponse	-1	n/a	n/a	8	59	Blank	Loss	False
564.877	1.45	Lose2	0.6833	n/a	No	2.671	n/a	5.0	NoResponse	-1	0.018	563.895	8	59	Feedback	Loss	False
566.332	2.671	Lose2	0.6833	n/a	No	2.671	n/a	n/a	NoResponse	-1	0.0	n/a	8	59	ISIslide	Loss	False
569.023	0.25	Control	0.6884999999999999	0.0	Yes	2.677	0.023	1.0	GoodResponse	0	0.236	568.259	8	60	Cue	Neutral	False
569.259	0.3	Control	0.6884999999999999	0.0	Yes	2.677	0.023	1.0	GoodResponse	0	0.236	n/a	8	60	ButtonPress	Neutral	False
569.274	4.0	Control	0.6884999999999999	0.0	Yes	2.677	0.001	n/a	GoodResponse	0	n/a	n/a	8	60	Fixation	Neutral	False
573.269	0.22	Control	0.6884999999999999	0.004	Yes	2.677	-0.004	1.0	GoodResponse	0	0.167	572.436	8	60	Target	Neutral	False
573.436	0.3	Control	0.6884999999999999	0.004	Yes	2.677	-0.004	1.0	GoodResponse	0	0.167	n/a	8	60	ButtonPress	Neutral	False
573.503	0.48	Control	0.6884999999999999	n/a	Yes	2.677	n/a	n/a	GoodResponse	0	n/a	n/a	8	60	Blank	Neutral	False
573.971	1.45	Control	0.6884999999999999	n/a	Yes	2.677	n/a	5.0	GoodResponse	0	0.046	573.017	8	60	Feedback	Neutral	False
575.425	2.677	Control	0.6884999999999999	n/a	Yes	2.677	n/a	n/a	GoodResponse	0	0.0	n/a	8	60	ISIslide	Neutral	False
578.117	0.25	Lose2	0.6934999999999999	0.0	Yes	2.983	0.017	n/a	GoodResponse	0	n/a	n/a	8	61	Cue	AvoidedLoss	False
578.368	4.0	Lose2	0.6934999999999999	0.0	Yes	2.983	0.001	1.0	GoodResponse	0	0.033	577.401	8	61	Fixation	AvoidedLoss	False
578.401	0.3	Lose2	0.6934999999999999	0.0	Yes	2.983	0.001	1.0	GoodResponse	0	0.033	n/a	8	61	ButtonPress	AvoidedLoss	False
582.363	0.21	Lose2	0.6934999999999999	0.004	Yes	2.983	-0.004	1.0	GoodResponse	0	0.204	581.567	8	61	Target	AvoidedLoss	False
582.567	0.3	Lose2	0.6934999999999999	0.004	Yes	2.983	-0.004	1.0	GoodResponse	0	0.204	n/a	8	61	ButtonPress	AvoidedLoss	False
582.58	0.49	Lose2	0.6934999999999999	n/a	Yes	2.983	n/a	n/a	GoodResponse	0	n/a	n/a	8	61	Blank	AvoidedLoss	False
583.065	1.45	Lose2	0.6934999999999999	n/a	Yes	2.983	n/a	5.0	GoodResponse	0	0.025	582.09	8	61	Feedback	AvoidedLoss	False
584.519	2.983	Lose2	0.6934999999999999	n/a	Yes	2.983	n/a	n/a	GoodResponse	0	0.0	n/a	8	61	ISIslide	AvoidedLoss	False
587.528	0.25	Lose2	0.6984	0.0	Yes	2.872	0.028	n/a	GoodResponse	0	n/a	n/a	8	62	Cue	AvoidedLoss	True
587.779	3.9	Lose2	0.6984	0.0	Yes	2.872	0.001	n/a	GoodResponse	0	n/a	n/a	8	62	Fixation	AvoidedLoss	True
591.674	0.2	Lose2	0.6984	0.004	Yes	2.872	-0.004	1.0	GoodResponse	0	0.177	590.851	8	62	Target	AvoidedLoss	True
591.851	0.3	Lose2	0.6984	0.004	Yes	2.872	-0.004	1.0	GoodResponse	0	0.177	n/a	8	62	ButtonPress	AvoidedLoss	True
591.875	0.5	Lose2	0.6984	n/a	Yes	2.872	n/a	n/a	GoodResponse	0	n/a	n/a	8	62	Blank	AvoidedLoss	True
592.376	1.45	Lose2	0.6984	n/a	Yes	2.872	n/a	5.0	GoodResponse	0	0.032	591.408	8	62	Feedback	AvoidedLoss	True
593.83	2.872	Lose2	0.6984	n/a	Yes	2.872	n/a	n/a	GoodResponse	0	0.0	n/a	8	62	ISIslide	AvoidedLoss	True
596.722	0.25	Lose2	0.6875	0.001	No	2.628	0.022	n/a	NoResponse	-1	n/a	n/a	7	63	Cue	Loss	False
596.973	4.05	Lose2	0.6875	0.0	No	2.628	0.001	1.0	NoResponse	-1	3.823	599.796	7	63	Fixation	Loss	False
600.796	0.3	Lose2	0.6875	0.0	No	2.628	0.001	1.0	NoResponse	-1	3.823	n/a	7	63	ButtonPress	Loss	False
601.019	0.19	Lose2	0.6875	0.003	No	2.628	-0.003	1.0	NoResponse	-1	0.317	600.336	7	63	Target	Loss	False
601.219	0.51	Lose2	0.6875	n/a	No	2.628	n/a	n/a	NoResponse	-1	n/a	n/a	7	63	Blank	Loss	False
601.336	0.3	Lose2	0.6875	0.003	No	2.628	-0.003	1.0	NoResponse	-1	0.317	n/a	7	63	ButtonPress	Loss	False
601.721	1.45	Lose2	0.6875	n/a	No	2.628	n/a	5.0	NoResponse	-1	0.004	600.725	7	63	Feedback	Loss	False
603.175	2.628	Lose2	0.6875	n/a	No	2.628	n/a	n/a	NoResponse	-1	0.0	n/a	7	63	ISIslide	Loss	False
605.816	0.25	Win2	0.6923	0.0	Yes	3.134	0.016	1.0	GoodResponse	1	0.217	605.033	8	64	Cue	Win	False
606.033	0.3	Win2	0.6923	0.0	Yes	3.134	0.016	1.0	GoodResponse	1	0.217	n/a	8	64	ButtonPress	Win	False
606.067	4.15	Win2	0.6923	0.0	Yes	3.134	0.001	1.0	GoodResponse	1	3.792	608.859	8	64	Fixation	Win	False
609.859	0.3	Win2	0.6923	0.0	Yes	3.134	0.001	1.0	GoodResponse	1	3.792	n/a	8	64	ButtonPress	Win	False
610.213	0.18	Win2	0.6923	0.003	Yes	3.134	-0.003	1.0	GoodResponse	1	0.164	609.377	8	64	Target	Win	False
610.377	0.3	Win2	0.6923	0.003	Yes	3.134	-0.003	1.0	GoodResponse	1	0.164	n/a	8	64	ButtonPress	Win	False
610.397	0.52	Win2	0.6923	n/a	Yes	3.134	n/a	n/a	GoodResponse	1	n/a	n/a	8	64	Blank	Win	False
610.915	1.45	Win2	0.6923	n/a	Yes	3.134	n/a	5.0	GoodResponse	1	0.028	609.943	8	64	Feedback	Win	False
612.369	3.134	Win2	0.6923	n/a	Yes	3.134	n/a	n/a	GoodResponse	1	0.0	n/a	8	64	ISIslide	Win	False
615.529	0.25	Control	0.6818000000000001	0.0	No	2.771	0.029	n/a	NoResponse	0	n/a	n/a	8	65	Cue	Neutral	False
615.779	4.0	Control	0.6818000000000001	0.001	No	2.771	0.0	1.0	NoResponse	0	0.009	614.788	8	65	Fixation	Neutral	False
615.788	0.3	Control	0.6818000000000001	0.001	No	2.771	0.0	1.0	NoResponse	0	0.009	n/a	8	65	ButtonPress	Neutral	False
619.775	0.17	Control	0.6818000000000001	0.004	No	2.771	-0.004	1.0	NoResponse	0	0.19	618.965	8	65	Target	Neutral	False
619.959	0.53	Control	0.6818000000000001	n/a	No	2.771	n/a	n/a	NoResponse	0	n/a	n/a	8	65	Blank	Neutral	False
619.965	0.3	Control	0.6818000000000001	0.004	No	2.771	-0.004	1.0	NoResponse	0	0.19	n/a	8	65	ButtonPress	Neutral	False
620.477	1.45	Control	0.6818000000000001	n/a	No	2.771	n/a	5.0	NoResponse	0	0.027	619.504	8	65	Feedback	Neutral	False
621.931	2.771	Control	0.6818000000000001	n/a	No	2.771	n/a	n/a	NoResponse	0	0.0	n/a	8	65	ISIslide	Neutral	False
624.723	0.25	Win2	0.6716	0.0	No	2.777	0.023	1.0	NoResponse	0	0.224	623.947	8	66	Cue	MissedWin	False
624.947	0.3	Win2	0.6716	0.0	No	2.777	0.023	1.0	NoResponse	0	0.224	n/a	8	66	ButtonPress	MissedWin	False
624.974	3.9	Win2	0.6716	0.0	No	2.777	0.001	1.0	NoResponse	0	3.496	627.47	8	66	Fixation	MissedWin	False
628.47	0.3	Win2	0.6716	0.0	No	2.777	0.001	1.0	NoResponse	0	3.496	n/a	8	66	ButtonPress	MissedWin	False
628.869	0.16	Win2	0.6716	0.004	No	2.777	-0.004	n/a	NoResponse	0	n/a	n/a	8	66	Target	MissedWin	False
629.036	0.54	Win2	0.6716	n/a	No	2.777	n/a	n/a	NoResponse	0	n/a	n/a	8	66	Blank	MissedWin	False
629.571	1.45	Win2	0.6716	n/a	No	2.777	n/a	5.0	NoResponse	0	0.007	628.578	8	66	Feedback	MissedWin	False
631.025	2.777	Win2	0.6716	n/a	No	2.777	n/a	1.0	NoResponse	0	2.274	n/a	8	66	ISIslide	MissedWin	False
633.8	0.25	Control	0.6618	0.0	No	2.75	0.0	1.0	NoResponse	0	0.024	632.824	8	67	Cue	Neutral	False
633.824	0.3	Control	0.6618	0.0	No	2.75	0.0	1.0	NoResponse	0	0.024	n/a	8	67	ButtonPress	Neutral	False
634.051	3.95	Control	0.6618	0.0	No	2.75	0.001	n/a	NoResponse	0	n/a	n/a	8	67	Fixation	Neutral	False
637.996	0.15	Control	0.6618	0.004	No	2.75	-0.004	1.0	NoResponse	0	0.218	637.214	8	67	Target	Neutral	False
638.146	0.55	Control	0.6618	n/a	No	2.75	n/a	n/a	NoResponse	0	n/a	n/a	8	67	Blank	Neutral	False
638.214	0.3	Control	0.6618	0.004	No	2.75	-0.004	1.0	NoResponse	0	0.218	n/a	8	67	ButtonPress	Neutral	False
638.698	1.45	Control	0.6618	n/a	No	2.75	n/a	5.0	NoResponse	0	0.002	637.7	8	67	Feedback	Neutral	False
640.152	2.75	Control	0.6618	n/a	No	2.75	n/a	n/a	NoResponse	0	0.0	n/a	8	67	ISIslide	Neutral	False
642.927	0.25	Win2	0.6522	0.0	No	3.073	0.027	1.0	NoResponse	0	0.194	642.121	8	68	Cue	MissedWin	False
643.121	0.3	Win2	0.6522	0.0	No	3.073	0.027	1.0	NoResponse	0	0.194	n/a	8	68	ButtonPress	MissedWin	False
643.178	4.0	Win2	0.6522	0.0	No	3.073	0.001	n/a	NoResponse	0	n/a	n/a	8	68	Fixation	MissedWin	False
647.173	0.15	Win2	0.6522	0.004	No	3.073	-0.004	1.0	NoResponse	0	0.165	646.338	8	68	Target	MissedWin	False
647.324	0.55	Win2	0.6522	n/a	No	3.073	n/a	n/a	NoResponse	0	n/a	n/a	8	68	Blank	MissedWin	False
647.338	0.3	Win2	0.6522	0.004	No	3.073	-0.004	1.0	NoResponse	0	0.165	n/a	8	68	ButtonPress	MissedWin	False
647.875	1.45	Win2	0.6522	n/a	No	3.073	n/a	5.0	NoResponse	0	0.043	646.918	8	68	Feedback	MissedWin	False
649.33	3.073	Win2	0.6522	n/a	No	3.073	n/a	n/a	NoResponse	0	0.0	n/a	8	68	ISIslide	MissedWin	False
652.422	0.25	Win2	0.6429	0.0	No	3.228	0.022	n/a	PrematurePress	0	n/a	n/a	8	69	Cue	MissedWin	False
652.673	3.95	Win2	0.6429	0.0	No	3.228	0.001	1.0	PrematurePress	0	0.049	651.722	8	69	Fixation	MissedWin	False
652.722	0.3	Win2	0.6429	0.0	No	3.228	0.001	1.0	PrematurePress	0	0.049	n/a	8	69	ButtonPress	MissedWin	False
656.618	0.16	Win2	0.6429	0.004	No	3.228	-0.004	1.0	PrematurePress	0	0.074	655.692	8	69	Target	MissedWin	False
656.692	0.3	Win2	0.6429	0.004	No	3.228	-0.004	1.0	PrematurePress	0	0.074	n/a	8	69	ButtonPress	MissedWin	False
656.785	0.54	Win2	0.6429	n/a	No	3.228	n/a	n/a	PrematurePress	0	n/a	n/a	8	69	Blank	MissedWin	False
657.32	1.45	Win2	0.6429	n/a	No	3.228	n/a	5.0	PrematurePress	0	0.013	656.333	8	69	Feedback	MissedWin	False
658.775	3.228	Win2	0.6429	n/a	No	3.228	n/a	n/a	PrematurePress	0	0.0	n/a	8	69	ISIslide	MissedWin	False
662.018	0.25	Lose2	0.6338	0.0	No	3.032	0.018	n/a	PrematurePress	-1	n/a	n/a	7	70	Cue	Loss	False
662.268	4.05	Lose2	0.6338	0.0	No	3.032	0.0	1.0	PrematurePress	-1	0.025	661.293	7	70	Fixation	Loss	False
662.293	0.3	Lose2	0.6338	0.0	No	3.032	0.0	1.0	PrematurePress	-1	0.025	n/a	7	70	ButtonPress	Loss	False
666.314	0.17	Lose2	0.6338	0.004	No	3.032	-0.004	1.0	PrematurePress	-1	0.002	665.316	7	70	Target	Loss	False
666.316	0.3	Lose2	0.6338	0.004	No	3.032	-0.004	1.0	PrematurePress	-1	0.002	n/a	7	70	ButtonPress	Loss	False
666.498	0.53	Lose2	0.6338	n/a	No	3.032	n/a	n/a	PrematurePress	-1	n/a	n/a	7	70	Blank	Loss	False
667.016	1.45	Lose2	0.6338	n/a	No	3.032	n/a	5.0	PrematurePress	-1	0.024	666.04	7	70	Feedback	Loss	False
668.47	3.032	Lose2	0.6338	n/a	No	3.032	n/a	n/a	PrematurePress	-1	0.0	n/a	7	70	ISIslide	Loss	False
671.529	0.25	Win2	0.6389	0.001	Yes	2.721	0.029	n/a	GoodResponse	1	n/a	n/a	8	71	Cue	Win	False
671.78	4.05	Win2	0.6389	0.0	Yes	2.721	0.001	1.0	GoodResponse	1	0.042	670.822	8	71	Fixation	Win	False
671.822	0.3	Win2	0.6389	0.0	Yes	2.721	0.001	1.0	GoodResponse	1	0.042	n/a	8	71	ButtonPress	Win	False
675.826	0.18	Win2	0.6389	0.003	Yes	2.721	-0.003	1.0	GoodResponse	1	0.175	675.001	8	71	Target	Win	False
676.001	0.3	Win2	0.6389	0.003	Yes	2.721	-0.003	1.0	GoodResponse	1	0.175	n/a	8	71	ButtonPress	Win	False
676.01	0.52	Win2	0.6389	n/a	Yes	2.721	n/a	n/a	GoodResponse	1	n/a	n/a	8	71	Blank	Win	False
676.528	1.45	Win2	0.6389	n/a	Yes	2.721	n/a	5.0	GoodResponse	1	0.025	675.553	8	71	Feedback	Win	False
677.982	2.721	Win2	0.6389	n/a	Yes	2.721	n/a	n/a	GoodResponse	1	0.0	n/a	8	71	ISIslide	Win	False
680.724	0.25	Win2	0.6301	0.0	No	2.776	0.024	n/a	NoResponse	0	n/a	n/a	8	72	Cue	MissedWin	False
680.974	4.1	Win2	0.6301	0.0	No	2.776	0.0	1.0	NoResponse	0	0.008	679.982	8	72	Fixation	MissedWin	False
680.982	0.3	Win2	0.6301	0.0	No	2.776	0.0	1.0	NoResponse	0	0.008	n/a	8	72	ButtonPress	MissedWin	False
685.07	0.19	Win2	0.6301	0.004	No	2.776	-0.004	1.0	NoResponse	0	0.23	684.3	8	72	Target	MissedWin	False
685.271	0.51	Win2	0.6301	n/a	No	2.776	n/a	n/a	NoResponse	0	n/a	n/a	8	72	Blank	MissedWin	False
685.3	0.3	Win2	0.6301	0.004	No	2.776	-0.004	1.0	NoResponse	0	0.23	n/a	8	72	ButtonPress	MissedWin	False
685.772	1.45	Win2	0.6301	n/a	No	2.776	n/a	5.0	NoResponse	0	0.048	684.82	8	72	Feedback	MissedWin	False
687.226	2.776	Win2	0.6301	n/a	No	2.776	n/a	n/a	NoResponse	0	0.0	n/a	8	72	ISIslide	MissedWin	False
690.018	0.25	Win2	0.6215999999999999	0.0	No	2.682	0.018	n/a	NoResponse	0	n/a	n/a	8	73	Cue	MissedWin	True
690.269	4.0	Win2	0.6215999999999999	0.0	No	2.682	0.001	1.0	NoResponse	0	0.005	689.274	8	73	Fixation	MissedWin	True
690.274	0.3	Win2	0.6215999999999999	0.0	No	2.682	0.001	1.0	NoResponse	0	0.005	n/a	8	73	ButtonPress	MissedWin	True
694.264	0.2	Win2	0.6215999999999999	0.004	No	2.682	-0.004	n/a	NoResponse	0	n/a	n/a	8	73	Target	MissedWin	True
694.465	0.5	Win2	0.6215999999999999	n/a	No	2.682	n/a	n/a	NoResponse	0	n/a	n/a	8	73	Blank	MissedWin	True
694.966	1.45	Win2	0.6215999999999999	n/a	No	2.682	n/a	5.0	NoResponse	0	0.025	693.991	8	73	Feedback	MissedWin	True
696.421	2.682	Win2	0.6215999999999999	n/a	No	2.682	n/a	n/a	NoResponse	0	0.0	n/a	8	73	ISIslide	MissedWin	True
699.129	0.25	Lose2	0.6267	0.0	Yes	2.621	0.029	1.0	GoodResponse	0	0.216	698.345	8	74	Cue	AvoidedLoss	False
699.345	0.3	Lose2	0.6267	0.0	Yes	2.621	0.029	1.0	GoodResponse	0	0.216	n/a	8	74	ButtonPress	AvoidedLoss	False
699.379	4.05	Lose2	0.6267	0.0	Yes	2.621	0.0	n/a	GoodResponse	0	n/a	n/a	8	74	Fixation	AvoidedLoss	False
703.425	0.21	Lose2	0.6267	0.004	Yes	2.621	-0.004	1.0	GoodResponse	0	0.2	702.625	8	74	Target	AvoidedLoss	False
703.625	0.3	Lose2	0.6267	0.004	Yes	2.621	-0.004	1.0	GoodResponse	0	0.2	n/a	8	74	ButtonPress	AvoidedLoss	False
703.642	0.49	Lose2	0.6267	n/a	Yes	2.621	n/a	n/a	GoodResponse	0	n/a	n/a	8	74	Blank	AvoidedLoss	False
704.127	1.45	Lose2	0.6267	n/a	Yes	2.621	n/a	5.0	GoodResponse	0	0.035	703.162	8	74	Feedback	AvoidedLoss	False
705.581	2.621	Lose2	0.6267	n/a	Yes	2.621	n/a	n/a	GoodResponse	0	0.0	n/a	8	74	ISIslide	AvoidedLoss	False
708.222	0.25	Lose2	0.6184000000000001	0.001	No	2.928	0.022	1.0	NoResponse	-1	0.222	707.444	7	75	Cue	Loss	False
708.444	0.3	Lose2	0.6184000000000001	0.001	No	2.928	0.022	1.0	NoResponse	-1	0.222	n/a	7	75	ButtonPress	Loss	False
708.473	3.95	Lose2	0.6184000000000001	0.0	No	2.928	0.001	1.0	NoResponse	-1	3.794	711.267	7	75	Fixation	Loss	False
712.267	0.3	Lose2	0.6184000000000001	0.0	No	2.928	0.001	1.0	NoResponse	-1	3.794	n/a	7	75	ButtonPress	Loss	False
712.418	0.22	Lose2	0.6184000000000001	0.004	No	2.928	-0.004	1.0	NoResponse	-1	0.375	711.793	7	75	Target	Loss	False
712.652	0.48	Lose2	0.6184000000000001	n/a	No	2.928	n/a	n/a	NoResponse	-1	n/a	n/a	7	75	Blank	Loss	False
712.793	0.3	Lose2	0.6184000000000001	0.004	No	2.928	-0.004	1.0	NoResponse	-1	0.375	n/a	7	75	ButtonPress	Loss	False
713.12	1.45	Lose2	0.6184000000000001	n/a	No	2.928	n/a	5.0	NoResponse	-1	0.017	712.137	7	75	Feedback	Loss	False
714.575	2.928	Lose2	0.6184000000000001	n/a	No	2.928	n/a	n/a	NoResponse	-1	0.0	n/a	7	75	ISIslide	Loss	False
717.517	0.25	Control	0.6103999999999999	0.0	No	3.233	0.017	n/a	NoResponse	0	n/a	n/a	7	76	Cue	Neutral	False
717.768	4.05	Control	0.6103999999999999	0.0	No	3.233	0.001	1.0	NoResponse	0	0.093	716.861	7	76	Fixation	Neutral	False
717.861	0.3	Control	0.6103999999999999	0.0	No	3.233	0.001	1.0	NoResponse	0	0.093	n/a	7	76	ButtonPress	Neutral	False
721.813	0.23	Control	0.6103999999999999	0.004	No	3.233	-0.004	1.0	NoResponse	0	0.28	721.093	7	76	Target	Neutral	False
722.047	0.47	Control	0.6103999999999999	n/a	No	3.233	n/a	n/a	NoResponse	0	n/a	n/a	7	76	Blank	Neutral	False
722.093	0.3	Control	0.6103999999999999	0.004	No	3.233	-0.004	1.0	NoResponse	0	0.28	n/a	7	76	ButtonPress	Neutral	False
722.515	1.45	Control	0.6103999999999999	n/a	No	3.233	n/a	5.0	NoResponse	0	0.037	721.552	7	76	Feedback	Neutral	False
723.97	3.233	Control	0.6103999999999999	n/a	No	3.233	n/a	n/a	NoResponse	0	0.0	n/a	7	76	ISIslide	Neutral	False
727.229	0.25	Lose2	0.6154	0.0	Yes	2.571	0.029	n/a	GoodResponse	0	n/a	n/a	7	77	Cue	AvoidedLoss	True
727.48	3.95	Lose2	0.6154	0.0	Yes	2.571	0.001	n/a	GoodResponse	0	n/a	n/a	7	77	Fixation	AvoidedLoss	True
731.425	0.24	Lose2	0.6154	0.004	Yes	2.571	-0.004	1.0	GoodResponse	0	0.175	730.6	7	77	Target	AvoidedLoss	True
731.6	0.3	Lose2	0.6154	0.004	Yes	2.571	-0.004	1.0	GoodResponse	0	0.175	n/a	7	77	ButtonPress	AvoidedLoss	True
731.676	0.46	Lose2	0.6154	n/a	Yes	2.571	n/a	n/a	GoodResponse	0	n/a	n/a	7	77	Blank	AvoidedLoss	True
732.127	1.45	Lose2	0.6154	n/a	Yes	2.571	n/a	5.0	GoodResponse	0	0.034	731.161	7	77	Feedback	AvoidedLoss	True
733.582	2.571	Lose2	0.6154	n/a	Yes	2.571	n/a	n/a	GoodResponse	0	0.0	n/a	7	77	ISIslide	AvoidedLoss	True
