onset	duration	cue_type	current_mean_accuracy	duration_error	is_hit	isi_adjusted	onset_delay	response	response_type	reward	rt	rt_time	total_reward	trial_number	trial_phase	trial_type	one_press
11.108	0.25	Control	1.0	0.0	Yes	2.942	0.008	n/a	GoodResponse	0	n/a	n/a	0	0	Cue	Neutral	True
11.359	3.85	Control	1.0	0.0	Yes	2.942	0.001	n/a	GoodResponse	0	n/a	n/a	0	0	Fixation	Neutral	True
15.204	0.4	Control	1.0	0.004	Yes	2.942	-0.004	1.0	GoodResponse	0	0.286	14.49	0	0	Target	Neutral	True
15.49	0.3	Control	1.0	0.004	Yes	2.942	-0.004	1.0	GoodResponse	0	0.286	n/a	0	0	ButtonPress	Neutral	True
15.605	0.3	Control	1.0	n/a	Yes	2.942	n/a	n/a	GoodResponse	0	n/a	n/a	0	0	Blank	Neutral	True
15.906	1.45	Control	1.0	n/a	Yes	2.942	n/a	5.0	GoodResponse	0	0.02	14.926	0	0	Feedback	Neutral	True
17.36	2.942	Control	1.0	n/a	Yes	2.942	n/a	n/a	GoodResponse	0	0.0	n/a	0	0	ISIslide	Neutral	True
20.336	0.25	Lose2	1.0	0.0	Yes	2.764	0.036	n/a	GoodResponse	0	n/a	n/a	0	1	Cue	AvoidedLoss	True
20.587	4.0	Lose2	1.0	0.0	Yes	2.764	0.001	n/a	GoodResponse	0	n/a	n/a	0	1	Fixation	AvoidedLoss	True
24.582	0.39	Lose2	1.0	0.004	Yes	2.764	-0.004	1.0	GoodResponse	0	0.216	23.798	0	1	Target	AvoidedLoss	True
24.798	0.3	Lose2	1.0	0.004	Yes	2.764	-0.004	1.0	GoodResponse	0	0.216	n/a	0	1	ButtonPress	AvoidedLoss	True
24.983	0.31	Lose2	1.0	n/a	Yes	2.764	n/a	n/a	GoodResponse	0	n/a	n/a	0	1	Blank	AvoidedLoss	True
25.284	1.45	Lose2	1.0	n/a	Yes	2.764	n/a	5.0	GoodResponse	0	0.008	24.292	0	1	Feedback	AvoidedLoss	True
26.738	2.764	Lose2	1.0	n/a	Yes	2.764	n/a	n/a	GoodResponse	0	0.0	n/a	0	1	ISIslide	AvoidedLoss	True
29.53	0.25	Control	0.6667000000000001	0.0	No	2.57	0.03	n/a	NoResponse	0	n/a	n/a	0	2	Cue	Neutral	True
29.781	4.1	Control	0.6667000000000001	0.0	No	2.57	0.001	n/a	NoResponse	0	n/a	n/a	0	2	Fixation	Neutral	True
33.876	0.38	Control	0.6667000000000001	0.004	No	2.57	-0.004	1.0	NoResponse	0	0.471	33.347	0	2	Target	Neutral	True
34.261	0.32	Control	0.6667000000000001	n/a	No	2.57	n/a	n/a	NoResponse	0	n/a	n/a	0	2	Blank	Neutral	True
34.347	0.3	Control	0.6667000000000001	0.004	No	2.57	-0.004	1.0	NoResponse	0	0.471	n/a	0	2	ButtonPress	Neutral	True
34.578	1.45	Control	0.6667000000000001	n/a	No	2.57	n/a	5.0	NoResponse	0	0.031	33.609	0	2	Feedback	Neutral	True
36.033	2.57	Control	0.6667000000000001	n/a	No	2.57	n/a	n/a	NoResponse	0	0.0	n/a	0	2	ISIslide	Neutral	True
38.624	0.25	Win2	0.75	0.0	Yes	2.826	0.024	n/a	GoodResponse	1	n/a	n/a	1	3	Cue	Win	True
38.875	3.95	Win2	0.75	0.0	Yes	2.826	0.001	n/a	GoodResponse	1	n/a	n/a	1	3	Fixation	Win	True
42.82	0.37	Win2	0.75	0.004	Yes	2.826	-0.004	1.0	GoodResponse	1	0.224	42.044	1	3	Target	Win	True
43.044	0.3	Win2	0.75	0.004	Yes	2.826	-0.004	1.0	GoodResponse	1	0.224	n/a	1	3	ButtonPress	Win	True
43.204	0.33	Win2	0.75	n/a	Yes	2.826	n/a	n/a	GoodResponse	1	n/a	n/a	1	3	Blank	Win	True
43.522	1.45	Win2	0.75	n/a	Yes	2.826	n/a	5.0	GoodResponse	1	0.013	42.535	1	3	Feedback	Win	True
44.976	2.826	Win2	0.75	n/a	Yes	2.826	n/a	n/a	GoodResponse	1	0.0	n/a	1	3	ISIslide	Win	True
47.818	0.25	Win2	0.8	0.0	Yes	3.282	0.018	n/a	GoodResponse	1	n/a	n/a	2	4	Cue	Win	True
48.069	4.0	Win2	0.8	0.0	Yes	3.282	0.001	n/a	GoodResponse	1	n/a	n/a	2	4	Fixation	Win	True
52.064	0.36	Win2	0.8	0.004	Yes	3.282	-0.004	1.0	GoodResponse	1	0.243	51.307	2	4	Target	Win	True
52.307	0.3	Win2	0.8	0.004	Yes	3.282	-0.004	1.0	GoodResponse	1	0.243	n/a	2	4	ButtonPress	Win	True
52.432	0.34	Win2	0.8	n/a	Yes	3.282	n/a	n/a	GoodResponse	1	n/a	n/a	2	4	Blank	Win	True
52.766	1.45	Win2	0.8	n/a	Yes	3.282	n/a	5.0	GoodResponse	1	0.038	51.804	2	4	Feedback	Win	True
54.22	3.282	Win2	0.8	n/a	Yes	3.282	n/a	n/a	GoodResponse	1	0.0	n/a	2	4	ISIslide	Win	True
57.53	0.25	Win2	0.6667000000000001	0.0	No	2.77	0.03	n/a	NoResponse	0	n/a	n/a	2	5	Cue	MissedWin	True
57.781	4.0	Win2	0.6667000000000001	0.0	No	2.77	0.001	n/a	NoResponse	0	n/a	n/a	2	5	Fixation	MissedWin	True
61.776	0.35	Win2	0.6667000000000001	0.004	No	2.77	-0.004	1.0	NoResponse	0	0.472	61.248	2	5	Target	MissedWin	True
62.127	0.35	Win2	0.6667000000000001	n/a	No	2.77	n/a	n/a	NoResponse	0	n/a	n/a	2	5	Blank	MissedWin	True
62.248	0.3	Win2	0.6667000000000001	0.004	No	2.77	-0.004	1.0	NoResponse	0	0.472	n/a	2	5	ButtonPress	MissedWin	True
62.479	1.45	Win2	0.6667000000000001	n/a	No	2.77	n/a	5.0	NoResponse	0	0.032	61.511	2	5	Feedback	MissedWin	True
63.933	2.77	Win2	0.6667000000000001	n/a	No	2.77	n/a	n/a	NoResponse	0	0.0	n/a	2	5	ISIslide	MissedWin	True
66.725	0.25	Lose2	0.7143	0.0	Yes	2.725	0.025	n/a	GoodResponse	0	n/a	n/a	2	6	Cue	AvoidedLoss	True
66.975	3.95	Lose2	0.7143	0.0	Yes	2.725	0.0	n/a	GoodResponse	0	n/a	n/a	2	6	Fixation	AvoidedLoss	True
70.937	0.34	Lose2	0.7143	0.0	Yes	2.725	0.012	1.0	GoodResponse	0	0.252	70.189	2	6	Target	AvoidedLoss	True
71.189	0.3	Lose2	0.7143	0.0	Yes	2.725	0.012	1.0	GoodResponse	0	0.252	n/a	2	6	ButtonPress	AvoidedLoss	True
71.271	0.36	Lose2	0.7143	n/a	Yes	2.725	n/a	n/a	GoodResponse	0	n/a	n/a	2	6	Blank	AvoidedLoss	True
71.623	1.45	Lose2	0.7143	n/a	Yes	2.725	n/a	5.0	GoodResponse	0	0.01	70.633	2	6	Feedback	AvoidedLoss	True
73.077	2.725	Lose2	0.7143	n/a	Yes	2.725	n/a	n/a	GoodResponse	0	0.0	n/a	2	6	ISIslide	AvoidedLoss	True
75.818	0.25	Lose2	0.75	0.0	Yes	4.032	0.018	n/a	GoodResponse	0	n/a	n/a	2	7	Cue	AvoidedLoss	True
76.069	4.05	Lose2	0.75	0.0	Yes	4.032	0.001	n/a	GoodResponse	0	n/a	n/a	2	7	Fixation	AvoidedLoss	True
80.115	0.33	Lose2	0.75	0.003	Yes	4.032	-0.003	1.0	GoodResponse	0	0.251	79.366	2	7	Target	AvoidedLoss	True
80.366	0.3	Lose2	0.75	0.003	Yes	4.032	-0.003	1.0	GoodResponse	0	0.251	n/a	2	7	ButtonPress	AvoidedLoss	True
80.449	0.37	Lose2	0.75	n/a	Yes	4.032	n/a	n/a	GoodResponse	0	n/a	n/a	2	7	Blank	AvoidedLoss	True
80.817	1.45	Lose2	0.75	n/a	Yes	4.032	n/a	5.0	GoodResponse	0	0.036	79.853	2	7	Feedback	AvoidedLoss	True
82.271	4.032	Lose2	0.75	n/a	Yes	4.032	n/a	n/a	GoodResponse	0	0.0	n/a	2	7	ISIslide	AvoidedLoss	True
86.316	0.25	Lose2	0.7778	0.001	Yes	3.034	0.016	n/a	GoodResponse	0	n/a	n/a	2	8	Cue	AvoidedLoss	False
86.567	3.95	Lose2	0.7778	0.0	Yes	3.034	0.001	1.0	GoodResponse	0	2.258	87.825	2	8	Fixation	AvoidedLoss	False
88.825	0.3	Lose2	0.7778	0.0	Yes	3.034	0.001	1.0	GoodResponse	0	2.258	n/a	2	8	ButtonPress	AvoidedLoss	False
90.512	0.32	Lose2	0.7778	0.004	Yes	3.034	-0.004	1.0	GoodResponse	0	0.236	89.748	2	8	Target	AvoidedLoss	False
90.748	0.3	Lose2	0.7778	0.004	Yes	3.034	-0.004	1.0	GoodResponse	0	0.236	n/a	2	8	ButtonPress	AvoidedLoss	False
90.847	0.38	Lose2	0.7778	n/a	Yes	3.034	n/a	n/a	GoodResponse	0	n/a	n/a	2	8	Blank	AvoidedLoss	False
91.214	1.45	Lose2	0.7778	n/a	Yes	3.034	n/a	5.0	GoodResponse	0	0.028	90.242	2	8	Feedback	AvoidedLoss	False
92.669	3.034	Lose2	0.7778	n/a	Yes	3.034	n/a	n/a	GoodResponse	0	0.0	n/a	2	8	ISIslide	AvoidedLoss	False
95.728	0.25	Lose2	0.8	0.0	Yes	3.122	0.028	n/a	GoodResponse	0	n/a	n/a	2	9	Cue	AvoidedLoss	True
95.979	3.95	Lose2	0.8	0.0	Yes	3.122	0.001	n/a	GoodResponse	0	n/a	n/a	2	9	Fixation	AvoidedLoss	True
99.924	0.31	Lose2	0.8	0.004	Yes	3.122	-0.004	1.0	GoodResponse	0	0.304	99.228	2	9	Target	AvoidedLoss	True
100.228	0.3	Lose2	0.8	0.004	Yes	3.122	-0.004	1.0	GoodResponse	0	0.304	n/a	2	9	ButtonPress	AvoidedLoss	True
100.241	0.39	Lose2	0.8	n/a	Yes	3.122	n/a	n/a	GoodResponse	0	n/a	n/a	2	9	Blank	AvoidedLoss	True
100.626	1.45	Lose2	0.8	n/a	Yes	3.122	n/a	5.0	GoodResponse	0	0.031	99.657	2	9	Feedback	AvoidedLoss	True
102.08	3.122	Lose2	0.8	n/a	Yes	3.122	n/a	n/a	GoodResponse	0	0.0	n/a	2	9	ISIslide	AvoidedLoss	True
105.223	0.25	Control	0.8181999999999999	0.0	Yes	3.277	0.023	n/a	GoodResponse	0	n/a	n/a	2	10	Cue	Neutral	True
105.474	4.0	Control	0.8181999999999999	0.0	Yes	3.277	0.001	n/a	GoodResponse	0	n/a	n/a	2	10	Fixation	Neutral	True
109.469	0.3	Control	0.8181999999999999	0.004	Yes	3.277	-0.004	1.0	GoodResponse	0	0.206	108.675	2	10	Target	Neutral	True
109.675	0.3	Control	0.8181999999999999	0.004	Yes	3.277	-0.004	1.0	GoodResponse	0	0.206	n/a	2	10	ButtonPress	Neutral	True
109.77	0.4	Control	0.8181999999999999	n/a	Yes	3.277	n/a	n/a	GoodResponse	0	n/a	n/a	2	10	Blank	Neutral	True
110.171	1.45	Control	0.8181999999999999	n/a	Yes	3.277	n/a	5.0	GoodResponse	0	0.047	109.218	2	10	Feedback	Neutral	True
111.625	3.277	Control	0.8181999999999999	n/a	Yes	3.277	n/a	n/a	GoodResponse	0	0.0	n/a	2	10	ISIslide	Neutral	True
114.919	0.25	Lose2	0.75	0.0	No	2.731	0.019	n/a	NoResponse	-1	n/a	n/a	1	11	Cue	Loss	True
115.169	4.05	Lose2	0.75	0.0	No	2.731	0.0	n/a	NoResponse	-1	n/a	n/a	1	11	Fixation	Loss	True
119.215	0.29	Lose2	0.75	0.004	No	2.731	-0.004	1.0	NoResponse	-1	0.411	118.626	1	11	Target	Loss	True
119.516	0.41	Lose2	0.75	n/a	No	2.731	n/a	n/a	NoResponse	-1	n/a	n/a	1	11	Blank	Loss	True
119.626	0.3	Lose2	0.75	0.004	No	2.731	-0.004	1.0	NoResponse	-1	0.411	n/a	1	11	ButtonPress	Loss	True
119.917	1.45	Lose2	0.75	n/a	No	2.731	n/a	5.0	NoResponse	-1	0.008	118.925	1	11	Feedback	Loss	True
121.371	2.731	Lose2	0.75	n/a	No	2.731	n/a	n/a	NoResponse	-1	0.0	n/a	1	11	ISIslide	Loss	True
124.13	0.25	Control	0.7692	0.0	Yes	2.97	0.03	n/a	GoodResponse	0	n/a	n/a	1	12	Cue	Neutral	True
124.38	3.9	Control	0.7692	0.0	Yes	2.97	0.0	n/a	GoodResponse	0	n/a	n/a	1	12	Fixation	Neutral	True
128.292	0.28	Control	0.7692	0.0	Yes	2.97	0.012	1.0	GoodResponse	0	0.229	127.521	1	12	Target	Neutral	True
128.521	0.3	Control	0.7692	0.0	Yes	2.97	0.012	1.0	GoodResponse	0	0.229	n/a	1	12	ButtonPress	Neutral	True
128.559	0.42	Control	0.7692	n/a	Yes	2.97	n/a	n/a	GoodResponse	0	n/a	n/a	1	12	Blank	Neutral	True
128.977	1.45	Control	0.7692	n/a	Yes	2.97	n/a	5.0	GoodResponse	0	0.02	127.997	1	12	Feedback	Neutral	True
130.432	2.97	Control	0.7692	n/a	Yes	2.97	n/a	n/a	GoodResponse	0	0.0	n/a	1	12	ISIslide	Neutral	True
133.424	0.25	Control	0.7857	0.0	Yes	2.776	0.024	n/a	GoodResponse	0	n/a	n/a	1	13	Cue	Neutral	True
133.675	4.0	Control	0.7857	0.0	Yes	2.776	0.001	n/a	GoodResponse	0	n/a	n/a	1	13	Fixation	Neutral	True
137.67	0.27	Control	0.7857	0.004	Yes	2.776	-0.004	1.0	GoodResponse	0	0.227	136.897	1	13	Target	Neutral	True
137.897	0.3	Control	0.7857	0.004	Yes	2.776	-0.004	1.0	GoodResponse	0	0.227	n/a	1	13	ButtonPress	Neutral	True
137.954	0.43	Control	0.7857	n/a	Yes	2.776	n/a	n/a	GoodResponse	0	n/a	n/a	1	13	Blank	Neutral	True
138.372	1.45	Control	0.7857	n/a	Yes	2.776	n/a	5.0	GoodResponse	0	0.04	137.412	1	13	Feedback	Neutral	True
139.826	2.776	Control	0.7857	n/a	Yes	2.776	n/a	n/a	GoodResponse	0	0.0	n/a	1	13	ISIslide	Neutral	True
142.618	0.25	Win2	0.7333	0.0	No	2.682	0.018	n/a	NoResponse	0	n/a	n/a	1	14	Cue	MissedWin	False
142.869	4.1	Win2	0.7333	0.0	No	2.682	0.001	n/a	NoResponse	0	n/a	n/a	1	14	Fixation	MissedWin	False
146.964	0.26	Win2	0.7333	0.004	No	2.682	-0.004	n/a	NoResponse	0	n/a	n/a	1	14	Target	MissedWin	False
147.232	0.44	Win2	0.7333	n/a	No	2.682	n/a	n/a	NoResponse	0	n/a	n/a	1	14	Blank	MissedWin	False
147.667	1.45	Win2	0.7333	n/a	No	2.682	n/a	5.0	NoResponse	0	0.014	146.681	1	14	Feedback	MissedWin	False
149.121	2.682	Win2	0.7333	n/a	No	2.682	n/a	n/a	NoResponse	0	0.0	n/a	1	14	ISIslide	MissedWin	False
151.829	0.25	Control	0.6875	0.0	No	2.971	0.029	n/a	NoResponse	0	n/a	n/a	1	15	Cue	Neutral	True
152.08	4.0	Control	0.6875	0.0	No	2.971	0.001	n/a	NoResponse	0	n/a	n/a	1	15	Fixation	Neutral	True
156.075	0.25	Control	0.6875	0.004	No	2.971	-0.004	1.0	NoResponse	0	0.254	155.329	1	15	Target	Neutral	True
156.326	0.45	Control	0.6875	n/a	No	2.971	n/a	n/a	NoResponse	0	n/a	n/a	1	15	Blank	Neutral	True
156.329	0.3	Control	0.6875	0.004	No	2.971	-0.004	1.0	NoResponse	0	0.254	n/a	1	15	ButtonPress	Neutral	True
156.777	1.45	Control	0.6875	n/a	No	2.971	n/a	5.0	NoResponse	0	0.026	155.803	1	15	Feedback	Neutral	True
158.231	2.971	Control	0.6875	n/a	No	2.971	n/a	n/a	NoResponse	0	0.0	n/a	1	15	ISIslide	Neutral	True
161.224	0.25	Win2	0.7059000000000001	0.0	Yes	2.876	0.024	n/a	GoodResponse	1	n/a	n/a	2	16	Cue	Win	True
161.474	4.0	Win2	0.7059000000000001	0.001	Yes	2.876	0.0	n/a	GoodResponse	1	n/a	n/a	2	16	Fixation	Win	True
165.47	0.24	Win2	0.7059000000000001	0.004	Yes	2.876	-0.004	1.0	GoodResponse	1	0.236	164.706	2	16	Target	Win	True
165.706	0.3	Win2	0.7059000000000001	0.004	Yes	2.876	-0.004	1.0	GoodResponse	1	0.236	n/a	2	16	ButtonPress	Win	True
165.721	0.46	Win2	0.7059000000000001	n/a	Yes	2.876	n/a	n/a	GoodResponse	1	n/a	n/a	2	16	Blank	Win	True
166.172	1.45	Win2	0.7059000000000001	n/a	Yes	2.876	n/a	5.0	GoodResponse	1	0.045	165.217	2	16	Feedback	Win	True
167.626	2.876	Win2	0.7059000000000001	n/a	Yes	2.876	n/a	n/a	GoodResponse	1	0.0	n/a	2	16	ISIslide	Win	True
170.518	0.25	Lose2	0.6667000000000001	0.0	No	2.732	0.018	n/a	NoResponse	-1	n/a	n/a	1	17	Cue	Loss	True
170.769	3.95	Lose2	0.6667000000000001	0.0	No	2.732	0.001	n/a	NoResponse	-1	n/a	n/a	1	17	Fixation	Loss	True
174.714	0.23	Lose2	0.6667000000000001	0.004	No	2.732	-0.004	1.0	NoResponse	-1	0.257	173.971	1	17	Target	Loss	True
174.948	0.47	Lose2	0.6667000000000001	n/a	No	2.732	n/a	n/a	NoResponse	-1	n/a	n/a	1	17	Blank	Loss	True
174.971	0.3	Lose2	0.6667000000000001	0.004	No	2.732	-0.004	1.0	NoResponse	-1	0.257	n/a	1	17	ButtonPress	Loss	True
175.416	1.45	Lose2	0.6667000000000001	n/a	No	2.732	n/a	5.0	NoResponse	-1	0.02	174.436	1	17	Feedback	Loss	True
176.871	2.732	Lose2	0.6667000000000001	n/a	No	2.732	n/a	n/a	NoResponse	-1	0.0	n/a	1	17	ISIslide	Loss	True
179.629	0.25	Lose2	0.6315999999999999	0.0	No	2.721	0.029	n/a	NoResponse	-1	n/a	n/a	0	18	Cue	Loss	True
179.88	4.05	Lose2	0.6315999999999999	0.0	No	2.721	0.001	1.0	NoResponse	-1	3.708	182.588	0	18	Fixation	Loss	True
183.588	0.3	Lose2	0.6315999999999999	0.0	No	2.721	0.001	1.0	NoResponse	-1	3.708	n/a	0	18	ButtonPress	Loss	True
183.925	0.22	Lose2	0.6315999999999999	0.004	No	2.721	-0.004	n/a	NoResponse	-1	n/a	n/a	0	18	Target	Loss	True
184.159	0.48	Lose2	0.6315999999999999	n/a	No	2.721	n/a	n/a	NoResponse	-1	n/a	n/a	0	18	Blank	Loss	True
184.627	1.45	Lose2	0.6315999999999999	n/a	No	2.721	n/a	5.0	NoResponse	-1	0.029	183.656	0	18	Feedback	Loss	True
186.081	2.721	Lose2	0.6315999999999999	n/a	No	2.721	n/a	n/a	NoResponse	-1	0.0	n/a	0	18	ISIslide	Loss	True
188.823	0.25	Control	0.6	0.0	No	2.927	0.023	n/a	NoResponse	0	n/a	n/a	0	19	Cue	Neutral	False
189.074	3.95	Control	0.6	0.0	No	2.927	0.001	1.0	NoResponse	0	2.665	190.739	0	19	Fixation	Neutral	False
191.739	0.3	Control	0.6	0.0	No	2.927	0.001	1.0	NoResponse	0	2.665	n/a	0	19	ButtonPress	Neutral	False
193.019	0.23	Control	0.6	0.004	No	2.927	-0.004	1.0	NoResponse	0	0.387	192.406	0	19	Target	Neutral	False
193.253	0.47	Control	0.6	n/a	No	2.927	n/a	n/a	NoResponse	0	n/a	n/a	0	19	Blank	Neutral	False
193.406	0.3	Control	0.6	0.004	No	2.927	-0.004	1.0	NoResponse	0	0.387	n/a	0	19	ButtonPress	Neutral	False
193.721	1.45	Control	0.6	n/a	No	2.927	n/a	5.0	NoResponse	0	0.008	192.729	0	19	Feedback	Neutral	False
195.175	2.927	Control	0.6	n/a	No	2.927	n/a	n/a	NoResponse	0	0.0	n/a	0	19	ISIslide	Neutral	False
198.117	0.25	Control	0.619	0.0	Yes	2.633	0.017	n/a	GoodResponse	0	n/a	n/a	0	20	Cue	Neutral	True
198.368	4.05	Control	0.619	0.0	Yes	2.633	0.001	n/a	GoodResponse	0	n/a	n/a	0	20	Fixation	Neutral	True
202.414	0.24	Control	0.619	0.003	Yes	2.633	-0.003	1.0	GoodResponse	0	0.211	201.625	0	20	Target	Neutral	True
202.625	0.3	Control	0.619	0.003	Yes	2.633	-0.003	1.0	GoodResponse	0	0.211	n/a	0	20	ButtonPress	Neutral	True
202.664	0.46	Control	0.619	n/a	Yes	2.633	n/a	n/a	GoodResponse	0	n/a	n/a	0	20	Blank	Neutral	True
203.116	1.45	Control	0.619	n/a	Yes	2.633	n/a	5.0	GoodResponse	0	0.028	202.144	0	20	Feedback	Neutral	True
204.57	2.633	Control	0.619	n/a	Yes	2.633	n/a	n/a	GoodResponse	0	0.0	n/a	0	20	ISIslide	Neutral	True
207.228	0.25	Control	0.6364	0.0	Yes	2.772	0.028	n/a	GoodResponse	0	n/a	n/a	0	21	Cue	Neutral	True
207.479	4.1	Control	0.6364	0.0	Yes	2.772	0.001	n/a	GoodResponse	0	n/a	n/a	0	21	Fixation	Neutral	True
211.574	0.25	Control	0.6364	0.004	Yes	2.772	-0.004	1.0	GoodResponse	0	0.237	210.811	0	21	Target	Neutral	True
211.811	0.3	Control	0.6364	0.004	Yes	2.772	-0.004	1.0	GoodResponse	0	0.237	n/a	0	21	ButtonPress	Neutral	True
211.825	0.45	Control	0.6364	n/a	Yes	2.772	n/a	n/a	GoodResponse	0	n/a	n/a	0	21	Blank	Neutral	True
212.276	1.45	Control	0.6364	n/a	Yes	2.772	n/a	5.0	GoodResponse	0	0.038	211.314	0	21	Feedback	Neutral	True
213.731	2.772	Control	0.6364	n/a	Yes	2.772	n/a	n/a	GoodResponse	0	0.0	n/a	0	21	ISIslide	Neutral	True
216.522	0.25	Control	0.6522	0.0	Yes	2.778	0.022	n/a	GoodResponse	0	n/a	n/a	0	22	Cue	Neutral	False
216.773	4.0	Control	0.6522	0.0	Yes	2.778	0.001	1.0	GoodResponse	0	3.343	219.116	0	22	Fixation	Neutral	False
220.116	0.3	Control	0.6522	0.0	Yes	2.778	0.001	1.0	GoodResponse	0	3.343	n/a	0	22	ButtonPress	Neutral	False
220.768	0.26	Control	0.6522	0.004	Yes	2.778	-0.004	1.0	GoodResponse	0	0.133	219.901	0	22	Target	Neutral	False
220.901	0.3	Control	0.6522	0.004	Yes	2.778	-0.004	1.0	GoodResponse	0	0.133	n/a	0	22	ButtonPress	Neutral	False
221.036	0.44	Control	0.6522	n/a	Yes	2.778	n/a	n/a	GoodResponse	0	n/a	n/a	0	22	Blank	Neutral	False
221.471	1.45	Control	0.6522	n/a	Yes	2.778	n/a	5.0	GoodResponse	0	0.013	220.484	0	22	Feedback	Neutral	False
222.925	2.778	Control	0.6522	n/a	Yes	2.778	n/a	n/a	GoodResponse	0	0.0	n/a	0	22	ISIslide	Neutral	False
225.717	0.25	Control	0.6667000000000001	0.0	Yes	2.783	0.017	n/a	GoodResponse	0	n/a	n/a	0	23	Cue	Neutral	True
225.967	3.9	Control	0.6667000000000001	0.0	Yes	2.783	0.0	n/a	GoodResponse	0	n/a	n/a	0	23	Fixation	Neutral	True
229.879	0.27	Control	0.6667000000000001	0.0	Yes	2.783	0.012	1.0	GoodResponse	0	0.247	229.126	0	23	Target	Neutral	True
230.126	0.3	Control	0.6667000000000001	0.0	Yes	2.783	0.012	1.0	GoodResponse	0	0.247	n/a	0	23	ButtonPress	Neutral	True
230.146	0.43	Control	0.6667000000000001	n/a	Yes	2.783	n/a	n/a	GoodResponse	0	n/a	n/a	0	23	Blank	Neutral	True
230.564	1.45	Control	0.6667000000000001	n/a	Yes	2.783	n/a	5.0	GoodResponse	0	0.042	229.606	0	23	Feedback	Neutral	True
232.019	2.783	Control	0.6667000000000001	n/a	Yes	2.783	n/a	n/a	GoodResponse	0	0.0	n/a	0	23	ISIslide	Neutral	True
234.827	0.25	Win2	0.68	0.0	Yes	3.123	0.027	n/a	GoodResponse	1	n/a	n/a	1	24	Cue	Win	False
235.078	3.95	Win2	0.68	0.0	Yes	3.123	0.001	1.0	GoodResponse	1	2.92	236.998	1	24	Fixation	Win	False
237.998	0.3	Win2	0.68	0.0	Yes	3.123	0.001	1.0	GoodResponse	1	2.92	n/a	1	24	ButtonPress	Win	False
239.023	0.26	Win2	0.68	0.004	Yes	3.123	-0.004	1.0	GoodResponse	1	0.16	238.183	1	24	Target	Win	False
239.183	0.3	Win2	0.68	0.004	Yes	3.123	-0.004	1.0	GoodResponse	1	0.16	n/a	1	24	ButtonPress	Win	False
239.29	0.44	Win2	0.68	n/a	Yes	3.123	n/a	n/a	GoodResponse	1	n/a	n/a	1	24	Blank	Win	False
239.725	1.45	Win2	0.68	n/a	Yes	3.123	n/a	5.0	GoodResponse	1	0.007	238.732	1	24	Feedback	Win	False
241.179	3.123	Win2	0.68	n/a	Yes	3.123	n/a	n/a	GoodResponse	1	0.0	n/a	1	24	ISIslide	Win	False
244.322	0.25	Win2	0.6923	0.0	Yes	3.078	0.022	n/a	GoodResponse	1	n/a	n/a	2	25	Cue	Win	True
244.573	4.0	Win2	0.6923	0.0	Yes	3.078	0.001	n/a	GoodResponse	1	n/a	n/a	2	25	Fixation	Win	True
248.568	0.25	Win2	0.6923	0.004	Yes	3.078	-0.004	1.0	GoodResponse	1	0.202	247.77	2	25	Target	Win	True
248.77	0.3	Win2	0.6923	0.004	Yes	3.078	-0.004	1.0	GoodResponse	1	0.202	n/a	2	25	ButtonPress	Win	True
248.819	0.45	Win2	0.6923	n/a	Yes	3.078	n/a	n/a	GoodResponse	1	n/a	n/a	2	25	Blank	Win	True
249.27	1.45	Win2	0.6923	n/a	Yes	3.078	n/a	5.0	GoodResponse	1	0.02	248.29	2	25	Feedback	Win	True
250.725	3.078	Win2	0.6923	n/a	Yes	3.078	n/a	n/a	GoodResponse	1	0.0	n/a	2	25	ISIslide	Win	True
253.817	0.25	Win2	0.7037	0.0	Yes	2.933	0.017	n/a	GoodResponse	1	n/a	n/a	3	26	Cue	Win	True
254.068	3.95	Win2	0.7037	0.0	Yes	2.933	0.001	n/a	GoodResponse	1	n/a	n/a	3	26	Fixation	Win	True
258.013	0.24	Win2	0.7037	0.004	Yes	2.933	-0.004	1.0	GoodResponse	1	0.236	257.249	3	26	Target	Win	True
258.249	0.3	Win2	0.7037	0.004	Yes	2.933	-0.004	1.0	GoodResponse	1	0.236	n/a	3	26	ButtonPress	Win	True
258.264	0.46	Win2	0.7037	n/a	Yes	2.933	n/a	n/a	GoodResponse	1	n/a	n/a	3	26	Blank	Win	True
258.715	1.45	Win2	0.7037	n/a	Yes	2.933	n/a	5.0	GoodResponse	1	0.037	257.752	3	26	Feedback	Win	True
260.17	2.933	Win2	0.7037	n/a	Yes	2.933	n/a	n/a	GoodResponse	1	0.0	n/a	3	26	ISIslide	Win	True
263.128	0.25	Lose2	0.6786	0.001	No	2.822	0.028	n/a	PrematurePress	-1	n/a	n/a	2	27	Cue	Loss	True
263.379	4.05	Lose2	0.6786	0.0	No	2.822	0.001	n/a	PrematurePress	-1	n/a	n/a	2	27	Fixation	Loss	True
267.425	0.23	Lose2	0.6786	0.003	No	2.822	-0.003	1.0	PrematurePress	-1	0.026	266.451	2	27	Target	Loss	True
267.451	0.3	Lose2	0.6786	0.003	No	2.822	-0.003	1.0	PrematurePress	-1	0.026	n/a	2	27	ButtonPress	Loss	True
267.659	0.47	Lose2	0.6786	n/a	No	2.822	n/a	n/a	PrematurePress	-1	n/a	n/a	2	27	Blank	Loss	True
268.127	1.45	Lose2	0.6786	n/a	No	2.822	n/a	5.0	PrematurePress	-1	0.04	267.167	2	27	Feedback	Loss	True
269.581	2.822	Lose2	0.6786	n/a	No	2.822	n/a	n/a	PrematurePress	-1	0.0	n/a	2	27	ISIslide	Loss	True
272.423	0.25	Control	0.6552	0.0	No	2.827	0.023	n/a	NoResponse	0	n/a	n/a	2	28	Cue	Neutral	True
272.674	4.05	Control	0.6552	0.0	No	2.827	0.001	n/a	NoResponse	0	n/a	n/a	2	28	Fixation	Neutral	True
276.719	0.22	Control	0.6552	0.004	No	2.827	-0.004	1.0	NoResponse	0	0.525	276.244	2	28	Target	Neutral	True
276.953	0.48	Control	0.6552	n/a	No	2.827	n/a	n/a	NoResponse	0	n/a	n/a	2	28	Blank	Neutral	True
277.244	0.3	Control	0.6552	0.004	No	2.827	-0.004	1.0	NoResponse	0	0.525	n/a	2	28	ButtonPress	Neutral	True
277.421	1.45	Control	0.6552	n/a	No	2.827	n/a	5.0	NoResponse	0	0.014	276.435	2	28	Feedback	Neutral	True
278.876	2.827	Control	0.6552	n/a	No	2.827	n/a	n/a	NoResponse	0	0.0	n/a	2	28	ISIslide	Neutral	True
281.717	0.25	Lose2	0.6333	0.0	No	2.833	0.017	n/a	NoResponse	-1	n/a	n/a	1	29	Cue	Loss	False
281.968	3.95	Lose2	0.6333	0.0	No	2.833	0.001	n/a	NoResponse	-1	n/a	n/a	1	29	Fixation	Loss	False
285.913	0.22	Lose2	0.6333	0.004	No	2.833	-0.004	n/a	NoResponse	-1	n/a	n/a	1	29	Target	Loss	False
286.147	0.48	Lose2	0.6333	n/a	No	2.833	n/a	n/a	NoResponse	-1	n/a	n/a	1	29	Blank	Loss	False
286.615	1.45	Lose2	0.6333	n/a	No	2.833	n/a	5.0	NoResponse	-1	0.04	285.655	1	29	Feedback	Loss	False
288.07	2.833	Lose2	0.6333	n/a	No	2.833	n/a	n/a	NoResponse	-1	0.0	n/a	1	29	ISIslide	Loss	False
290.928	0.25	Win2	0.6129	0.0	No	2.772	0.028	n/a	NoResponse	0	n/a	n/a	1	30	Cue	MissedWin	True
291.179	3.9	Win2	0.6129	0.0	No	2.772	0.001	n/a	NoResponse	0	n/a	n/a	1	30	Fixation	MissedWin	True
295.074	0.23	Win2	0.6129	0.004	No	2.772	-0.004	1.0	NoResponse	0	0.499	294.573	1	30	Target	MissedWin	True
295.308	0.47	Win2	0.6129	n/a	No	2.772	n/a	n/a	NoResponse	0	n/a	n/a	1	30	Blank	MissedWin	True
295.573	0.3	Win2	0.6129	0.004	No	2.772	-0.004	1.0	NoResponse	0	0.499	n/a	1	30	ButtonPress	MissedWin	True
295.776	1.45	Win2	0.6129	n/a	No	2.772	n/a	5.0	NoResponse	0	0.001	294.777	1	30	Feedback	MissedWin	True
297.23	2.772	Win2	0.6129	n/a	No	2.772	n/a	n/a	NoResponse	0	0.0	n/a	1	30	ISIslide	MissedWin	True
300.022	0.25	Lose2	0.5938	0.0	No	2.828	0.022	n/a	NoResponse	-1	n/a	n/a	0	31	Cue	Loss	False
300.273	4.05	Lose2	0.5938	0.0	No	2.828	0.001	1.0	NoResponse	-1	3.737	303.01	0	31	Fixation	Loss	False
304.01	0.3	Lose2	0.5938	0.0	No	2.828	0.001	1.0	NoResponse	-1	3.737	n/a	0	31	ButtonPress	Loss	False
304.318	0.24	Lose2	0.5938	0.004	No	2.828	-0.004	1.0	NoResponse	-1	0.43	303.748	0	31	Target	Loss	False
304.569	0.46	Lose2	0.5938	n/a	No	2.828	n/a	n/a	NoResponse	-1	n/a	n/a	0	31	Blank	Loss	False
304.748	0.3	Lose2	0.5938	0.004	No	2.828	-0.004	1.0	NoResponse	-1	0.43	n/a	0	31	ButtonPress	Loss	False
305.02	1.45	Lose2	0.5938	n/a	No	2.828	n/a	5.0	NoResponse	-1	0.024	304.044	0	31	Feedback	Loss	False
306.475	2.828	Lose2	0.5938	n/a	No	2.828	n/a	n/a	NoResponse	-1	0.0	n/a	0	31	ISIslide	Loss	False
309.317	0.25	Lose2	0.6061	0.0	Yes	2.633	0.017	n/a	GoodResponse	0	n/a	n/a	0	32	Cue	AvoidedLoss	True
309.567	4.15	Lose2	0.6061	0.0	Yes	2.633	0.0	n/a	GoodResponse	0	n/a	n/a	0	32	Fixation	AvoidedLoss	True
313.713	0.25	Lose2	0.6061	0.004	Yes	2.633	-0.004	1.0	GoodResponse	0	0.249	312.962	0	32	Target	AvoidedLoss	True
313.962	0.3	Lose2	0.6061	0.004	Yes	2.633	-0.004	1.0	GoodResponse	0	0.249	n/a	0	32	ButtonPress	AvoidedLoss	True
313.964	0.45	Lose2	0.6061	n/a	Yes	2.633	n/a	n/a	GoodResponse	0	n/a	n/a	0	32	Blank	AvoidedLoss	True
314.415	1.45	Lose2	0.6061	n/a	Yes	2.633	n/a	5.0	GoodResponse	0	0.044	313.459	0	32	Feedback	AvoidedLoss	True
315.869	2.633	Lose2	0.6061	n/a	Yes	2.633	n/a	n/a	GoodResponse	0	0.0	n/a	0	32	ISIslide	AvoidedLoss	True
318.527	0.25	Win2	0.6175999999999999	0.0	Yes	2.673	0.027	n/a	GoodResponse	1	n/a	n/a	1	33	Cue	Win	True
318.778	4.0	Win2	0.6175999999999999	0.0	Yes	2.673	0.001	n/a	GoodResponse	1	n/a	n/a	1	33	Fixation	Win	True
322.773	0.26	Win2	0.6175999999999999	0.004	Yes	2.673	-0.004	1.0	GoodResponse	1	0.188	321.961	1	33	Target	Win	True
322.961	0.3	Win2	0.6175999999999999	0.004	Yes	2.673	-0.004	1.0	GoodResponse	1	0.188	n/a	1	33	ButtonPress	Win	True
323.041	0.44	Win2	0.6175999999999999	n/a	Yes	2.673	n/a	n/a	GoodResponse	1	n/a	n/a	1	33	Blank	Win	True
323.476	1.45	Win2	0.6175999999999999	n/a	Yes	2.673	n/a	5.0	GoodResponse	1	0.007	322.483	1	33	Feedback	Win	True
324.93	2.673	Win2	0.6175999999999999	n/a	Yes	2.673	n/a	n/a	GoodResponse	1	0.0	n/a	1	33	ISIslide	Win	True
327.621	0.25	Lose2	0.6286	0.0	Yes	2.629	0.021	n/a	GoodResponse	0	n/a	n/a	1	34	Cue	AvoidedLoss	True
327.872	4.05	Lose2	0.6286	0.0	Yes	2.629	0.001	n/a	GoodResponse	0	n/a	n/a	1	34	Fixation	AvoidedLoss	True
331.917	0.27	Lose2	0.6286	0.004	Yes	2.629	-0.004	1.0	GoodResponse	0	0.207	331.124	1	34	Target	AvoidedLoss	True
332.124	0.3	Lose2	0.6286	0.004	Yes	2.629	-0.004	1.0	GoodResponse	0	0.207	n/a	1	34	ButtonPress	AvoidedLoss	True
332.202	0.43	Lose2	0.6286	n/a	Yes	2.629	n/a	n/a	GoodResponse	0	n/a	n/a	1	34	Blank	AvoidedLoss	True
332.62	1.45	Lose2	0.6286	n/a	Yes	2.629	n/a	5.0	GoodResponse	0	0.034	331.654	1	34	Feedback	AvoidedLoss	True
334.074	2.629	Lose2	0.6286	n/a	Yes	2.629	n/a	n/a	GoodResponse	0	0.0	n/a	1	34	ISIslide	AvoidedLoss	True
336.715	0.25	Lose2	0.6111	0.0	No	2.685	0.015	n/a	NoResponse	-1	n/a	n/a	0	35	Cue	Loss	False
336.966	4.0	Lose2	0.6111	0.0	No	2.685	0.001	n/a	NoResponse	-1	n/a	n/a	0	35	Fixation	Loss	False
340.961	0.28	Lose2	0.6111	0.004	No	2.685	-0.004	n/a	NoResponse	-1	n/a	n/a	0	35	Target	Loss	False
341.245	0.42	Lose2	0.6111	n/a	No	2.685	n/a	n/a	NoResponse	-1	n/a	n/a	0	35	Blank	Loss	False
341.663	1.45	Lose2	0.6111	n/a	No	2.685	n/a	5.0	NoResponse	-1	0.016	340.679	0	35	Feedback	Loss	False
343.118	2.685	Lose2	0.6111	n/a	No	2.685	n/a	n/a	NoResponse	-1	0.0	n/a	0	35	ISIslide	Loss	False
345.826	0.25	Control	0.5946	0.0	No	2.674	0.026	n/a	LatePress	0	n/a	n/a	0	36	Cue	Neutral	True
346.076	4.0	Control	0.5946	0.001	No	2.674	0.0	n/a	LatePress	0	n/a	n/a	0	36	Fixation	Neutral	True
350.072	0.29	Control	0.5946	0.004	No	2.674	-0.004	1.0	LatePress	0	0.29	349.362	0	36	Target	Neutral	True
350.362	0.3	Control	0.5946	0.004	No	2.674	-0.004	1.0	LatePress	0	0.29	n/a	0	36	ButtonPress	Neutral	True
350.373	0.41	Control	0.5946	n/a	No	2.674	n/a	n/a	LatePress	0	n/a	n/a	0	36	Blank	Neutral	True
350.774	1.45	Control	0.5946	n/a	No	2.674	n/a	5.0	LatePress	0	0.026	349.8	0	36	Feedback	Neutral	True
352.228	2.674	Control	0.5946	n/a	No	2.674	n/a	n/a	LatePress	0	0.0	n/a	0	36	ISIslide	Neutral	True
354.92	0.25	Win2	0.5789	0.0	No	2.88	0.02	n/a	NoResponse	0	n/a	n/a	0	37	Cue	MissedWin	True
355.17	4.0	Win2	0.5789	0.0	No	2.88	0.0	n/a	NoResponse	0	n/a	n/a	0	37	Fixation	MissedWin	True
359.166	0.3	Win2	0.5789	0.004	No	2.88	-0.004	1.0	NoResponse	0	0.304	358.47	0	37	Target	MissedWin	True
359.466	0.4	Win2	0.5789	n/a	No	2.88	n/a	n/a	NoResponse	0	n/a	n/a	0	37	Blank	MissedWin	True
359.47	0.3	Win2	0.5789	0.004	No	2.88	-0.004	1.0	NoResponse	0	0.304	n/a	0	37	ButtonPress	MissedWin	True
359.868	1.45	Win2	0.5789	n/a	No	2.88	n/a	5.0	NoResponse	0	0.006	358.874	0	37	Feedback	MissedWin	True
361.322	2.88	Win2	0.5789	n/a	No	2.88	n/a	n/a	NoResponse	0	0.0	n/a	0	37	ISIslide	MissedWin	True
364.231	0.25	Lose2	0.5640999999999999	0.0	No	2.819	0.031	n/a	NoResponse	-1	n/a	n/a	-1	38	Cue	Loss	True
364.481	3.95	Lose2	0.5640999999999999	0.001	No	2.819	0.0	n/a	NoResponse	-1	n/a	n/a	-1	38	Fixation	Loss	True
368.427	0.31	Lose2	0.5640999999999999	0.004	No	2.819	-0.004	1.0	NoResponse	-1	0.387	367.814	-1	38	Target	Loss	True
368.744	0.39	Lose2	0.5640999999999999	n/a	No	2.819	n/a	n/a	NoResponse	-1	n/a	n/a	-1	38	Blank	Loss	True
368.814	0.3	Lose2	0.5640999999999999	0.004	No	2.819	-0.004	1.0	NoResponse	-1	0.387	n/a	-1	38	ButtonPress	Loss	True
369.129	1.45	Lose2	0.5640999999999999	n/a	No	2.819	n/a	5.0	NoResponse	-1	0.012	368.141	-1	38	Feedback	Loss	True
370.583	2.819	Lose2	0.5640999999999999	n/a	No	2.819	n/a	n/a	NoResponse	-1	0.0	n/a	-1	38	ISIslide	Loss	True
373.425	0.25	Win2	0.575	0.0	Yes	2.975	0.025	n/a	GoodResponse	1	n/a	n/a	0	39	Cue	Win	True
373.676	4.1	Win2	0.575	0.0	Yes	2.975	0.001	n/a	GoodResponse	1	n/a	n/a	0	39	Fixation	Win	True
377.771	0.32	Win2	0.575	0.004	Yes	2.975	-0.004	1.0	GoodResponse	1	0.226	376.997	0	39	Target	Win	True
377.997	0.3	Win2	0.575	0.004	Yes	2.975	-0.004	1.0	GoodResponse	1	0.226	n/a	0	39	ButtonPress	Win	True
378.106	0.38	Win2	0.575	n/a	Yes	2.975	n/a	n/a	GoodResponse	1	n/a	n/a	0	39	Blank	Win	True
378.473	1.45	Win2	0.575	n/a	Yes	2.975	n/a	5.0	GoodResponse	1	0.034	377.507	0	39	Feedback	Win	True
379.928	2.975	Win2	0.575	n/a	Yes	2.975	n/a	n/a	GoodResponse	1	0.0	n/a	0	39	ISIslide	Win	True
382.92	0.25	Win2	0.5854	0.0	Yes	2.73	0.02	n/a	GoodResponse	1	n/a	n/a	1	40	Cue	Win	True
383.171	3.95	Win2	0.5854	0.0	Yes	2.73	0.001	n/a	GoodResponse	1	n/a	n/a	1	40	Fixation	Win	True
387.116	0.33	Win2	0.5854	0.004	Yes	2.73	-0.004	1.0	GoodResponse	1	0.215	386.331	1	40	Target	Win	True
387.331	0.3	Win2	0.5854	0.004	Yes	2.73	-0.004	1.0	GoodResponse	1	0.215	n/a	1	40	ButtonPress	Win	True
387.45	0.37	Win2	0.5854	n/a	Yes	2.73	n/a	n/a	GoodResponse	1	n/a	n/a	1	40	Blank	Win	True
387.818	1.45	Win2	0.5854	n/a	Yes	2.73	n/a	5.0	GoodResponse	1	0.006	386.824	1	40	Feedback	Win	True
389.272	2.73	Win2	0.5854	n/a	Yes	2.73	n/a	n/a	GoodResponse	1	0.0	n/a	1	40	ISIslide	Win	True
392.031	0.25	Win2	0.5952000000000001	0.0	Yes	2.769	0.031	n/a	GoodResponse	1	n/a	n/a	2	41	Cue	Win	True
392.281	3.9	Win2	0.5952000000000001	0.0	Yes	2.769	0.0	n/a	GoodResponse	1	n/a	n/a	2	41	Fixation	Win	True
396.193	0.34	Win2	0.5952000000000001	0.0	Yes	2.769	0.012	1.0	GoodResponse	1	0.225	395.418	2	41	Target	Win	True
396.418	0.3	Win2	0.5952000000000001	0.0	Yes	2.769	0.012	1.0	GoodResponse	1	0.225	n/a	2	41	ButtonPress	Win	True
396.527	0.36	Win2	0.5952000000000001	n/a	Yes	2.769	n/a	n/a	GoodResponse	1	n/a	n/a	2	41	Blank	Win	True
396.878	1.45	Win2	0.5952000000000001	n/a	Yes	2.769	n/a	5.0	GoodResponse	1	0.019	395.897	2	41	Feedback	Win	True
398.333	2.769	Win2	0.5952000000000001	n/a	Yes	2.769	n/a	n/a	GoodResponse	1	0.0	n/a	2	41	ISIslide	Win	True
401.124	0.25	Control	0.6047	0.0	Yes	2.926	0.024	n/a	GoodResponse	0	n/a	n/a	2	42	Cue	Neutral	True
401.375	3.85	Control	0.6047	0.0	Yes	2.926	0.001	n/a	GoodResponse	0	n/a	n/a	2	42	Fixation	Neutral	True
405.22	0.35	Control	0.6047	0.004	Yes	2.926	-0.004	1.0	GoodResponse	0	0.23	404.45	2	42	Target	Neutral	True
405.45	0.3	Control	0.6047	0.004	Yes	2.926	-0.004	1.0	GoodResponse	0	0.23	n/a	2	42	ButtonPress	Neutral	True
405.571	0.35	Control	0.6047	n/a	Yes	2.926	n/a	n/a	GoodResponse	0	n/a	n/a	2	42	Blank	Neutral	True
405.922	1.45	Control	0.6047	n/a	Yes	2.926	n/a	5.0	GoodResponse	0	0.048	404.97	2	42	Feedback	Neutral	True
407.376	2.926	Control	0.6047	n/a	Yes	2.926	n/a	n/a	GoodResponse	0	0.0	n/a	2	42	ISIslide	Neutral	True
410.319	0.25	Win2	0.5909	0.0	No	3.181	0.019	n/a	NoResponse	0	n/a	n/a	2	43	Cue	MissedWin	False
410.569	4.0	Win2	0.5909	0.0	No	3.181	0.0	1.0	NoResponse	0	3.919	413.488	2	43	Fixation	MissedWin	False
414.488	0.3	Win2	0.5909	0.0	No	3.181	0.0	1.0	NoResponse	0	3.919	n/a	2	43	ButtonPress	MissedWin	False
414.565	0.36	Win2	0.5909	0.004	No	3.181	-0.004	1.0	NoResponse	0	0.457	414.022	2	43	Target	MissedWin	False
414.932	0.34	Win2	0.5909	n/a	No	3.181	n/a	n/a	NoResponse	0	n/a	n/a	2	43	Blank	MissedWin	False
415.022	0.3	Win2	0.5909	0.004	No	3.181	-0.004	1.0	NoResponse	0	0.457	n/a	2	43	ButtonPress	MissedWin	False
415.267	1.45	Win2	0.5909	n/a	No	3.181	n/a	5.0	NoResponse	0	0.02	414.287	2	43	Feedback	MissedWin	False
416.721	3.181	Win2	0.5909	n/a	No	3.181	n/a	n/a	NoResponse	0	0.0	n/a	2	43	ISIslide	MissedWin	False
419.931	0.25	Win2	0.5778	0.0	No	2.969	0.031	n/a	NoResponse	0	n/a	n/a	2	44	Cue	MissedWin	True
420.181	4.0	Win2	0.5778	0.0	No	2.969	0.0	n/a	NoResponse	0	n/a	n/a	2	44	Fixation	MissedWin	True
424.177	0.37	Win2	0.5778	0.004	No	2.969	-0.004	1.0	NoResponse	0	0.611	423.788	2	44	Target	MissedWin	True
424.561	0.33	Win2	0.5778	n/a	No	2.969	n/a	n/a	NoResponse	0	n/a	n/a	2	44	Blank	MissedWin	True
424.788	0.3	Win2	0.5778	0.004	No	2.969	-0.004	1.0	NoResponse	0	0.611	n/a	2	44	ButtonPress	MissedWin	True
424.879	1.45	Win2	0.5778	n/a	No	2.969	n/a	5.0	NoResponse	0	0.018	423.897	2	44	Feedback	MissedWin	True
426.333	2.969	Win2	0.5778	n/a	No	2.969	n/a	n/a	NoResponse	0	0.0	n/a	2	44	ISIslide	MissedWin	True
429.325	0.25	Control	0.5870000000000001	0.0	Yes	2.875	0.025	n/a	GoodResponse	0	n/a	n/a	2	45	Cue	Neutral	False
429.576	4.1	Control	0.5870000000000001	0.0	Yes	2.875	0.001	1.0	GoodResponse	0	2.178	430.754	2	45	Fixation	Neutral	False
431.754	0.3	Control	0.5870000000000001	0.0	Yes	2.875	0.001	1.0	GoodResponse	0	2.178	n/a	2	45	ButtonPress	Neutral	False
433.672	0.38	Control	0.5870000000000001	0.003	Yes	2.875	-0.003	1.0	GoodResponse	0	0.145	432.817	2	45	Target	Neutral	False
433.817	0.3	Control	0.5870000000000001	0.003	Yes	2.875	-0.003	1.0	GoodResponse	0	0.145	n/a	2	45	ButtonPress	Neutral	False
434.056	0.32	Control	0.5870000000000001	n/a	Yes	2.875	n/a	n/a	GoodResponse	0	n/a	n/a	2	45	Blank	Neutral	False
434.374	1.45	Control	0.5870000000000001	n/a	Yes	2.875	n/a	5.0	GoodResponse	0	0.034	433.408	2	45	Feedback	Neutral	False
435.828	2.875	Control	0.5870000000000001	n/a	Yes	2.875	n/a	n/a	GoodResponse	0	0.0	n/a	2	45	ISIslide	Neutral	False
438.72	0.25	Lose2	0.5957	0.0	Yes	3.38	0.02	n/a	GoodResponse	0	n/a	n/a	2	46	Cue	AvoidedLoss	True
438.971	4.0	Lose2	0.5957	0.0	Yes	3.38	0.001	n/a	GoodResponse	0	n/a	n/a	2	46	Fixation	AvoidedLoss	True
442.966	0.39	Lose2	0.5957	0.004	Yes	3.38	-0.004	1.0	GoodResponse	0	0.239	442.205	2	46	Target	AvoidedLoss	True
443.205	0.3	Lose2	0.5957	0.004	Yes	3.38	-0.004	1.0	GoodResponse	0	0.239	n/a	2	46	ButtonPress	AvoidedLoss	True
443.367	0.31	Lose2	0.5957	n/a	Yes	3.38	n/a	n/a	GoodResponse	0	n/a	n/a	2	46	Blank	AvoidedLoss	True
443.668	1.45	Lose2	0.5957	n/a	Yes	3.38	n/a	5.0	GoodResponse	0	0.009	442.677	2	46	Feedback	AvoidedLoss	True
445.123	3.38	Lose2	0.5957	n/a	Yes	3.38	n/a	n/a	GoodResponse	0	0.0	n/a	2	46	ISIslide	AvoidedLoss	True
448.516	0.25	Lose2	0.5832999999999999	0.0	No	2.684	0.016	n/a	NoResponse	-1	n/a	n/a	1	47	Cue	Loss	False
448.767	4.0	Lose2	0.5832999999999999	0.0	No	2.684	0.001	n/a	NoResponse	-1	n/a	n/a	1	47	Fixation	Loss	False
452.762	0.4	Lose2	0.5832999999999999	0.004	No	2.684	-0.004	n/a	NoResponse	-1	n/a	n/a	1	47	Target	Loss	False
453.163	0.3	Lose2	0.5832999999999999	n/a	No	2.684	n/a	n/a	NoResponse	-1	n/a	n/a	1	47	Blank	Loss	False
453.464	1.45	Lose2	0.5832999999999999	n/a	No	2.684	n/a	5.0	NoResponse	-1	0.018	452.482	1	47	Feedback	Loss	False
454.919	2.684	Lose2	0.5832999999999999	n/a	No	2.684	n/a	n/a	NoResponse	-1	0.0	n/a	1	47	ISIslide	Loss	False
457.627	0.25	Lose2	0.5918	0.0	Yes	3.023	0.027	n/a	GoodResponse	0	n/a	n/a	1	48	Cue	AvoidedLoss	True
457.877	3.95	Lose2	0.5918	0.0	Yes	3.023	0.0	n/a	GoodResponse	0	n/a	n/a	1	48	Fixation	AvoidedLoss	True
461.823	0.41	Lose2	0.5918	0.004	Yes	3.023	-0.004	1.0	GoodResponse	0	0.378	461.201	1	48	Target	AvoidedLoss	True
462.201	0.3	Lose2	0.5918	0.004	Yes	3.023	-0.004	1.0	GoodResponse	0	0.378	n/a	1	48	ButtonPress	AvoidedLoss	True
462.24	0.29	Lose2	0.5918	n/a	Yes	3.023	n/a	n/a	GoodResponse	0	n/a	n/a	1	48	Blank	AvoidedLoss	True
462.525	1.45	Lose2	0.5918	n/a	Yes	3.023	n/a	5.0	GoodResponse	0	0.03	461.555	1	48	Feedback	AvoidedLoss	True
463.979	3.023	Lose2	0.5918	n/a	Yes	3.023	n/a	n/a	GoodResponse	0	0.0	n/a	1	48	ISIslide	AvoidedLoss	True
467.021	0.25	Control	0.58	0.0	No	2.879	0.021	n/a	NoResponse	0	n/a	n/a	1	49	Cue	Neutral	False
467.272	4.0	Control	0.58	0.0	No	2.879	0.001	n/a	NoResponse	0	n/a	n/a	1	49	Fixation	Neutral	False
471.267	0.42	Control	0.58	0.004	No	2.879	-0.004	n/a	NoResponse	0	n/a	n/a	1	49	Target	Neutral	False
471.702	0.28	Control	0.58	n/a	No	2.879	n/a	n/a	NoResponse	0	n/a	n/a	1	49	Blank	Neutral	False
471.97	1.45	Control	0.58	n/a	No	2.879	n/a	5.0	NoResponse	0	0.048	471.018	1	49	Feedback	Neutral	False
473.424	2.879	Control	0.58	n/a	No	2.879	n/a	n/a	NoResponse	0	0.0	n/a	1	49	ISIslide	Neutral	False
476.316	0.25	Control	0.5882000000000001	0.0	Yes	2.784	0.016	n/a	GoodResponse	0	n/a	n/a	1	50	Cue	Neutral	True
476.567	4.0	Control	0.5882000000000001	0.0	Yes	2.784	0.001	n/a	GoodResponse	0	n/a	n/a	1	50	Fixation	Neutral	True
480.562	0.43	Control	0.5882000000000001	0.004	Yes	2.784	-0.004	1.0	GoodResponse	0	0.221	479.783	1	50	Target	Neutral	True
480.783	0.3	Control	0.5882000000000001	0.004	Yes	2.784	-0.004	1.0	GoodResponse	0	0.221	n/a	1	50	ButtonPress	Neutral	True
480.997	0.27	Control	0.5882000000000001	n/a	Yes	2.784	n/a	n/a	GoodResponse	0	n/a	n/a	1	50	Blank	Neutral	True
481.264	1.45	Control	0.5882000000000001	n/a	Yes	2.784	n/a	5.0	GoodResponse	0	0.022	480.286	1	50	Feedback	Neutral	True
482.718	2.784	Control	0.5882000000000001	n/a	Yes	2.784	n/a	n/a	GoodResponse	0	0.0	n/a	1	50	ISIslide	Neutral	True
485.527	0.25	Control	0.5962	0.0	Yes	2.723	0.027	n/a	GoodResponse	0	n/a	n/a	1	51	Cue	Neutral	True
485.777	3.95	Control	0.5962	0.001	Yes	2.723	0.0	n/a	GoodResponse	0	n/a	n/a	1	51	Fixation	Neutral	True
489.723	0.44	Control	0.5962	0.004	Yes	2.723	-0.004	1.0	GoodResponse	0	0.242	488.965	1	51	Target	Neutral	True
489.965	0.3	Control	0.5962	0.004	Yes	2.723	-0.004	1.0	GoodResponse	0	0.242	n/a	1	51	ButtonPress	Neutral	True
490.174	0.26	Control	0.5962	n/a	Yes	2.723	n/a	n/a	GoodResponse	0	n/a	n/a	1	51	Blank	Neutral	True
490.425	1.45	Control	0.5962	n/a	Yes	2.723	n/a	5.0	GoodResponse	0	0.032	489.457	1	51	Feedback	Neutral	True
491.879	2.723	Control	0.5962	n/a	Yes	2.723	n/a	n/a	GoodResponse	0	0.0	n/a	1	51	ISIslide	Neutral	True
494.621	0.25	Control	0.6038	0.0	Yes	2.629	0.021	n/a	GoodResponse	0	n/a	n/a	1	52	Cue	Neutral	True
494.871	4.05	Control	0.6038	0.0	Yes	2.629	0.0	n/a	GoodResponse	0	n/a	n/a	1	52	Fixation	Neutral	True
498.917	0.45	Control	0.6038	0.004	Yes	2.629	-0.004	1.0	GoodResponse	0	0.436	498.353	1	52	Target	Neutral	True
499.353	0.3	Control	0.6038	0.004	Yes	2.629	-0.004	1.0	GoodResponse	0	0.436	n/a	1	52	ButtonPress	Neutral	True
499.368	0.25	Control	0.6038	n/a	Yes	2.629	n/a	n/a	GoodResponse	0	n/a	n/a	1	52	Blank	Neutral	True
499.619	1.45	Control	0.6038	n/a	Yes	2.629	n/a	5.0	GoodResponse	0	0.009	498.628	1	52	Feedback	Neutral	True
501.073	2.629	Control	0.6038	n/a	Yes	2.629	n/a	n/a	GoodResponse	0	0.0	n/a	1	52	ISIslide	Neutral	True
503.731	0.25	Win2	0.5926	0.0	No	2.919	0.031	n/a	NoResponse	0	n/a	n/a	1	53	Cue	MissedWin	False
503.982	4.05	Win2	0.5926	0.0	No	2.919	0.001	n/a	NoResponse	0	n/a	n/a	1	53	Fixation	MissedWin	False
508.027	0.46	Win2	0.5926	0.004	No	2.919	-0.004	n/a	NoResponse	0	n/a	n/a	1	53	Target	MissedWin	False
508.495	0.24	Win2	0.5926	n/a	No	2.919	n/a	n/a	NoResponse	0	n/a	n/a	1	53	Blank	MissedWin	False
508.729	1.45	Win2	0.5926	n/a	No	2.919	n/a	5.0	NoResponse	0	0.021	507.75	1	53	Feedback	MissedWin	False
510.184	2.919	Win2	0.5926	n/a	No	2.919	n/a	n/a	NoResponse	0	0.0	n/a	1	53	ISIslide	MissedWin	False
513.126	0.25	Win2	0.5818	0.0	No	2.724	0.026	n/a	NoResponse	0	n/a	n/a	1	54	Cue	MissedWin	False
513.377	3.95	Win2	0.5818	0.0	No	2.724	0.001	n/a	NoResponse	0	n/a	n/a	1	54	Fixation	MissedWin	False
517.322	0.47	Win2	0.5818	0.004	No	2.724	-0.004	n/a	NoResponse	0	n/a	n/a	1	54	Target	MissedWin	False
517.807	0.23	Win2	0.5818	n/a	No	2.724	n/a	n/a	NoResponse	0	n/a	n/a	1	54	Blank	MissedWin	False
518.024	1.45	Win2	0.5818	n/a	No	2.724	n/a	5.0	NoResponse	0	0.042	517.066	1	54	Feedback	MissedWin	False
519.478	2.724	Win2	0.5818	n/a	No	2.724	n/a	n/a	NoResponse	0	0.0	n/a	1	54	ISIslide	MissedWin	False
522.22	0.25	Control	0.5893	0.0	Yes	3.03	0.02	n/a	GoodResponse	0	n/a	n/a	1	55	Cue	Neutral	True
522.471	3.95	Control	0.5893	0.0	Yes	3.03	0.001	n/a	GoodResponse	0	n/a	n/a	1	55	Fixation	Neutral	True
526.416	0.48	Control	0.5893	0.004	Yes	3.03	-0.004	1.0	GoodResponse	0	0.25	525.666	1	55	Target	Neutral	True
526.666	0.3	Control	0.5893	0.004	Yes	3.03	-0.004	1.0	GoodResponse	0	0.25	n/a	1	55	ButtonPress	Neutral	True
526.9	0.22	Control	0.5893	n/a	Yes	3.03	n/a	n/a	GoodResponse	0	n/a	n/a	1	55	Blank	Neutral	True
527.118	1.45	Control	0.5893	n/a	Yes	3.03	n/a	5.0	GoodResponse	0	0.021	526.139	1	55	Feedback	Neutral	True
528.572	3.03	Control	0.5893	n/a	Yes	3.03	n/a	n/a	GoodResponse	0	0.0	n/a	1	55	ISIslide	Neutral	True
531.615	0.25	Control	0.5965	0.0	Yes	2.835	0.015	n/a	GoodResponse	0	n/a	n/a	1	56	Cue	Neutral	False
531.865	3.95	Control	0.5965	0.0	Yes	2.835	0.0	1.0	GoodResponse	0	0.054	530.919	1	56	Fixation	Neutral	False
531.919	0.3	Control	0.5965	0.0	Yes	2.835	0.0	1.0	GoodResponse	0	0.054	n/a	1	56	ButtonPress	Neutral	False
535.827	0.49	Control	0.5965	0.0	Yes	2.835	0.012	1.0	GoodResponse	0	0.283	535.11	1	56	Target	Neutral	False
536.11	0.3	Control	0.5965	0.0	Yes	2.835	0.012	1.0	GoodResponse	0	0.283	n/a	1	56	ButtonPress	Neutral	False
536.312	0.21	Control	0.5965	n/a	Yes	2.835	n/a	n/a	GoodResponse	0	n/a	n/a	1	56	Blank	Neutral	False
536.512	1.45	Control	0.5965	n/a	Yes	2.835	n/a	5.0	GoodResponse	0	0.042	535.554	1	56	Feedback	Neutral	False
537.967	2.835	Control	0.5965	n/a	Yes	2.835	n/a	n/a	GoodResponse	0	0.0	n/a	1	56	ISIslide	Neutral	False
540.825	0.25	Control	0.6034	0.0	Yes	3.475	0.025	n/a	GoodResponse	0	n/a	n/a	1	57	Cue	Neutral	True
541.076	4.0	Control	0.6034	0.0	Yes	3.475	0.001	n/a	GoodResponse	0	n/a	n/a	1	57	Fixation	Neutral	True
545.071	0.5	Control	0.6034	0.004	Yes	3.475	-0.004	1.0	GoodResponse	0	0.195	544.266	1	57	Target	Neutral	True
545.266	0.3	Control	0.6034	0.004	Yes	3.475	-0.004	1.0	GoodResponse	0	0.195	n/a	1	57	ButtonPress	Neutral	True
545.573	0.2	Control	0.6034	n/a	Yes	3.475	n/a	n/a	GoodResponse	0	n/a	n/a	1	57	Blank	Neutral	True
545.774	1.45	Control	0.6034	n/a	Yes	3.475	n/a	5.0	GoodResponse	0	0.048	544.822	1	57	Feedback	Neutral	True
547.228	3.475	Control	0.6034	n/a	Yes	3.475	n/a	n/a	GoodResponse	0	0.0	n/a	1	57	ISIslide	Neutral	True
550.722	0.25	Win2	0.5932	0.0	No	2.728	0.022	n/a	NoResponse	0	n/a	n/a	1	58	Cue	MissedWin	False
550.972	4.05	Win2	0.5932	0.0	No	2.728	0.0	n/a	NoResponse	0	n/a	n/a	1	58	Fixation	MissedWin	False
555.018	0.5	Win2	0.5932	0.004	No	2.728	-0.004	n/a	NoResponse	0	n/a	n/a	1	58	Target	MissedWin	False
555.519	0.2	Win2	0.5932	n/a	No	2.728	n/a	n/a	NoResponse	0	n/a	n/a	1	58	Blank	MissedWin	False
555.72	1.45	Win2	0.5932	n/a	No	2.728	n/a	5.0	NoResponse	0	0.007	554.727	1	58	Feedback	MissedWin	False
557.174	2.728	Win2	0.5932	n/a	No	2.728	n/a	n/a	NoResponse	0	0.0	n/a	1	58	ISIslide	MissedWin	False
559.916	0.25	Lose2	0.6	0.0	Yes	2.684	0.016	n/a	GoodResponse	0	n/a	n/a	1	59	Cue	AvoidedLoss	True
560.167	4.0	Lose2	0.6	0.0	Yes	2.684	0.001	n/a	GoodResponse	0	n/a	n/a	1	59	Fixation	AvoidedLoss	True
564.162	0.5	Lose2	0.6	0.004	Yes	2.684	-0.004	1.0	GoodResponse	0	0.228	563.39	1	59	Target	AvoidedLoss	True
564.39	0.3	Lose2	0.6	0.004	Yes	2.684	-0.004	1.0	GoodResponse	0	0.228	n/a	1	59	ButtonPress	AvoidedLoss	True
564.663	0.2	Lose2	0.6	n/a	Yes	2.684	n/a	n/a	GoodResponse	0	n/a	n/a	1	59	Blank	AvoidedLoss	True
564.864	1.45	Lose2	0.6	n/a	Yes	2.684	n/a	5.0	GoodResponse	0	0.031	563.895	1	59	Feedback	AvoidedLoss	True
566.318	2.684	Lose2	0.6	n/a	Yes	2.684	n/a	n/a	GoodResponse	0	0.0	n/a	1	59	ISIslide	AvoidedLoss	True
569.026	0.25	Control	0.6065999999999999	0.0	Yes	2.674	0.026	n/a	GoodResponse	0	n/a	n/a	1	60	Cue	Neutral	True
569.277	4.0	Control	0.6065999999999999	0.0	Yes	2.674	0.001	n/a	GoodResponse	0	n/a	n/a	1	60	Fixation	Neutral	True
573.272	0.5	Control	0.6065999999999999	0.004	Yes	2.674	-0.004	1.0	GoodResponse	0	0.294	572.566	1	60	Target	Neutral	True
573.566	0.3	Control	0.6065999999999999	0.004	Yes	2.674	-0.004	1.0	GoodResponse	0	0.294	n/a	1	60	ButtonPress	Neutral	True
573.774	0.2	Control	0.6065999999999999	n/a	Yes	2.674	n/a	n/a	GoodResponse	0	n/a	n/a	1	60	Blank	Neutral	True
573.974	1.45	Control	0.6065999999999999	n/a	Yes	2.674	n/a	5.0	GoodResponse	0	0.043	573.017	1	60	Feedback	Neutral	True
575.429	2.674	Control	0.6065999999999999	n/a	Yes	2.674	n/a	n/a	GoodResponse	0	0.0	n/a	1	60	ISIslide	Neutral	True
578.12	0.25	Lose2	0.6129	0.0	Yes	2.98	0.02	n/a	GoodResponse	0	n/a	n/a	1	61	Cue	AvoidedLoss	True
578.371	4.0	Lose2	0.6129	0.0	Yes	2.98	0.001	n/a	GoodResponse	0	n/a	n/a	1	61	Fixation	AvoidedLoss	True
582.366	0.5	Lose2	0.6129	0.004	Yes	2.98	-0.004	1.0	GoodResponse	0	0.252	581.618	1	61	Target	AvoidedLoss	True
582.618	0.3	Lose2	0.6129	0.004	Yes	2.98	-0.004	1.0	GoodResponse	0	0.252	n/a	1	61	ButtonPress	AvoidedLoss	True
582.868	0.2	Lose2	0.6129	n/a	Yes	2.98	n/a	n/a	GoodResponse	0	n/a	n/a	1	61	Blank	AvoidedLoss	True
583.068	1.45	Lose2	0.6129	n/a	Yes	2.98	n/a	5.0	GoodResponse	0	0.022	582.09	1	61	Feedback	AvoidedLoss	True
584.523	2.98	Lose2	0.6129	n/a	Yes	2.98	n/a	n/a	GoodResponse	0	0.0	n/a	1	61	ISIslide	AvoidedLoss	True
587.515	0.25	Lose2	0.619	0.0	Yes	2.885	0.015	n/a	GoodResponse	0	n/a	n/a	1	62	Cue	AvoidedLoss	True
587.766	3.9	Lose2	0.619	0.0	Yes	2.885	0.001	n/a	GoodResponse	0	n/a	n/a	1	62	Fixation	AvoidedLoss	True
591.661	0.5	Lose2	0.619	0.004	Yes	2.885	-0.004	1.0	GoodResponse	0	0.481	591.142	1	62	Target	AvoidedLoss	True
592.142	0.3	Lose2	0.619	0.004	Yes	2.885	-0.004	1.0	GoodResponse	0	0.481	n/a	1	62	ButtonPress	AvoidedLoss	True
592.162	0.2	Lose2	0.619	n/a	Yes	2.885	n/a	n/a	GoodResponse	0	n/a	n/a	1	62	Blank	AvoidedLoss	True
592.363	1.45	Lose2	0.619	n/a	Yes	2.885	n/a	5.0	GoodResponse	0	0.044	591.407	1	62	Feedback	AvoidedLoss	True
593.817	2.885	Lose2	0.619	n/a	Yes	2.885	n/a	n/a	GoodResponse	0	0.0	n/a	1	62	ISIslide	AvoidedLoss	True
596.726	0.25	Lose2	0.625	0.0	Yes	2.624	0.026	n/a	GoodResponse	0	n/a	n/a	1	63	Cue	AvoidedLoss	True
596.977	4.05	Lose2	0.625	0.0	Yes	2.624	0.001	n/a	GoodResponse	0	n/a	n/a	1	63	Fixation	AvoidedLoss	True
601.022	0.5	Lose2	0.625	0.004	Yes	2.624	-0.004	1.0	GoodResponse	0	0.228	600.25	1	63	Target	AvoidedLoss	True
601.25	0.3	Lose2	0.625	0.004	Yes	2.624	-0.004	1.0	GoodResponse	0	0.228	n/a	1	63	ButtonPress	AvoidedLoss	True
601.524	0.2	Lose2	0.625	n/a	Yes	2.624	n/a	n/a	GoodResponse	0	n/a	n/a	1	63	Blank	AvoidedLoss	True
601.724	1.45	Lose2	0.625	n/a	Yes	2.624	n/a	5.0	GoodResponse	0	0.048	600.772	1	63	Feedback	AvoidedLoss	True
603.178	2.624	Lose2	0.625	n/a	Yes	2.624	n/a	n/a	GoodResponse	0	0.0	n/a	1	63	ISIslide	AvoidedLoss	True
605.82	0.25	Win2	0.6308	0.0	Yes	3.13	0.02	n/a	GoodResponse	1	n/a	n/a	2	64	Cue	Win	True
606.07	4.15	Win2	0.6308	0.001	Yes	3.13	0.0	n/a	GoodResponse	1	n/a	n/a	2	64	Fixation	Win	True
610.216	0.5	Win2	0.6308	0.004	Yes	3.13	-0.004	1.0	GoodResponse	1	0.214	609.43	2	64	Target	Win	True
610.43	0.3	Win2	0.6308	0.004	Yes	3.13	-0.004	1.0	GoodResponse	1	0.214	n/a	2	64	ButtonPress	Win	True
610.718	0.2	Win2	0.6308	n/a	Yes	3.13	n/a	n/a	GoodResponse	1	n/a	n/a	2	64	Blank	Win	True
610.918	1.45	Win2	0.6308	n/a	Yes	3.13	n/a	5.0	GoodResponse	1	0.025	609.943	2	64	Feedback	Win	True
612.373	3.13	Win2	0.6308	n/a	Yes	3.13	n/a	n/a	GoodResponse	1	0.0	n/a	2	64	ISIslide	Win	True
615.515	0.25	Control	0.6364	0.0	Yes	2.785	0.015	n/a	GoodResponse	0	n/a	n/a	2	65	Cue	Neutral	False
615.766	4.0	Control	0.6364	0.0	Yes	2.785	0.001	1.0	GoodResponse	0	1.861	616.627	2	65	Fixation	Neutral	False
617.627	0.3	Control	0.6364	0.0	Yes	2.785	0.001	1.0	GoodResponse	0	1.861	n/a	2	65	ButtonPress	Neutral	False
619.761	0.5	Control	0.6364	0.004	Yes	2.785	-0.004	1.0	GoodResponse	0	0.386	619.147	2	65	Target	Neutral	False
620.147	0.3	Control	0.6364	0.004	Yes	2.785	-0.004	1.0	GoodResponse	0	0.386	n/a	2	65	ButtonPress	Neutral	False
620.263	0.2	Control	0.6364	n/a	Yes	2.785	n/a	n/a	GoodResponse	0	n/a	n/a	2	65	Blank	Neutral	False
620.463	1.45	Control	0.6364	n/a	Yes	2.785	n/a	5.0	GoodResponse	0	0.041	619.504	2	65	Feedback	Neutral	False
621.918	2.785	Control	0.6364	n/a	Yes	2.785	n/a	n/a	GoodResponse	0	0.0	n/a	2	65	ISIslide	Neutral	False
624.726	0.25	Win2	0.6418	0.0	Yes	2.774	0.026	n/a	GoodResponse	1	n/a	n/a	3	66	Cue	Win	True
624.977	3.9	Win2	0.6418	0.0	Yes	2.774	0.001	n/a	GoodResponse	1	n/a	n/a	3	66	Fixation	Win	True
628.872	0.5	Win2	0.6418	0.004	Yes	2.774	-0.004	1.0	GoodResponse	1	0.292	628.164	3	66	Target	Win	True
629.164	0.3	Win2	0.6418	0.004	Yes	2.774	-0.004	1.0	GoodResponse	1	0.292	n/a	3	66	ButtonPress	Win	True
629.373	0.2	Win2	0.6418	n/a	Yes	2.774	n/a	n/a	GoodResponse	1	n/a	n/a	3	66	Blank	Win	True
629.574	1.45	Win2	0.6418	n/a	Yes	2.774	n/a	5.0	GoodResponse	1	0.007	628.581	3	66	Feedback	Win	True
631.028	2.774	Win2	0.6418	n/a	Yes	2.774	n/a	n/a	GoodResponse	1	0.0	n/a	3	66	ISIslide	Win	True
633.82	0.25	Control	0.6470999999999999	0.0	Yes	2.73	0.02	n/a	GoodResponse	0	n/a	n/a	3	67	Cue	Neutral	True
634.071	3.95	Control	0.6470999999999999	0.0	Yes	2.73	0.001	n/a	GoodResponse	0	n/a	n/a	3	67	Fixation	Neutral	True
638.016	0.5	Control	0.6470999999999999	0.004	Yes	2.73	-0.004	1.0	GoodResponse	0	0.256	637.272	3	67	Target	Neutral	True
638.272	0.3	Control	0.6470999999999999	0.004	Yes	2.73	-0.004	1.0	GoodResponse	0	0.256	n/a	3	67	ButtonPress	Neutral	True
638.517	0.2	Control	0.6470999999999999	n/a	Yes	2.73	n/a	n/a	GoodResponse	0	n/a	n/a	3	67	Blank	Neutral	True
638.718	1.45	Control	0.6470999999999999	n/a	Yes	2.73	n/a	5.0	GoodResponse	0	0.03	637.748	3	67	Feedback	Neutral	True
640.172	2.73	Control	0.6470999999999999	n/a	Yes	2.73	n/a	n/a	GoodResponse	0	0.0	n/a	3	67	ISIslide	Neutral	True
642.931	0.25	Win2	0.6377	0.0	No	3.069	0.031	n/a	NoResponse	0	n/a	n/a	3	68	Cue	MissedWin	False
643.181	4.0	Win2	0.6377	0.0	No	3.069	0.0	n/a	NoResponse	0	n/a	n/a	3	68	Fixation	MissedWin	False
647.177	0.5	Win2	0.6377	0.004	No	3.069	-0.004	n/a	NoResponse	0	n/a	n/a	3	68	Target	MissedWin	False
647.678	0.2	Win2	0.6377	n/a	No	3.069	n/a	n/a	NoResponse	0	n/a	n/a	3	68	Blank	MissedWin	False
647.879	1.45	Win2	0.6377	n/a	No	3.069	n/a	5.0	NoResponse	0	0.039	646.918	3	68	Feedback	MissedWin	False
649.333	3.069	Win2	0.6377	n/a	No	3.069	n/a	n/a	NoResponse	0	0.0	n/a	3	68	ISIslide	MissedWin	False
652.426	0.25	Win2	0.6429	0.0	Yes	3.224	0.026	n/a	GoodResponse	1	n/a	n/a	4	69	Cue	Win	True
652.676	3.95	Win2	0.6429	0.001	Yes	3.224	0.0	n/a	GoodResponse	1	n/a	n/a	4	69	Fixation	Win	True
656.622	0.5	Win2	0.6429	0.004	Yes	3.224	-0.004	1.0	GoodResponse	1	0.269	655.891	4	69	Target	Win	True
656.891	0.3	Win2	0.6429	0.004	Yes	3.224	-0.004	1.0	GoodResponse	1	0.269	n/a	4	69	ButtonPress	Win	True
657.123	0.2	Win2	0.6429	n/a	Yes	3.224	n/a	n/a	GoodResponse	1	n/a	n/a	4	69	Blank	Win	True
657.324	1.45	Win2	0.6429	n/a	Yes	3.224	n/a	5.0	GoodResponse	1	0.009	656.333	4	69	Feedback	Win	True
658.778	3.224	Win2	0.6429	n/a	Yes	3.224	n/a	n/a	GoodResponse	1	0.0	n/a	4	69	ISIslide	Win	True
662.021	0.25	Lose2	0.6338	0.0	No	3.029	0.021	n/a	NoResponse	-1	n/a	n/a	3	70	Cue	Loss	False
662.272	4.05	Lose2	0.6338	0.0	No	3.029	0.001	n/a	NoResponse	-1	n/a	n/a	3	70	Fixation	Loss	False
666.317	0.5	Lose2	0.6338	0.004	No	3.029	-0.004	n/a	NoResponse	-1	n/a	n/a	3	70	Target	Loss	False
666.819	0.2	Lose2	0.6338	n/a	No	3.029	n/a	n/a	NoResponse	-1	n/a	n/a	3	70	Blank	Loss	False
667.019	1.45	Lose2	0.6338	n/a	No	3.029	n/a	5.0	NoResponse	-1	0.021	666.04	3	70	Feedback	Loss	False
668.474	3.029	Lose2	0.6338	n/a	No	3.029	n/a	n/a	NoResponse	-1	0.0	n/a	3	70	ISIslide	Loss	False
671.516	0.25	Win2	0.625	0.0	No	2.734	0.016	n/a	NoResponse	0	n/a	n/a	3	71	Cue	MissedWin	False
671.767	4.05	Win2	0.625	0.0	No	2.734	0.001	n/a	NoResponse	0	n/a	n/a	3	71	Fixation	MissedWin	False
675.812	0.5	Win2	0.625	0.004	No	2.734	-0.004	n/a	NoResponse	0	n/a	n/a	3	71	Target	MissedWin	False
676.314	0.2	Win2	0.625	n/a	No	2.734	n/a	n/a	NoResponse	0	n/a	n/a	3	71	Blank	MissedWin	False
676.514	1.45	Win2	0.625	n/a	No	2.734	n/a	5.0	NoResponse	0	0.038	675.552	3	71	Feedback	MissedWin	False
677.969	2.734	Win2	0.625	n/a	No	2.734	n/a	n/a	NoResponse	0	0.0	n/a	3	71	ISIslide	MissedWin	False
680.727	0.25	Win2	0.6301	0.0	Yes	2.773	0.027	n/a	GoodResponse	1	n/a	n/a	4	72	Cue	Win	True
680.978	4.1	Win2	0.6301	0.0	Yes	2.773	0.001	n/a	GoodResponse	1	n/a	n/a	4	72	Fixation	Win	True
685.073	0.5	Win2	0.6301	0.004	Yes	2.773	-0.004	1.0	GoodResponse	1	0.242	684.315	4	72	Target	Win	True
685.315	0.3	Win2	0.6301	0.004	Yes	2.773	-0.004	1.0	GoodResponse	1	0.242	n/a	4	72	ButtonPress	Win	True
685.575	0.2	Win2	0.6301	n/a	Yes	2.773	n/a	n/a	GoodResponse	1	n/a	n/a	4	72	Blank	Win	True
685.775	1.45	Win2	0.6301	n/a	Yes	2.773	n/a	5.0	GoodResponse	1	0.046	684.821	4	72	Feedback	Win	True
687.23	2.773	Win2	0.6301	n/a	Yes	2.773	n/a	n/a	GoodResponse	1	0.0	n/a	4	72	ISIslide	Win	True
690.021	0.25	Win2	0.6351	0.001	Yes	2.679	0.021	n/a	GoodResponse	1	n/a	n/a	5	73	Cue	Win	True
690.272	4.0	Win2	0.6351	0.0	Yes	2.679	0.001	n/a	GoodResponse	1	n/a	n/a	5	73	Fixation	Win	True
694.268	0.5	Win2	0.6351	0.003	Yes	2.679	-0.003	1.0	GoodResponse	1	0.309	693.577	5	73	Target	Win	True
694.577	0.3	Win2	0.6351	0.003	Yes	2.679	-0.003	1.0	GoodResponse	1	0.309	n/a	5	73	ButtonPress	Win	True
694.769	0.2	Win2	0.6351	n/a	Yes	2.679	n/a	n/a	GoodResponse	1	n/a	n/a	5	73	Blank	Win	True
694.97	1.45	Win2	0.6351	n/a	Yes	2.679	n/a	5.0	GoodResponse	1	0.021	693.991	5	73	Feedback	Win	True
696.424	2.679	Win2	0.6351	n/a	Yes	2.679	n/a	n/a	GoodResponse	1	0.0	n/a	5	73	ISIslide	Win	True
699.115	0.25	Lose2	0.6267	0.0	No	2.635	0.015	n/a	NoResponse	-1	n/a	n/a	4	74	Cue	Loss	False
699.366	4.05	Lose2	0.6267	0.0	No	2.635	0.001	n/a	NoResponse	-1	n/a	n/a	4	74	Fixation	Loss	False
703.412	0.5	Lose2	0.6267	0.003	No	2.635	-0.003	n/a	NoResponse	-1	n/a	n/a	4	74	Target	Loss	False
703.913	0.2	Lose2	0.6267	n/a	No	2.635	n/a	n/a	NoResponse	-1	n/a	n/a	4	74	Blank	Loss	False
704.114	1.45	Lose2	0.6267	n/a	No	2.635	n/a	5.0	NoResponse	-1	0.047	703.161	4	74	Feedback	Loss	False
705.568	2.635	Lose2	0.6267	n/a	No	2.635	n/a	n/a	NoResponse	-1	0.0	n/a	4	74	ISIslide	Loss	False
708.226	0.25	Lose2	0.6315999999999999	0.0	Yes	2.924	0.026	n/a	GoodResponse	0	n/a	n/a	4	75	Cue	AvoidedLoss	True
708.477	3.95	Lose2	0.6315999999999999	0.0	Yes	2.924	0.001	n/a	GoodResponse	0	n/a	n/a	4	75	Fixation	AvoidedLoss	True
712.422	0.5	Lose2	0.6315999999999999	0.004	Yes	2.924	-0.004	1.0	GoodResponse	0	0.228	711.65	4	75	Target	AvoidedLoss	True
712.65	0.3	Lose2	0.6315999999999999	0.004	Yes	2.924	-0.004	1.0	GoodResponse	0	0.228	n/a	4	75	ButtonPress	AvoidedLoss	True
712.923	0.2	Lose2	0.6315999999999999	n/a	Yes	2.924	n/a	n/a	GoodResponse	0	n/a	n/a	4	75	Blank	AvoidedLoss	True
713.124	1.45	Lose2	0.6315999999999999	n/a	Yes	2.924	n/a	5.0	GoodResponse	0	0.013	712.137	4	75	Feedback	AvoidedLoss	True
714.578	2.924	Lose2	0.6315999999999999	n/a	Yes	2.924	n/a	n/a	GoodResponse	0	0.0	n/a	4	75	ISIslide	AvoidedLoss	True
717.52	0.25	Control	0.6234000000000001	0.0	No	3.23	0.02	n/a	NoResponse	0	n/a	n/a	4	76	Cue	Neutral	False
717.771	4.05	Control	0.6234000000000001	0.0	No	3.23	0.001	n/a	NoResponse	0	n/a	n/a	4	76	Fixation	Neutral	False
721.817	0.5	Control	0.6234000000000001	0.003	No	3.23	-0.003	n/a	NoResponse	0	n/a	n/a	4	76	Target	Neutral	False
722.318	0.2	Control	0.6234000000000001	n/a	No	3.23	n/a	n/a	NoResponse	0	n/a	n/a	4	76	Blank	Neutral	False
722.519	1.45	Control	0.6234000000000001	n/a	No	3.23	n/a	5.0	NoResponse	0	0.033	721.552	4	76	Feedback	Neutral	False
723.973	3.23	Control	0.6234000000000001	n/a	No	3.23	n/a	n/a	NoResponse	0	0.0	n/a	4	76	ISIslide	Neutral	False
727.216	0.25	Lose2	0.6282	0.0	Yes	2.584	0.016	n/a	GoodResponse	0	n/a	n/a	4	77	Cue	AvoidedLoss	True
727.467	3.95	Lose2	0.6282	0.0	Yes	2.584	0.001	n/a	GoodResponse	0	n/a	n/a	4	77	Fixation	AvoidedLoss	True
731.412	0.5	Lose2	0.6282	0.004	Yes	2.584	-0.004	1.0	GoodResponse	0	0.298	730.71	4	77	Target	AvoidedLoss	True
731.71	0.3	Lose2	0.6282	0.004	Yes	2.584	-0.004	1.0	GoodResponse	0	0.298	n/a	4	77	ButtonPress	AvoidedLoss	True
731.913	0.2	Lose2	0.6282	n/a	Yes	2.584	n/a	n/a	GoodResponse	0	n/a	n/a	4	77	Blank	AvoidedLoss	True
732.114	1.45	Lose2	0.6282	n/a	Yes	2.584	n/a	5.0	GoodResponse	0	0.047	731.161	4	77	Feedback	AvoidedLoss	True
733.568	2.584	Lose2	0.6282	n/a	Yes	2.584	n/a	n/a	GoodResponse	0	0.0	n/a	4	77	ISIslide	AvoidedLoss	True
