onset	duration	cue_type	current_mean_accuracy	duration_error	is_hit	isi_adjusted	onset_delay	response	response_type	reward	rt	rt_time	total_reward	trial_number	trial_phase	trial_type	one_press
11.104	0.25	Control	1.0	0.0	Yes	2.946	0.004	n/a	GoodResponse	0	n/a	n/a	0	0	Cue	Neutral	True
11.354	3.85	Control	1.0	0.0	Yes	2.946	0.0	n/a	GoodResponse	0	n/a	n/a	0	0	Fixation	Neutral	True
15.216	0.4	Control	1.0	0.0	Yes	2.946	0.012	4.0	GoodResponse	0	0.227	14.443	0	0	Target	Neutral	True
15.443	0.3	Control	1.0	0.0	Yes	2.946	0.012	4.0	GoodResponse	0	0.227	n/a	0	0	ButtonPress	Neutral	True
15.6	0.3	Control	1.0	n/a	Yes	2.946	n/a	n/a	GoodResponse	0	n/a	n/a	0	0	Blank	Neutral	True
15.901	1.45	Control	1.0	n/a	Yes	2.946	n/a	5.0	GoodResponse	0	0.029	14.93	0	0	Feedback	Neutral	True
17.356	2.946	Control	1.0	n/a	Yes	2.946	n/a	n/a	GoodResponse	0	0.0	n/a	0	0	ISIslide	Neutral	True
20.331	0.25	Lose2	1.0	0.0	Yes	2.769	0.031	n/a	GoodResponse	0	n/a	n/a	0	1	Cue	AvoidedLoss	True
20.582	4.0	Lose2	1.0	0.0	Yes	2.769	0.001	n/a	GoodResponse	0	n/a	n/a	0	1	Fixation	AvoidedLoss	True
24.577	0.39	Lose2	1.0	0.004	Yes	2.769	-0.004	4.0	GoodResponse	0	0.201	23.778	0	1	Target	AvoidedLoss	True
24.778	0.3	Lose2	1.0	0.004	Yes	2.769	-0.004	4.0	GoodResponse	0	0.201	n/a	0	1	ButtonPress	AvoidedLoss	True
24.979	0.31	Lose2	1.0	n/a	Yes	2.769	n/a	n/a	GoodResponse	0	n/a	n/a	0	1	Blank	AvoidedLoss	True
25.279	1.45	Lose2	1.0	n/a	Yes	2.769	n/a	5.0	GoodResponse	0	0.017	24.296	0	1	Feedback	AvoidedLoss	True
26.734	2.769	Lose2	1.0	n/a	Yes	2.769	n/a	n/a	GoodResponse	0	0.0	n/a	0	1	ISIslide	AvoidedLoss	True
29.526	0.25	Control	1.0	0.0	Yes	2.574	0.026	n/a	GoodResponse	0	n/a	n/a	0	2	Cue	Neutral	True
29.776	4.1	Control	1.0	0.0	Yes	2.574	0.0	n/a	GoodResponse	0	n/a	n/a	0	2	Fixation	Neutral	True
33.872	0.38	Control	1.0	0.004	Yes	2.574	-0.004	4.0	GoodResponse	0	0.232	33.104	0	2	Target	Neutral	True
34.104	0.3	Control	1.0	0.004	Yes	2.574	-0.004	4.0	GoodResponse	0	0.232	n/a	0	2	ButtonPress	Neutral	True
34.256	0.32	Control	1.0	n/a	Yes	2.574	n/a	n/a	GoodResponse	0	n/a	n/a	0	2	Blank	Neutral	True
34.574	1.45	Control	1.0	n/a	Yes	2.574	n/a	5.0	GoodResponse	0	0.038	33.612	0	2	Feedback	Neutral	True
36.028	2.574	Control	1.0	n/a	Yes	2.574	n/a	n/a	GoodResponse	0	0.0	n/a	0	2	ISIslide	Neutral	True
38.619	0.25	Win2	1.0	0.001	Yes	2.831	0.019	n/a	GoodResponse	1	n/a	n/a	1	3	Cue	Win	True
38.87	3.95	Win2	1.0	0.0	Yes	2.831	0.001	n/a	GoodResponse	1	n/a	n/a	1	3	Fixation	Win	True
42.815	0.37	Win2	1.0	0.004	Yes	2.831	-0.004	4.0	GoodResponse	1	0.209	42.024	1	3	Target	Win	True
43.024	0.3	Win2	1.0	0.004	Yes	2.831	-0.004	4.0	GoodResponse	1	0.209	n/a	1	3	ButtonPress	Win	True
43.2	0.33	Win2	1.0	n/a	Yes	2.831	n/a	n/a	GoodResponse	1	n/a	n/a	1	3	Blank	Win	True
43.517	1.45	Win2	1.0	n/a	Yes	2.831	n/a	5.0	GoodResponse	1	0.022	42.539	1	3	Feedback	Win	True
44.972	2.831	Win2	1.0	n/a	Yes	2.831	n/a	n/a	GoodResponse	1	0.0	n/a	1	3	ISIslide	Win	True
47.83	0.25	Win2	1.0	0.0	Yes	3.27	0.03	n/a	GoodResponse	1	n/a	n/a	2	4	Cue	Win	True
48.081	4.0	Win2	1.0	0.0	Yes	3.27	0.001	n/a	GoodResponse	1	n/a	n/a	2	4	Fixation	Win	True
52.076	0.36	Win2	1.0	0.004	Yes	3.27	-0.004	4.0	GoodResponse	1	0.225	51.301	2	4	Target	Win	True
52.301	0.3	Win2	1.0	0.004	Yes	3.27	-0.004	4.0	GoodResponse	1	0.225	n/a	2	4	ButtonPress	Win	True
52.444	0.34	Win2	1.0	n/a	Yes	3.27	n/a	n/a	GoodResponse	1	n/a	n/a	2	4	Blank	Win	True
52.779	1.45	Win2	1.0	n/a	Yes	3.27	n/a	5.0	GoodResponse	1	0.028	51.807	2	4	Feedback	Win	True
54.233	3.27	Win2	1.0	n/a	Yes	3.27	n/a	n/a	GoodResponse	1	0.0	n/a	2	4	ISIslide	Win	True
57.526	0.25	Win2	1.0	0.0	Yes	2.774	0.026	n/a	GoodResponse	1	n/a	n/a	3	5	Cue	Win	True
57.777	4.0	Win2	1.0	0.0	Yes	2.774	0.001	n/a	GoodResponse	1	n/a	n/a	3	5	Fixation	Win	True
61.772	0.35	Win2	1.0	0.004	Yes	2.774	-0.004	4.0	GoodResponse	1	0.211	60.983	3	5	Target	Win	True
61.983	0.3	Win2	1.0	0.004	Yes	2.774	-0.004	4.0	GoodResponse	1	0.211	n/a	3	5	ButtonPress	Win	True
62.123	0.35	Win2	1.0	n/a	Yes	2.774	n/a	n/a	GoodResponse	1	n/a	n/a	3	5	Blank	Win	True
62.474	1.45	Win2	1.0	n/a	Yes	2.774	n/a	5.0	GoodResponse	1	0.041	61.515	3	5	Feedback	Win	True
63.929	2.774	Win2	1.0	n/a	Yes	2.774	n/a	n/a	GoodResponse	1	0.0	n/a	3	5	ISIslide	Win	True
66.72	0.25	Lose2	1.0	0.0	Yes	2.73	0.02	n/a	GoodResponse	0	n/a	n/a	3	6	Cue	AvoidedLoss	True
66.971	3.95	Lose2	1.0	0.0	Yes	2.73	0.001	n/a	GoodResponse	0	n/a	n/a	3	6	Fixation	AvoidedLoss	True
70.916	0.34	Lose2	1.0	0.004	Yes	2.73	-0.004	4.0	GoodResponse	0	0.231	70.147	3	6	Target	AvoidedLoss	True
71.147	0.3	Lose2	1.0	0.004	Yes	2.73	-0.004	4.0	GoodResponse	0	0.231	n/a	3	6	ButtonPress	AvoidedLoss	True
71.267	0.36	Lose2	1.0	n/a	Yes	2.73	n/a	n/a	GoodResponse	0	n/a	n/a	3	6	Blank	AvoidedLoss	True
71.618	1.45	Lose2	1.0	n/a	Yes	2.73	n/a	5.0	GoodResponse	0	0.019	70.637	3	6	Feedback	AvoidedLoss	True
73.073	2.73	Lose2	1.0	n/a	Yes	2.73	n/a	n/a	GoodResponse	0	0.0	n/a	3	6	ISIslide	AvoidedLoss	True
75.831	0.25	Lose2	1.0	0.0	Yes	4.019	0.031	n/a	GoodResponse	0	n/a	n/a	3	7	Cue	AvoidedLoss	True
76.082	4.05	Lose2	1.0	0.0	Yes	4.019	0.001	n/a	GoodResponse	0	n/a	n/a	3	7	Fixation	AvoidedLoss	True
80.127	0.33	Lose2	1.0	0.004	Yes	4.019	-0.004	4.0	GoodResponse	0	0.265	79.392	3	7	Target	AvoidedLoss	True
80.392	0.3	Lose2	1.0	0.004	Yes	4.019	-0.004	4.0	GoodResponse	0	0.265	n/a	3	7	ButtonPress	AvoidedLoss	True
80.461	0.37	Lose2	1.0	n/a	Yes	4.019	n/a	n/a	GoodResponse	0	n/a	n/a	3	7	Blank	AvoidedLoss	True
80.829	1.45	Lose2	1.0	n/a	Yes	4.019	n/a	5.0	GoodResponse	0	0.027	79.856	3	7	Feedback	AvoidedLoss	True
82.284	4.019	Lose2	1.0	n/a	Yes	4.019	n/a	n/a	GoodResponse	0	0.0	n/a	3	7	ISIslide	AvoidedLoss	True
86.329	0.25	Lose2	1.0	0.0	Yes	3.021	0.029	n/a	GoodResponse	0	n/a	n/a	3	8	Cue	AvoidedLoss	True
86.58	3.95	Lose2	1.0	0.0	Yes	3.021	0.001	n/a	GoodResponse	0	n/a	n/a	3	8	Fixation	AvoidedLoss	True
90.525	0.32	Lose2	1.0	0.004	Yes	3.021	-0.004	4.0	GoodResponse	0	0.22	89.745	3	8	Target	AvoidedLoss	True
90.745	0.3	Lose2	1.0	0.004	Yes	3.021	-0.004	4.0	GoodResponse	0	0.22	n/a	3	8	ButtonPress	AvoidedLoss	True
90.859	0.38	Lose2	1.0	n/a	Yes	3.021	n/a	n/a	GoodResponse	0	n/a	n/a	3	8	Blank	AvoidedLoss	True
91.227	1.45	Lose2	1.0	n/a	Yes	3.021	n/a	5.0	GoodResponse	0	0.02	90.247	3	8	Feedback	AvoidedLoss	True
92.681	3.021	Lose2	1.0	n/a	Yes	3.021	n/a	n/a	GoodResponse	0	0.0	n/a	3	8	ISIslide	AvoidedLoss	True
95.724	0.25	Lose2	1.0	0.0	Yes	3.126	0.024	n/a	GoodResponse	0	n/a	n/a	3	9	Cue	AvoidedLoss	True
95.975	3.95	Lose2	1.0	0.0	Yes	3.126	0.001	n/a	GoodResponse	0	n/a	n/a	3	9	Fixation	AvoidedLoss	True
99.92	0.31	Lose2	1.0	0.004	Yes	3.126	-0.004	4.0	GoodResponse	0	0.217	99.137	3	9	Target	AvoidedLoss	True
100.137	0.3	Lose2	1.0	0.004	Yes	3.126	-0.004	4.0	GoodResponse	0	0.217	n/a	3	9	ButtonPress	AvoidedLoss	True
100.237	0.39	Lose2	1.0	n/a	Yes	3.126	n/a	n/a	GoodResponse	0	n/a	n/a	3	9	Blank	AvoidedLoss	True
100.622	1.45	Lose2	1.0	n/a	Yes	3.126	n/a	5.0	GoodResponse	0	0.038	99.66	3	9	Feedback	AvoidedLoss	True
102.076	3.126	Lose2	1.0	n/a	Yes	3.126	n/a	n/a	GoodResponse	0	0.0	n/a	3	9	ISIslide	AvoidedLoss	True
105.219	0.25	Control	1.0	0.0	Yes	3.281	0.019	n/a	GoodResponse	0	n/a	n/a	3	10	Cue	Neutral	True
105.47	4.0	Control	1.0	0.0	Yes	3.281	0.001	n/a	GoodResponse	0	n/a	n/a	3	10	Fixation	Neutral	True
109.465	0.3	Control	1.0	0.004	Yes	3.281	-0.004	4.0	GoodResponse	0	0.221	108.686	3	10	Target	Neutral	True
109.686	0.3	Control	1.0	0.004	Yes	3.281	-0.004	4.0	GoodResponse	0	0.221	n/a	3	10	ButtonPress	Neutral	True
109.766	0.4	Control	1.0	n/a	Yes	3.281	n/a	n/a	GoodResponse	0	n/a	n/a	3	10	Blank	Neutral	True
110.167	1.45	Control	1.0	n/a	Yes	3.281	n/a	5.0	GoodResponse	0	0.007	109.174	3	10	Feedback	Neutral	True
111.622	3.281	Control	1.0	n/a	Yes	3.281	n/a	n/a	GoodResponse	0	0.0	n/a	3	10	ISIslide	Neutral	True
114.931	0.25	Lose2	1.0	0.001	Yes	2.719	0.031	n/a	GoodResponse	0	n/a	n/a	3	11	Cue	AvoidedLoss	True
115.182	4.05	Lose2	1.0	0.0	Yes	2.719	0.001	n/a	GoodResponse	0	n/a	n/a	3	11	Fixation	AvoidedLoss	True
119.228	0.29	Lose2	1.0	0.003	Yes	2.719	-0.003	4.0	GoodResponse	0	0.204	118.432	3	11	Target	AvoidedLoss	True
119.432	0.3	Lose2	1.0	0.003	Yes	2.719	-0.003	4.0	GoodResponse	0	0.204	n/a	3	11	ButtonPress	AvoidedLoss	True
119.529	0.41	Lose2	1.0	n/a	Yes	2.719	n/a	n/a	GoodResponse	0	n/a	n/a	3	11	Blank	AvoidedLoss	True
119.93	1.45	Lose2	1.0	n/a	Yes	2.719	n/a	5.0	GoodResponse	0	0.048	118.978	3	11	Feedback	AvoidedLoss	True
121.384	2.719	Lose2	1.0	n/a	Yes	2.719	n/a	n/a	GoodResponse	0	0.0	n/a	3	11	ISIslide	AvoidedLoss	True
124.126	0.25	Control	1.0	0.0	Yes	2.974	0.026	n/a	GoodResponse	0	n/a	n/a	3	12	Cue	Neutral	True
124.376	3.9	Control	1.0	0.0	Yes	2.974	0.0	n/a	GoodResponse	0	n/a	n/a	3	12	Fixation	Neutral	True
128.288	0.28	Control	1.0	0.0	Yes	2.974	0.012	4.0	GoodResponse	0	0.248	127.536	3	12	Target	Neutral	True
128.536	0.3	Control	1.0	0.0	Yes	2.974	0.012	4.0	GoodResponse	0	0.248	n/a	3	12	ButtonPress	Neutral	True
128.556	0.42	Control	1.0	n/a	Yes	2.974	n/a	n/a	GoodResponse	0	n/a	n/a	3	12	Blank	Neutral	True
128.974	1.45	Control	1.0	n/a	Yes	2.974	n/a	5.0	GoodResponse	0	0.028	128.002	3	12	Feedback	Neutral	True
130.428	2.974	Control	1.0	n/a	Yes	2.974	n/a	n/a	GoodResponse	0	0.0	n/a	3	12	ISIslide	Neutral	True
133.42	0.25	Control	0.9286	0.0	No	2.78	0.02	n/a	NoResponse	0	n/a	n/a	3	13	Cue	Neutral	False
133.671	4.0	Control	0.9286	0.0	No	2.78	0.001	n/a	NoResponse	0	n/a	n/a	3	13	Fixation	Neutral	False
137.666	0.27	Control	0.9286	0.004	No	2.78	-0.004	n/a	NoResponse	0	n/a	n/a	3	13	Target	Neutral	False
137.95	0.43	Control	0.9286	n/a	No	2.78	n/a	n/a	NoResponse	0	n/a	n/a	3	13	Blank	Neutral	False
138.368	1.45	Control	0.9286	n/a	No	2.78	n/a	5.0	NoResponse	0	0.049	137.417	3	13	Feedback	Neutral	False
139.823	2.78	Control	0.9286	n/a	No	2.78	n/a	n/a	NoResponse	0	0.0	n/a	3	13	ISIslide	Neutral	False
142.631	0.25	Win2	0.9333	0.0	Yes	2.669	0.031	n/a	GoodResponse	1	n/a	n/a	4	14	Cue	Win	True
142.882	4.1	Win2	0.9333	0.0	Yes	2.669	0.001	n/a	GoodResponse	1	n/a	n/a	4	14	Fixation	Win	True
146.977	0.26	Win2	0.9333	0.004	Yes	2.669	-0.004	4.0	GoodResponse	1	0.212	146.189	4	14	Target	Win	True
147.189	0.3	Win2	0.9333	0.004	Yes	2.669	-0.004	4.0	GoodResponse	1	0.212	n/a	4	14	ButtonPress	Win	True
147.245	0.44	Win2	0.9333	n/a	Yes	2.669	n/a	n/a	GoodResponse	1	n/a	n/a	4	14	Blank	Win	True
147.68	1.45	Win2	0.9333	n/a	Yes	2.669	n/a	5.0	GoodResponse	1	0.006	146.686	4	14	Feedback	Win	True
149.134	2.669	Win2	0.9333	n/a	Yes	2.669	n/a	n/a	GoodResponse	1	0.0	n/a	4	14	ISIslide	Win	True
151.825	0.25	Control	0.9375	0.0	Yes	2.975	0.025	n/a	GoodResponse	0	n/a	n/a	4	15	Cue	Neutral	True
152.076	4.0	Control	0.9375	0.0	Yes	2.975	0.001	n/a	GoodResponse	0	n/a	n/a	4	15	Fixation	Neutral	True
156.071	0.25	Control	0.9375	0.004	Yes	2.975	-0.004	4.0	GoodResponse	0	0.238	155.309	4	15	Target	Neutral	True
156.309	0.3	Control	0.9375	0.004	Yes	2.975	-0.004	4.0	GoodResponse	0	0.238	n/a	4	15	ButtonPress	Neutral	True
156.322	0.45	Control	0.9375	n/a	Yes	2.975	n/a	n/a	GoodResponse	0	n/a	n/a	4	15	Blank	Neutral	True
156.773	1.45	Control	0.9375	n/a	Yes	2.975	n/a	5.0	GoodResponse	0	0.033	155.806	4	15	Feedback	Neutral	True
158.228	2.975	Control	0.9375	n/a	Yes	2.975	n/a	n/a	GoodResponse	0	0.0	n/a	4	15	ISIslide	Neutral	True
161.22	0.25	Win2	0.9412	0.0	Yes	2.88	0.02	n/a	GoodResponse	1	n/a	n/a	5	16	Cue	Win	False
161.471	4.0	Win2	0.9412	0.0	Yes	2.88	0.001	4.0	GoodResponse	1	2.902	163.373	5	16	Fixation	Win	False
164.373	0.3	Win2	0.9412	0.0	Yes	2.88	0.001	4.0	GoodResponse	1	2.902	n/a	5	16	ButtonPress	Win	False
165.466	0.24	Win2	0.9412	0.004	Yes	2.88	-0.004	4.0	GoodResponse	1	0.237	164.703	5	16	Target	Win	False
165.703	0.3	Win2	0.9412	0.004	Yes	2.88	-0.004	4.0	GoodResponse	1	0.237	n/a	5	16	ButtonPress	Win	False
165.717	0.46	Win2	0.9412	n/a	Yes	2.88	n/a	n/a	GoodResponse	1	n/a	n/a	5	16	Blank	Win	False
166.168	1.45	Win2	0.9412	n/a	Yes	2.88	n/a	5.0	GoodResponse	1	0.007	165.175	5	16	Feedback	Win	False
167.623	2.88	Win2	0.9412	n/a	Yes	2.88	n/a	n/a	GoodResponse	1	0.0	n/a	5	16	ISIslide	Win	False
170.531	0.25	Lose2	0.8889	0.0	No	2.719	0.031	n/a	LatePress	-1	n/a	n/a	4	17	Cue	Loss	True
170.782	3.95	Lose2	0.8889	0.0	No	2.719	0.001	n/a	LatePress	-1	n/a	n/a	4	17	Fixation	Loss	True
174.727	0.23	Lose2	0.8889	0.004	No	2.719	-0.004	4.0	LatePress	-1	0.234	173.961	4	17	Target	Loss	True
174.961	0.47	Lose2	0.8889	n/a	No	2.719	n/a	n/a	LatePress	-1	n/a	n/a	4	17	Blank	Loss	True
174.961	0.3	Lose2	0.8889	0.004	No	2.719	-0.004	4.0	LatePress	-1	0.234	n/a	4	17	ButtonPress	Loss	True
175.429	1.45	Lose2	0.8889	n/a	No	2.719	n/a	5.0	LatePress	-1	0.012	174.441	4	17	Feedback	Loss	True
176.884	2.719	Lose2	0.8889	n/a	No	2.719	n/a	n/a	LatePress	-1	0.0	n/a	4	17	ISIslide	Loss	True
179.625	0.25	Lose2	0.8421	0.0	No	2.725	0.025	n/a	NoResponse	-1	n/a	n/a	3	18	Cue	Loss	True
179.876	4.05	Lose2	0.8421	0.0	No	2.725	0.001	n/a	NoResponse	-1	n/a	n/a	3	18	Fixation	Loss	True
183.921	0.22	Lose2	0.8421	0.004	No	2.725	-0.004	4.0	NoResponse	-1	0.251	183.172	3	18	Target	Loss	True
184.156	0.48	Lose2	0.8421	n/a	No	2.725	n/a	n/a	NoResponse	-1	n/a	n/a	3	18	Blank	Loss	True
184.172	0.3	Lose2	0.8421	0.004	No	2.725	-0.004	4.0	NoResponse	-1	0.251	n/a	3	18	ButtonPress	Loss	True
184.624	1.45	Lose2	0.8421	n/a	No	2.725	n/a	5.0	NoResponse	-1	0.036	183.66	3	18	Feedback	Loss	True
186.078	2.725	Lose2	0.8421	n/a	No	2.725	n/a	n/a	NoResponse	-1	0.0	n/a	3	18	ISIslide	Loss	True
188.82	0.25	Control	0.8	0.0	No	2.93	0.02	n/a	NoResponse	0	n/a	n/a	3	19	Cue	Neutral	True
189.07	3.95	Control	0.8	0.0	No	2.93	0.0	n/a	NoResponse	0	n/a	n/a	3	19	Fixation	Neutral	True
193.032	0.21	Control	0.8	0.0	No	2.93	0.012	4.0	NoResponse	0	0.223	192.255	3	19	Target	Neutral	True
193.233	0.49	Control	0.8	n/a	No	2.93	n/a	n/a	NoResponse	0	n/a	n/a	3	19	Blank	Neutral	True
193.255	0.3	Control	0.8	0.0	No	2.93	0.012	4.0	NoResponse	0	0.223	n/a	3	19	ButtonPress	Neutral	True
193.718	1.45	Control	0.8	n/a	No	2.93	n/a	5.0	NoResponse	0	0.016	192.734	3	19	Feedback	Neutral	True
195.172	2.93	Control	0.8	n/a	No	2.93	n/a	n/a	NoResponse	0	0.0	n/a	3	19	ISIslide	Neutral	True
198.131	0.25	Control	0.7619	0.0	No	2.619	0.031	n/a	NoResponse	0	n/a	n/a	3	20	Cue	Neutral	True
198.382	4.05	Control	0.7619	0.0	No	2.619	0.001	n/a	NoResponse	0	n/a	n/a	3	20	Fixation	Neutral	True
202.427	0.2	Control	0.7619	0.004	No	2.619	-0.004	4.0	NoResponse	0	0.243	201.67	3	20	Target	Neutral	True
202.628	0.5	Control	0.7619	n/a	No	2.619	n/a	n/a	NoResponse	0	n/a	n/a	3	20	Blank	Neutral	True
202.67	0.3	Control	0.7619	0.004	No	2.619	-0.004	4.0	NoResponse	0	0.243	n/a	3	20	ButtonPress	Neutral	True
203.129	1.45	Control	0.7619	n/a	No	2.619	n/a	5.0	NoResponse	0	0.02	202.149	3	20	Feedback	Neutral	True
204.583	2.619	Control	0.7619	n/a	No	2.619	n/a	n/a	NoResponse	0	0.0	n/a	3	20	ISIslide	Neutral	True
207.225	0.25	Control	0.7273000000000001	0.0	No	2.775	0.025	n/a	NoResponse	0	n/a	n/a	3	21	Cue	Neutral	True
207.475	4.1	Control	0.7273000000000001	0.0	No	2.775	0.0	n/a	NoResponse	0	n/a	n/a	3	21	Fixation	Neutral	True
211.571	0.19	Control	0.7273000000000001	0.004	No	2.775	-0.004	4.0	NoResponse	0	0.24	210.811	3	21	Target	Neutral	True
211.772	0.51	Control	0.7273000000000001	n/a	No	2.775	n/a	n/a	NoResponse	0	n/a	n/a	3	21	Blank	Neutral	True
211.811	0.3	Control	0.7273000000000001	0.004	No	2.775	-0.004	4.0	NoResponse	0	0.24	n/a	3	21	ButtonPress	Neutral	True
212.273	1.45	Control	0.7273000000000001	n/a	No	2.775	n/a	5.0	NoResponse	0	0.045	211.318	3	21	Feedback	Neutral	True
213.727	2.775	Control	0.7273000000000001	n/a	No	2.775	n/a	n/a	NoResponse	0	0.0	n/a	3	21	ISIslide	Neutral	True
216.519	0.25	Control	0.6957	0.0	No	2.781	0.019	n/a	NoResponse	0	n/a	n/a	3	22	Cue	Neutral	True
216.77	4.0	Control	0.6957	0.0	No	2.781	0.001	n/a	NoResponse	0	n/a	n/a	3	22	Fixation	Neutral	True
220.765	0.18	Control	0.6957	0.004	No	2.781	-0.004	4.0	NoResponse	0	0.233	219.998	3	22	Target	Neutral	True
220.949	0.52	Control	0.6957	n/a	No	2.781	n/a	n/a	NoResponse	0	n/a	n/a	3	22	Blank	Neutral	True
220.998	0.3	Control	0.6957	0.004	No	2.781	-0.004	4.0	NoResponse	0	0.233	n/a	3	22	ButtonPress	Neutral	True
221.467	1.45	Control	0.6957	n/a	No	2.781	n/a	5.0	NoResponse	0	0.022	220.489	3	22	Feedback	Neutral	True
222.922	2.781	Control	0.6957	n/a	No	2.781	n/a	n/a	NoResponse	0	0.0	n/a	3	22	ISIslide	Neutral	True
225.73	0.25	Control	0.6667000000000001	0.0	No	2.77	0.03	n/a	NoResponse	0	n/a	n/a	3	23	Cue	Neutral	True
225.981	3.9	Control	0.6667000000000001	0.0	No	2.77	0.001	n/a	NoResponse	0	n/a	n/a	3	23	Fixation	Neutral	True
229.876	0.17	Control	0.6667000000000001	0.004	No	2.77	-0.004	4.0	NoResponse	0	0.252	229.128	3	23	Target	Neutral	True
230.06	0.53	Control	0.6667000000000001	n/a	No	2.77	n/a	n/a	NoResponse	0	n/a	n/a	3	23	Blank	Neutral	True
230.128	0.3	Control	0.6667000000000001	0.004	No	2.77	-0.004	4.0	NoResponse	0	0.252	n/a	3	23	ButtonPress	Neutral	True
230.578	1.45	Control	0.6667000000000001	n/a	No	2.77	n/a	5.0	NoResponse	0	0.033	229.611	3	23	Feedback	Neutral	True
232.032	2.77	Control	0.6667000000000001	n/a	No	2.77	n/a	n/a	NoResponse	0	0.0	n/a	3	23	ISIslide	Neutral	True
234.824	0.25	Win2	0.64	0.0	No	3.126	0.024	n/a	NoResponse	0	n/a	n/a	3	24	Cue	MissedWin	True
235.075	3.95	Win2	0.64	0.0	No	3.126	0.001	n/a	NoResponse	0	n/a	n/a	3	24	Fixation	MissedWin	True
239.02	0.16	Win2	0.64	0.004	No	3.126	-0.004	4.0	NoResponse	0	0.199	238.219	3	24	Target	MissedWin	True
239.187	0.54	Win2	0.64	n/a	No	3.126	n/a	n/a	NoResponse	0	n/a	n/a	3	24	Blank	MissedWin	True
239.219	0.3	Win2	0.64	0.004	No	3.126	-0.004	4.0	NoResponse	0	0.199	n/a	3	24	ButtonPress	MissedWin	True
239.722	1.45	Win2	0.64	n/a	No	3.126	n/a	5.0	NoResponse	0	0.011	238.733	3	24	Feedback	MissedWin	True
241.176	3.126	Win2	0.64	n/a	No	3.126	n/a	n/a	NoResponse	0	0.0	n/a	3	24	ISIslide	MissedWin	True
244.319	0.25	Win2	0.6154	0.0	No	3.081	0.019	n/a	NoResponse	0	n/a	n/a	3	25	Cue	MissedWin	True
244.57	4.0	Win2	0.6154	0.0	No	3.081	0.001	n/a	NoResponse	0	n/a	n/a	3	25	Fixation	MissedWin	True
248.565	0.17	Win2	0.6154	0.004	No	3.081	-0.004	4.0	NoResponse	0	0.23	247.795	3	25	Target	MissedWin	True
248.749	0.53	Win2	0.6154	n/a	No	3.081	n/a	n/a	NoResponse	0	n/a	n/a	3	25	Blank	MissedWin	True
248.795	0.3	Win2	0.6154	0.004	No	3.081	-0.004	4.0	NoResponse	0	0.23	n/a	3	25	ButtonPress	MissedWin	True
249.267	1.45	Win2	0.6154	n/a	No	3.081	n/a	5.0	NoResponse	0	0.028	248.295	3	25	Feedback	MissedWin	True
250.722	3.081	Win2	0.6154	n/a	No	3.081	n/a	n/a	NoResponse	0	0.0	n/a	3	25	ISIslide	MissedWin	True
253.831	0.25	Win2	0.5926	0.0	No	2.919	0.031	n/a	NoResponse	0	n/a	n/a	3	26	Cue	MissedWin	True
254.082	3.95	Win2	0.5926	0.0	No	2.919	0.001	n/a	NoResponse	0	n/a	n/a	3	26	Fixation	MissedWin	True
258.027	0.18	Win2	0.5926	0.004	No	2.919	-0.004	4.0	NoResponse	0	0.226	257.253	3	26	Target	MissedWin	True
258.211	0.52	Win2	0.5926	n/a	No	2.919	n/a	n/a	NoResponse	0	n/a	n/a	3	26	Blank	MissedWin	True
258.253	0.3	Win2	0.5926	0.004	No	2.919	-0.004	4.0	NoResponse	0	0.226	n/a	3	26	ButtonPress	MissedWin	True
258.729	1.45	Win2	0.5926	n/a	No	2.919	n/a	5.0	NoResponse	0	0.029	257.758	3	26	Feedback	MissedWin	True
260.183	2.919	Win2	0.5926	n/a	No	2.919	n/a	n/a	NoResponse	0	0.0	n/a	3	26	ISIslide	MissedWin	True
263.125	0.25	Lose2	0.5714	0.001	No	2.825	0.025	n/a	LatePress	-1	n/a	n/a	2	27	Cue	Loss	True
263.376	4.05	Lose2	0.5714	0.0	No	2.825	0.001	n/a	LatePress	-1	n/a	n/a	2	27	Fixation	Loss	True
267.422	0.19	Lose2	0.5714	0.003	No	2.825	-0.003	4.0	LatePress	-1	0.199	266.621	2	27	Target	Loss	True
267.621	0.3	Lose2	0.5714	0.003	No	2.825	-0.003	4.0	LatePress	-1	0.199	n/a	2	27	ButtonPress	Loss	True
267.622	0.51	Lose2	0.5714	n/a	No	2.825	n/a	n/a	LatePress	-1	n/a	n/a	2	27	Blank	Loss	True
268.124	1.45	Lose2	0.5714	n/a	No	2.825	n/a	5.0	LatePress	-1	0.049	267.173	2	27	Feedback	Loss	True
269.578	2.825	Lose2	0.5714	n/a	No	2.825	n/a	n/a	LatePress	-1	0.0	n/a	2	27	ISIslide	Loss	True
272.42	0.25	Control	0.5517	0.0	No	2.83	0.02	n/a	NoResponse	0	n/a	n/a	2	28	Cue	Neutral	True
272.671	4.05	Control	0.5517	0.0	No	2.83	0.001	n/a	NoResponse	0	n/a	n/a	2	28	Fixation	Neutral	True
276.716	0.2	Control	0.5517	0.004	No	2.83	-0.004	4.0	NoResponse	0	0.457	276.173	2	28	Target	Neutral	True
276.917	0.5	Control	0.5517	n/a	No	2.83	n/a	n/a	NoResponse	0	n/a	n/a	2	28	Blank	Neutral	True
277.173	0.3	Control	0.5517	0.004	No	2.83	-0.004	4.0	NoResponse	0	0.457	n/a	2	28	ButtonPress	Neutral	True
277.418	1.45	Control	0.5517	n/a	No	2.83	n/a	5.0	NoResponse	0	0.022	276.44	2	28	Feedback	Neutral	True
278.873	2.83	Control	0.5517	n/a	No	2.83	n/a	n/a	NoResponse	0	0.0	n/a	2	28	ISIslide	Neutral	True
281.715	0.25	Lose2	0.5333	0.0	No	2.835	0.015	n/a	NoResponse	-1	n/a	n/a	1	29	Cue	Loss	True
281.965	3.95	Lose2	0.5333	0.0	No	2.835	0.0	n/a	NoResponse	-1	n/a	n/a	1	29	Fixation	Loss	True
285.927	0.21	Lose2	0.5333	0.0	No	2.835	0.012	4.0	NoResponse	-1	0.208	285.135	1	29	Target	Loss	True
286.128	0.49	Lose2	0.5333	n/a	No	2.835	n/a	n/a	NoResponse	-1	n/a	n/a	1	29	Blank	Loss	True
286.135	0.3	Lose2	0.5333	0.0	No	2.835	0.012	4.0	NoResponse	-1	0.208	n/a	1	29	ButtonPress	Loss	True
286.613	1.45	Lose2	0.5333	n/a	No	2.835	n/a	5.0	NoResponse	-1	0.047	285.66	1	29	Feedback	Loss	True
288.067	2.835	Lose2	0.5333	n/a	No	2.835	n/a	n/a	NoResponse	-1	0.0	n/a	1	29	ISIslide	Loss	True
290.925	0.25	Win2	0.5161	0.001	No	2.775	0.025	n/a	NoResponse	0	n/a	n/a	1	30	Cue	MissedWin	True
291.176	3.9	Win2	0.5161	0.0	No	2.775	0.001	n/a	NoResponse	0	n/a	n/a	1	30	Fixation	MissedWin	True
295.071	0.22	Win2	0.5161	0.004	No	2.775	-0.004	4.0	NoResponse	0	0.266	294.337	1	30	Target	MissedWin	True
295.305	0.48	Win2	0.5161	n/a	No	2.775	n/a	n/a	NoResponse	0	n/a	n/a	1	30	Blank	MissedWin	True
295.337	0.3	Win2	0.5161	0.004	No	2.775	-0.004	4.0	NoResponse	0	0.266	n/a	1	30	ButtonPress	MissedWin	True
295.773	1.45	Win2	0.5161	n/a	No	2.775	n/a	5.0	NoResponse	0	0.009	294.782	1	30	Feedback	MissedWin	True
297.228	2.775	Win2	0.5161	n/a	No	2.775	n/a	n/a	NoResponse	0	0.0	n/a	1	30	ISIslide	MissedWin	True
300.019	0.25	Lose2	0.5	0.0	No	2.831	0.019	n/a	NoResponse	-1	n/a	n/a	0	31	Cue	Loss	True
300.27	4.05	Lose2	0.5	0.0	No	2.831	0.001	n/a	NoResponse	-1	n/a	n/a	0	31	Fixation	Loss	True
304.316	0.23	Lose2	0.5	0.003	No	2.831	-0.003	4.0	NoResponse	-1	0.251	303.567	0	31	Target	Loss	True
304.55	0.47	Lose2	0.5	n/a	No	2.831	n/a	n/a	NoResponse	-1	n/a	n/a	0	31	Blank	Loss	True
304.567	0.3	Lose2	0.5	0.003	No	2.831	-0.003	4.0	NoResponse	-1	0.251	n/a	0	31	ButtonPress	Loss	True
305.018	1.45	Lose2	0.5	n/a	No	2.831	n/a	5.0	NoResponse	-1	0.032	304.05	0	31	Feedback	Loss	True
306.472	2.831	Lose2	0.5	n/a	No	2.831	n/a	n/a	NoResponse	-1	0.0	n/a	0	31	ISIslide	Loss	True
309.331	0.25	Lose2	0.5152	0.0	Yes	2.619	0.031	n/a	GoodResponse	0	n/a	n/a	0	32	Cue	AvoidedLoss	True
309.581	4.15	Lose2	0.5152	0.0	Yes	2.619	0.0	n/a	GoodResponse	0	n/a	n/a	0	32	Fixation	AvoidedLoss	True
313.727	0.24	Lose2	0.5152	0.004	Yes	2.619	-0.004	4.0	GoodResponse	0	0.203	312.93	0	32	Target	AvoidedLoss	True
313.93	0.3	Lose2	0.5152	0.004	Yes	2.619	-0.004	4.0	GoodResponse	0	0.203	n/a	0	32	ButtonPress	AvoidedLoss	True
313.978	0.46	Lose2	0.5152	n/a	Yes	2.619	n/a	n/a	GoodResponse	0	n/a	n/a	0	32	Blank	AvoidedLoss	True
314.429	1.45	Lose2	0.5152	n/a	Yes	2.619	n/a	5.0	GoodResponse	0	0.036	313.465	0	32	Feedback	AvoidedLoss	True
315.884	2.619	Lose2	0.5152	n/a	Yes	2.619	n/a	n/a	GoodResponse	0	0.0	n/a	0	32	ISIslide	AvoidedLoss	True
318.525	0.25	Win2	0.5	0.0	No	2.675	0.025	n/a	NoResponse	0	n/a	n/a	0	33	Cue	MissedWin	True
318.776	4.0	Win2	0.5	0.0	No	2.675	0.001	n/a	NoResponse	0	n/a	n/a	0	33	Fixation	MissedWin	True
322.771	0.25	Win2	0.5	0.004	No	2.675	-0.004	4.0	NoResponse	0	0.325	322.096	0	33	Target	MissedWin	True
323.022	0.45	Win2	0.5	n/a	No	2.675	n/a	n/a	NoResponse	0	n/a	n/a	0	33	Blank	MissedWin	True
323.096	0.3	Win2	0.5	0.004	No	2.675	-0.004	4.0	NoResponse	0	0.325	n/a	0	33	ButtonPress	MissedWin	True
323.473	1.45	Win2	0.5	n/a	No	2.675	n/a	5.0	NoResponse	0	0.017	322.49	0	33	Feedback	MissedWin	True
324.927	2.675	Win2	0.5	n/a	No	2.675	n/a	n/a	NoResponse	0	0.0	n/a	0	33	ISIslide	MissedWin	True
327.619	0.25	Lose2	0.5143	0.0	Yes	2.631	0.019	n/a	GoodResponse	0	n/a	n/a	0	34	Cue	AvoidedLoss	True
327.869	4.05	Lose2	0.5143	0.001	Yes	2.631	0.0	n/a	GoodResponse	0	n/a	n/a	0	34	Fixation	AvoidedLoss	True
331.915	0.26	Lose2	0.5143	0.004	Yes	2.631	-0.004	4.0	GoodResponse	0	0.181	331.096	0	34	Target	AvoidedLoss	True
332.096	0.3	Lose2	0.5143	0.004	Yes	2.631	-0.004	4.0	GoodResponse	0	0.181	n/a	0	34	ButtonPress	AvoidedLoss	True
332.182	0.44	Lose2	0.5143	n/a	Yes	2.631	n/a	n/a	GoodResponse	0	n/a	n/a	0	34	Blank	AvoidedLoss	True
332.617	1.45	Lose2	0.5143	n/a	Yes	2.631	n/a	5.0	GoodResponse	0	0.042	331.659	0	34	Feedback	AvoidedLoss	True
334.071	2.631	Lose2	0.5143	n/a	Yes	2.631	n/a	n/a	GoodResponse	0	0.0	n/a	0	34	ISIslide	AvoidedLoss	True
336.729	0.25	Lose2	0.5278	0.0	Yes	2.671	0.029	n/a	GoodResponse	0	n/a	n/a	0	35	Cue	AvoidedLoss	True
336.98	4.0	Lose2	0.5278	0.0	Yes	2.671	0.001	n/a	GoodResponse	0	n/a	n/a	0	35	Fixation	AvoidedLoss	True
340.975	0.27	Lose2	0.5278	0.004	Yes	2.671	-0.004	4.0	GoodResponse	0	0.17	340.145	0	35	Target	AvoidedLoss	True
341.145	0.3	Lose2	0.5278	0.004	Yes	2.671	-0.004	4.0	GoodResponse	0	0.17	n/a	0	35	ButtonPress	AvoidedLoss	True
341.26	0.43	Lose2	0.5278	n/a	Yes	2.671	n/a	n/a	GoodResponse	0	n/a	n/a	0	35	Blank	AvoidedLoss	True
341.678	1.45	Lose2	0.5278	n/a	Yes	2.671	n/a	5.0	GoodResponse	0	0.007	340.685	0	35	Feedback	AvoidedLoss	True
343.132	2.671	Lose2	0.5278	n/a	Yes	2.671	n/a	n/a	GoodResponse	0	0.0	n/a	0	35	ISIslide	AvoidedLoss	True
345.823	0.25	Control	0.5405	0.0	Yes	2.677	0.023	n/a	GoodResponse	0	n/a	n/a	0	36	Cue	Neutral	True
346.074	4.0	Control	0.5405	0.0	Yes	2.677	0.001	n/a	GoodResponse	0	n/a	n/a	0	36	Fixation	Neutral	True
350.069	0.28	Control	0.5405	0.004	Yes	2.677	-0.004	4.0	GoodResponse	0	0.174	349.243	0	36	Target	Neutral	True
350.243	0.3	Control	0.5405	0.004	Yes	2.677	-0.004	4.0	GoodResponse	0	0.174	n/a	0	36	ButtonPress	Neutral	True
350.354	0.42	Control	0.5405	n/a	Yes	2.677	n/a	n/a	GoodResponse	0	n/a	n/a	0	36	Blank	Neutral	True
350.771	1.45	Control	0.5405	n/a	Yes	2.677	n/a	5.0	GoodResponse	0	0.035	349.806	0	36	Feedback	Neutral	True
352.226	2.677	Control	0.5405	n/a	Yes	2.677	n/a	n/a	GoodResponse	0	0.0	n/a	0	36	ISIslide	Neutral	True
354.917	0.25	Win2	0.5526	0.0	Yes	2.883	0.017	n/a	GoodResponse	1	n/a	n/a	1	37	Cue	Win	True
355.168	4.0	Win2	0.5526	0.0	Yes	2.883	0.001	n/a	GoodResponse	1	n/a	n/a	1	37	Fixation	Win	True
359.163	0.29	Win2	0.5526	0.004	Yes	2.883	-0.004	4.0	GoodResponse	1	0.181	358.344	1	37	Target	Win	True
359.344	0.3	Win2	0.5526	0.004	Yes	2.883	-0.004	4.0	GoodResponse	1	0.181	n/a	1	37	ButtonPress	Win	True
359.464	0.41	Win2	0.5526	n/a	Yes	2.883	n/a	n/a	GoodResponse	1	n/a	n/a	1	37	Blank	Win	True
359.865	1.45	Win2	0.5526	n/a	Yes	2.883	n/a	5.0	GoodResponse	1	0.014	358.879	1	37	Feedback	Win	True
361.32	2.883	Win2	0.5526	n/a	Yes	2.883	n/a	n/a	GoodResponse	1	0.0	n/a	1	37	ISIslide	Win	True
364.228	0.25	Lose2	0.5640999999999999	0.001	Yes	2.822	0.028	n/a	GoodResponse	0	n/a	n/a	1	38	Cue	AvoidedLoss	True
364.479	3.95	Lose2	0.5640999999999999	0.0	Yes	2.822	0.001	n/a	GoodResponse	0	n/a	n/a	1	38	Fixation	AvoidedLoss	True
368.424	0.3	Lose2	0.5640999999999999	0.004	Yes	2.822	-0.004	4.0	GoodResponse	0	0.201	367.625	1	38	Target	AvoidedLoss	True
368.625	0.3	Lose2	0.5640999999999999	0.004	Yes	2.822	-0.004	4.0	GoodResponse	0	0.201	n/a	1	38	ButtonPress	AvoidedLoss	True
368.725	0.4	Lose2	0.5640999999999999	n/a	Yes	2.822	n/a	n/a	GoodResponse	0	n/a	n/a	1	38	Blank	AvoidedLoss	True
369.126	1.45	Lose2	0.5640999999999999	n/a	Yes	2.822	n/a	5.0	GoodResponse	0	0.022	368.148	1	38	Feedback	AvoidedLoss	True
370.581	2.822	Lose2	0.5640999999999999	n/a	Yes	2.822	n/a	n/a	GoodResponse	0	0.0	n/a	1	38	ISIslide	AvoidedLoss	True
373.423	0.25	Win2	0.575	0.0	Yes	2.977	0.023	n/a	GoodResponse	1	n/a	n/a	2	39	Cue	Win	True
373.673	4.1	Win2	0.575	0.0	Yes	2.977	0.0	n/a	GoodResponse	1	n/a	n/a	2	39	Fixation	Win	True
377.769	0.31	Win2	0.575	0.004	Yes	2.977	-0.004	4.0	GoodResponse	1	0.183	376.952	2	39	Target	Win	True
377.952	0.3	Win2	0.575	0.004	Yes	2.977	-0.004	4.0	GoodResponse	1	0.183	n/a	2	39	ButtonPress	Win	True
378.087	0.39	Win2	0.575	n/a	Yes	2.977	n/a	n/a	GoodResponse	1	n/a	n/a	2	39	Blank	Win	True
378.471	1.45	Win2	0.575	n/a	Yes	2.977	n/a	5.0	GoodResponse	1	0.043	377.514	2	39	Feedback	Win	True
379.925	2.977	Win2	0.575	n/a	Yes	2.977	n/a	n/a	GoodResponse	1	0.0	n/a	2	39	ISIslide	Win	True
382.918	0.25	Win2	0.5854	0.0	Yes	2.732	0.018	n/a	GoodResponse	1	n/a	n/a	3	40	Cue	Win	True
383.169	3.95	Win2	0.5854	0.0	Yes	2.732	0.001	n/a	GoodResponse	1	n/a	n/a	3	40	Fixation	Win	True
387.114	0.32	Win2	0.5854	0.004	Yes	2.732	-0.004	4.0	GoodResponse	1	0.228	386.342	3	40	Target	Win	True
387.342	0.3	Win2	0.5854	0.004	Yes	2.732	-0.004	4.0	GoodResponse	1	0.228	n/a	3	40	ButtonPress	Win	True
387.448	0.38	Win2	0.5854	n/a	Yes	2.732	n/a	n/a	GoodResponse	1	n/a	n/a	3	40	Blank	Win	True
387.816	1.45	Win2	0.5854	n/a	Yes	2.732	n/a	5.0	GoodResponse	1	0.015	386.831	3	40	Feedback	Win	True
389.27	2.732	Win2	0.5854	n/a	Yes	2.732	n/a	n/a	GoodResponse	1	0.0	n/a	3	40	ISIslide	Win	True
392.028	0.25	Win2	0.5952000000000001	0.001	Yes	2.772	0.028	n/a	GoodResponse	1	n/a	n/a	4	41	Cue	Win	True
392.279	3.9	Win2	0.5952000000000001	0.0	Yes	2.772	0.001	n/a	GoodResponse	1	n/a	n/a	4	41	Fixation	Win	True
396.174	0.33	Win2	0.5952000000000001	0.004	Yes	2.772	-0.004	4.0	GoodResponse	1	0.173	395.347	4	41	Target	Win	True
396.347	0.3	Win2	0.5952000000000001	0.004	Yes	2.772	-0.004	4.0	GoodResponse	1	0.173	n/a	4	41	ButtonPress	Win	True
396.509	0.37	Win2	0.5952000000000001	n/a	Yes	2.772	n/a	n/a	GoodResponse	1	n/a	n/a	4	41	Blank	Win	True
396.876	1.45	Win2	0.5952000000000001	n/a	Yes	2.772	n/a	5.0	GoodResponse	1	0.027	395.903	4	41	Feedback	Win	True
398.331	2.772	Win2	0.5952000000000001	n/a	Yes	2.772	n/a	n/a	GoodResponse	1	0.0	n/a	4	41	ISIslide	Win	True
401.122	0.25	Control	0.6047	0.0	Yes	2.928	0.022	n/a	GoodResponse	0	n/a	n/a	4	42	Cue	Neutral	True
401.373	3.85	Control	0.6047	0.0	Yes	2.928	0.001	n/a	GoodResponse	0	n/a	n/a	4	42	Fixation	Neutral	True
405.218	0.34	Control	0.6047	0.004	Yes	2.928	-0.004	4.0	GoodResponse	0	0.28	404.498	4	42	Target	Neutral	True
405.498	0.3	Control	0.6047	0.004	Yes	2.928	-0.004	4.0	GoodResponse	0	0.28	n/a	4	42	ButtonPress	Neutral	True
405.569	0.36	Control	0.6047	n/a	Yes	2.928	n/a	n/a	GoodResponse	0	n/a	n/a	4	42	Blank	Neutral	True
405.92	1.45	Control	0.6047	n/a	Yes	2.928	n/a	5.0	GoodResponse	0	0.008	404.928	4	42	Feedback	Neutral	True
407.374	2.928	Control	0.6047	n/a	Yes	2.928	n/a	n/a	GoodResponse	0	0.0	n/a	4	42	ISIslide	Neutral	True
410.317	0.25	Win2	0.6136	0.0	Yes	3.183	0.017	n/a	GoodResponse	1	n/a	n/a	5	43	Cue	Win	True
410.567	4.0	Win2	0.6136	0.0	Yes	3.183	0.0	n/a	GoodResponse	1	n/a	n/a	5	43	Fixation	Win	True
414.563	0.35	Win2	0.6136	0.004	Yes	3.183	-0.004	4.0	GoodResponse	1	0.202	413.765	5	43	Target	Win	True
414.765	0.3	Win2	0.6136	0.004	Yes	3.183	-0.004	4.0	GoodResponse	1	0.202	n/a	5	43	ButtonPress	Win	True
414.914	0.35	Win2	0.6136	n/a	Yes	3.183	n/a	n/a	GoodResponse	1	n/a	n/a	5	43	Blank	Win	True
415.265	1.45	Win2	0.6136	n/a	Yes	3.183	n/a	5.0	GoodResponse	1	0.029	414.294	5	43	Feedback	Win	True
416.719	3.183	Win2	0.6136	n/a	Yes	3.183	n/a	n/a	GoodResponse	1	0.0	n/a	5	43	ISIslide	Win	True
419.929	0.25	Win2	0.6222	0.0	Yes	2.971	0.029	n/a	GoodResponse	1	n/a	n/a	6	44	Cue	Win	True
420.179	4.0	Win2	0.6222	0.001	Yes	2.971	0.0	n/a	GoodResponse	1	n/a	n/a	6	44	Fixation	Win	True
424.175	0.36	Win2	0.6222	0.004	Yes	2.971	-0.004	4.0	GoodResponse	1	0.235	423.41	6	44	Target	Win	True
424.41	0.3	Win2	0.6222	0.004	Yes	2.971	-0.004	4.0	GoodResponse	1	0.235	n/a	6	44	ButtonPress	Win	True
424.543	0.34	Win2	0.6222	n/a	Yes	2.971	n/a	n/a	GoodResponse	1	n/a	n/a	6	44	Blank	Win	True
424.877	1.45	Win2	0.6222	n/a	Yes	2.971	n/a	5.0	GoodResponse	1	0.027	423.904	6	44	Feedback	Win	True
426.331	2.971	Win2	0.6222	n/a	Yes	2.971	n/a	n/a	GoodResponse	1	0.0	n/a	6	44	ISIslide	Win	True
429.323	0.25	Control	0.6304	0.001	Yes	2.877	0.023	n/a	GoodResponse	0	n/a	n/a	6	45	Cue	Neutral	True
429.574	4.1	Control	0.6304	0.0	Yes	2.877	0.001	n/a	GoodResponse	0	n/a	n/a	6	45	Fixation	Neutral	True
433.67	0.37	Control	0.6304	0.003	Yes	2.877	-0.003	4.0	GoodResponse	0	0.233	432.903	6	45	Target	Neutral	True
433.903	0.3	Control	0.6304	0.003	Yes	2.877	-0.003	4.0	GoodResponse	0	0.233	n/a	6	45	ButtonPress	Neutral	True
434.054	0.33	Control	0.6304	n/a	Yes	2.877	n/a	n/a	GoodResponse	0	n/a	n/a	6	45	Blank	Neutral	True
434.372	1.45	Control	0.6304	n/a	Yes	2.877	n/a	5.0	GoodResponse	0	0.044	433.416	6	45	Feedback	Neutral	True
435.826	2.877	Control	0.6304	n/a	Yes	2.877	n/a	n/a	GoodResponse	0	0.0	n/a	6	45	ISIslide	Neutral	True
438.718	0.25	Lose2	0.6383	0.0	Yes	3.382	0.018	n/a	GoodResponse	0	n/a	n/a	6	46	Cue	AvoidedLoss	True
438.969	4.0	Lose2	0.6383	0.0	Yes	3.382	0.001	n/a	GoodResponse	0	n/a	n/a	6	46	Fixation	AvoidedLoss	True
442.964	0.38	Lose2	0.6383	0.004	Yes	3.382	-0.004	4.0	GoodResponse	0	0.2	442.164	6	46	Target	AvoidedLoss	True
443.164	0.3	Lose2	0.6383	0.004	Yes	3.382	-0.004	4.0	GoodResponse	0	0.2	n/a	6	46	ButtonPress	AvoidedLoss	True
443.349	0.32	Lose2	0.6383	n/a	Yes	3.382	n/a	n/a	GoodResponse	0	n/a	n/a	6	46	Blank	AvoidedLoss	True
443.666	1.45	Lose2	0.6383	n/a	Yes	3.382	n/a	5.0	GoodResponse	0	0.018	442.684	6	46	Feedback	AvoidedLoss	True
445.121	3.382	Lose2	0.6383	n/a	Yes	3.382	n/a	n/a	GoodResponse	0	0.0	n/a	6	46	ISIslide	AvoidedLoss	True
448.531	0.25	Lose2	0.6457999999999999	0.0	Yes	2.669	0.031	n/a	GoodResponse	0	n/a	n/a	6	47	Cue	AvoidedLoss	True
448.782	4.0	Lose2	0.6457999999999999	0.0	Yes	2.669	0.001	n/a	GoodResponse	0	n/a	n/a	6	47	Fixation	AvoidedLoss	True
452.777	0.39	Lose2	0.6457999999999999	0.004	Yes	2.669	-0.004	4.0	GoodResponse	0	0.218	451.995	6	47	Target	AvoidedLoss	True
452.995	0.3	Lose2	0.6457999999999999	0.004	Yes	2.669	-0.004	4.0	GoodResponse	0	0.218	n/a	6	47	ButtonPress	AvoidedLoss	True
453.178	0.31	Lose2	0.6457999999999999	n/a	Yes	2.669	n/a	n/a	GoodResponse	0	n/a	n/a	6	47	Blank	AvoidedLoss	True
453.479	1.45	Lose2	0.6457999999999999	n/a	Yes	2.669	n/a	5.0	GoodResponse	0	0.009	452.488	6	47	Feedback	AvoidedLoss	True
454.934	2.669	Lose2	0.6457999999999999	n/a	Yes	2.669	n/a	n/a	GoodResponse	0	0.0	n/a	6	47	ISIslide	AvoidedLoss	True
457.625	0.25	Lose2	0.6531	0.0	Yes	3.025	0.025	n/a	GoodResponse	0	n/a	n/a	6	48	Cue	AvoidedLoss	True
457.876	3.95	Lose2	0.6531	0.0	Yes	3.025	0.001	n/a	GoodResponse	0	n/a	n/a	6	48	Fixation	AvoidedLoss	True
461.821	0.4	Lose2	0.6531	0.004	Yes	3.025	-0.004	4.0	GoodResponse	0	0.338	461.159	6	48	Target	AvoidedLoss	True
462.159	0.3	Lose2	0.6531	0.004	Yes	3.025	-0.004	4.0	GoodResponse	0	0.338	n/a	6	48	ButtonPress	AvoidedLoss	True
462.222	0.3	Lose2	0.6531	n/a	Yes	3.025	n/a	n/a	GoodResponse	0	n/a	n/a	6	48	Blank	AvoidedLoss	True
462.523	1.45	Lose2	0.6531	n/a	Yes	3.025	n/a	5.0	GoodResponse	0	0.039	461.562	6	48	Feedback	AvoidedLoss	True
463.977	3.025	Lose2	0.6531	n/a	Yes	3.025	n/a	n/a	GoodResponse	0	0.0	n/a	6	48	ISIslide	AvoidedLoss	True
467.02	0.25	Control	0.66	0.0	Yes	2.88	0.02	n/a	GoodResponse	0	n/a	n/a	6	49	Cue	Neutral	True
467.271	4.0	Control	0.66	0.0	Yes	2.88	0.001	n/a	GoodResponse	0	n/a	n/a	6	49	Fixation	Neutral	True
471.266	0.41	Control	0.66	0.004	Yes	2.88	-0.004	4.0	GoodResponse	0	0.208	470.474	6	49	Target	Neutral	True
471.474	0.3	Control	0.66	0.004	Yes	2.88	-0.004	4.0	GoodResponse	0	0.208	n/a	6	49	ButtonPress	Neutral	True
471.684	0.29	Control	0.66	n/a	Yes	2.88	n/a	n/a	GoodResponse	0	n/a	n/a	6	49	Blank	Neutral	True
471.968	1.45	Control	0.66	n/a	Yes	2.88	n/a	5.0	GoodResponse	0	0.008	470.976	6	49	Feedback	Neutral	True
473.422	2.88	Control	0.66	n/a	Yes	2.88	n/a	n/a	GoodResponse	0	0.0	n/a	6	49	ISIslide	Neutral	True
476.314	0.25	Control	0.6667000000000001	0.0	Yes	2.786	0.014	n/a	GoodResponse	0	n/a	n/a	6	50	Cue	Neutral	True
476.565	4.0	Control	0.6667000000000001	0.0	Yes	2.786	0.001	n/a	GoodResponse	0	n/a	n/a	6	50	Fixation	Neutral	True
480.56	0.41	Control	0.6667000000000001	0.004	Yes	2.786	-0.004	4.0	GoodResponse	0	0.297	479.857	6	50	Target	Neutral	True
480.857	0.3	Control	0.6667000000000001	0.004	Yes	2.786	-0.004	4.0	GoodResponse	0	0.297	n/a	6	50	ButtonPress	Neutral	True
480.978	0.29	Control	0.6667000000000001	n/a	Yes	2.786	n/a	n/a	GoodResponse	0	n/a	n/a	6	50	Blank	Neutral	True
481.262	1.45	Control	0.6667000000000001	n/a	Yes	2.786	n/a	5.0	GoodResponse	0	0.032	480.294	6	50	Feedback	Neutral	True
482.717	2.786	Control	0.6667000000000001	n/a	Yes	2.786	n/a	n/a	GoodResponse	0	0.0	n/a	6	50	ISIslide	Neutral	True
485.525	0.25	Control	0.6731	0.0	Yes	2.725	0.025	n/a	GoodResponse	0	n/a	n/a	6	51	Cue	Neutral	True
485.776	3.95	Control	0.6731	0.0	Yes	2.725	0.001	n/a	GoodResponse	0	n/a	n/a	6	51	Fixation	Neutral	True
489.721	0.4	Control	0.6731	0.004	Yes	2.725	-0.004	4.0	GoodResponse	0	0.211	488.932	6	51	Target	Neutral	True
489.932	0.3	Control	0.6731	0.004	Yes	2.725	-0.004	4.0	GoodResponse	0	0.211	n/a	6	51	ButtonPress	Neutral	True
490.122	0.3	Control	0.6731	n/a	Yes	2.725	n/a	n/a	GoodResponse	0	n/a	n/a	6	51	Blank	Neutral	True
490.423	1.45	Control	0.6731	n/a	Yes	2.725	n/a	5.0	GoodResponse	0	0.041	489.464	6	51	Feedback	Neutral	True
491.878	2.725	Control	0.6731	n/a	Yes	2.725	n/a	n/a	GoodResponse	0	0.0	n/a	6	51	ISIslide	Neutral	True
494.619	0.25	Control	0.6792	0.0	Yes	2.631	0.019	n/a	GoodResponse	0	n/a	n/a	6	52	Cue	Neutral	True
494.87	4.05	Control	0.6792	0.0	Yes	2.631	0.001	n/a	GoodResponse	0	n/a	n/a	6	52	Fixation	Neutral	True
498.915	0.39	Control	0.6792	0.004	Yes	2.631	-0.004	4.0	GoodResponse	0	0.247	498.162	6	52	Target	Neutral	True
499.162	0.3	Control	0.6792	0.004	Yes	2.631	-0.004	4.0	GoodResponse	0	0.247	n/a	6	52	ButtonPress	Neutral	True
499.317	0.31	Control	0.6792	n/a	Yes	2.631	n/a	n/a	GoodResponse	0	n/a	n/a	6	52	Blank	Neutral	True
499.617	1.45	Control	0.6792	n/a	Yes	2.631	n/a	5.0	GoodResponse	0	0.018	498.635	6	52	Feedback	Neutral	True
501.072	2.631	Control	0.6792	n/a	Yes	2.631	n/a	n/a	GoodResponse	0	0.0	n/a	6	52	ISIslide	Neutral	True
503.73	0.25	Win2	0.6851999999999999	0.0	Yes	2.92	0.03	n/a	GoodResponse	1	n/a	n/a	7	53	Cue	Win	True
503.981	4.05	Win2	0.6851999999999999	0.0	Yes	2.92	0.001	n/a	GoodResponse	1	n/a	n/a	7	53	Fixation	Win	True
508.026	0.38	Win2	0.6851999999999999	0.004	Yes	2.92	-0.004	4.0	GoodResponse	1	0.174	507.2	7	53	Target	Win	True
508.2	0.3	Win2	0.6851999999999999	0.004	Yes	2.92	-0.004	4.0	GoodResponse	1	0.174	n/a	7	53	ButtonPress	Win	True
508.41	0.32	Win2	0.6851999999999999	n/a	Yes	2.92	n/a	n/a	GoodResponse	1	n/a	n/a	7	53	Blank	Win	True
508.728	1.45	Win2	0.6851999999999999	n/a	Yes	2.92	n/a	5.0	GoodResponse	1	0.028	507.756	7	53	Feedback	Win	True
510.182	2.92	Win2	0.6851999999999999	n/a	Yes	2.92	n/a	n/a	GoodResponse	1	0.0	n/a	7	53	ISIslide	Win	True
513.125	0.25	Win2	0.6909000000000001	0.0	Yes	2.725	0.025	n/a	GoodResponse	1	n/a	n/a	8	54	Cue	Win	True
513.375	3.95	Win2	0.6909000000000001	0.0	Yes	2.725	0.0	n/a	GoodResponse	1	n/a	n/a	8	54	Fixation	Win	True
517.321	0.37	Win2	0.6909000000000001	0.004	Yes	2.725	-0.004	4.0	GoodResponse	1	0.213	516.534	8	54	Target	Win	True
517.534	0.3	Win2	0.6909000000000001	0.004	Yes	2.725	-0.004	4.0	GoodResponse	1	0.213	n/a	8	54	ButtonPress	Win	True
517.705	0.33	Win2	0.6909000000000001	n/a	Yes	2.725	n/a	n/a	GoodResponse	1	n/a	n/a	8	54	Blank	Win	True
518.023	1.45	Win2	0.6909000000000001	n/a	Yes	2.725	n/a	5.0	GoodResponse	1	0.006	517.029	8	54	Feedback	Win	True
519.477	2.725	Win2	0.6909000000000001	n/a	Yes	2.725	n/a	n/a	GoodResponse	1	0.0	n/a	8	54	ISIslide	Win	True
522.219	0.25	Control	0.6964	0.0	Yes	3.031	0.019	n/a	GoodResponse	0	n/a	n/a	8	55	Cue	Neutral	True
522.469	3.95	Control	0.6964	0.0	Yes	3.031	0.0	n/a	GoodResponse	0	n/a	n/a	8	55	Fixation	Neutral	True
526.431	0.36	Control	0.6964	0.0	Yes	3.031	0.012	4.0	GoodResponse	0	0.237	525.668	8	55	Target	Neutral	True
526.668	0.3	Control	0.6964	0.0	Yes	3.031	0.012	4.0	GoodResponse	0	0.237	n/a	8	55	ButtonPress	Neutral	True
526.782	0.34	Control	0.6964	n/a	Yes	3.031	n/a	n/a	GoodResponse	0	n/a	n/a	8	55	Blank	Neutral	True
527.117	1.45	Control	0.6964	n/a	Yes	3.031	n/a	5.0	GoodResponse	0	0.03	526.147	8	55	Feedback	Neutral	True
528.571	3.031	Control	0.6964	n/a	Yes	3.031	n/a	n/a	GoodResponse	0	0.0	n/a	8	55	ISIslide	Neutral	True
531.63	0.25	Control	0.7018000000000001	0.0	Yes	2.82	0.03	n/a	GoodResponse	0	n/a	n/a	8	56	Cue	Neutral	True
531.881	3.95	Control	0.7018000000000001	0.0	Yes	2.82	0.001	n/a	GoodResponse	0	n/a	n/a	8	56	Fixation	Neutral	True
535.826	0.35	Control	0.7018000000000001	0.004	Yes	2.82	-0.004	4.0	GoodResponse	0	0.279	535.105	8	56	Target	Neutral	True
536.105	0.3	Control	0.7018000000000001	0.004	Yes	2.82	-0.004	4.0	GoodResponse	0	0.279	n/a	8	56	ButtonPress	Neutral	True
536.177	0.35	Control	0.7018000000000001	n/a	Yes	2.82	n/a	n/a	GoodResponse	0	n/a	n/a	8	56	Blank	Neutral	True
536.528	1.45	Control	0.7018000000000001	n/a	Yes	2.82	n/a	5.0	GoodResponse	0	0.034	535.562	8	56	Feedback	Neutral	True
537.982	2.82	Control	0.7018000000000001	n/a	Yes	2.82	n/a	n/a	GoodResponse	0	0.0	n/a	8	56	ISIslide	Neutral	True
540.824	0.25	Control	0.7069	0.0	Yes	3.476	0.024	n/a	GoodResponse	0	n/a	n/a	8	57	Cue	Neutral	True
541.075	4.0	Control	0.7069	0.0	Yes	3.476	0.001	n/a	GoodResponse	0	n/a	n/a	8	57	Fixation	Neutral	True
545.07	0.34	Control	0.7069	0.004	Yes	3.476	-0.004	4.0	GoodResponse	0	0.215	544.285	8	57	Target	Neutral	True
545.285	0.3	Control	0.7069	0.004	Yes	3.476	-0.004	4.0	GoodResponse	0	0.215	n/a	8	57	ButtonPress	Neutral	True
545.421	0.36	Control	0.7069	n/a	Yes	3.476	n/a	n/a	GoodResponse	0	n/a	n/a	8	57	Blank	Neutral	True
545.772	1.45	Control	0.7069	n/a	Yes	3.476	n/a	5.0	GoodResponse	0	0.009	544.781	8	57	Feedback	Neutral	True
547.227	3.476	Control	0.7069	n/a	Yes	3.476	n/a	n/a	GoodResponse	0	0.0	n/a	8	57	ISIslide	Neutral	True
550.721	0.25	Win2	0.7119	0.0	Yes	2.729	0.021	n/a	GoodResponse	1	n/a	n/a	9	58	Cue	Win	True
550.971	4.05	Win2	0.7119	0.0	Yes	2.729	0.0	n/a	GoodResponse	1	n/a	n/a	9	58	Fixation	Win	True
555.017	0.33	Win2	0.7119	0.004	Yes	2.729	-0.004	4.0	GoodResponse	1	0.244	554.261	9	58	Target	Win	True
555.261	0.3	Win2	0.7119	0.004	Yes	2.729	-0.004	4.0	GoodResponse	1	0.244	n/a	9	58	ButtonPress	Win	True
555.351	0.37	Win2	0.7119	n/a	Yes	2.729	n/a	n/a	GoodResponse	1	n/a	n/a	9	58	Blank	Win	True
555.719	1.45	Win2	0.7119	n/a	Yes	2.729	n/a	5.0	GoodResponse	1	0.014	554.733	9	58	Feedback	Win	True
557.173	2.729	Win2	0.7119	n/a	Yes	2.729	n/a	n/a	GoodResponse	1	0.0	n/a	9	58	ISIslide	Win	True
559.915	0.25	Lose2	0.7167	0.0	Yes	2.685	0.015	n/a	GoodResponse	0	n/a	n/a	9	59	Cue	AvoidedLoss	True
560.166	4.0	Lose2	0.7167	0.0	Yes	2.685	0.001	n/a	GoodResponse	0	n/a	n/a	9	59	Fixation	AvoidedLoss	True
564.161	0.32	Lose2	0.7167	0.004	Yes	2.685	-0.004	4.0	GoodResponse	0	0.214	563.375	9	59	Target	AvoidedLoss	True
564.375	0.3	Lose2	0.7167	0.004	Yes	2.685	-0.004	4.0	GoodResponse	0	0.214	n/a	9	59	ButtonPress	AvoidedLoss	True
564.495	0.38	Lose2	0.7167	n/a	Yes	2.685	n/a	n/a	GoodResponse	0	n/a	n/a	9	59	Blank	AvoidedLoss	True
564.863	1.45	Lose2	0.7167	n/a	Yes	2.685	n/a	5.0	GoodResponse	0	0.04	563.903	9	59	Feedback	AvoidedLoss	True
566.317	2.685	Lose2	0.7167	n/a	Yes	2.685	n/a	n/a	GoodResponse	0	0.0	n/a	9	59	ISIslide	AvoidedLoss	True
569.025	0.25	Control	0.7212999999999999	0.001	Yes	2.675	0.025	n/a	GoodResponse	0	n/a	n/a	9	60	Cue	Neutral	False
569.276	4.0	Control	0.7212999999999999	0.0	Yes	2.675	0.001	2.0	GoodResponse	0	0.478	568.754	9	60	Fixation	Neutral	False
569.754	0.3	Control	0.7212999999999999	0.0	Yes	2.675	0.001	2.0	GoodResponse	0	0.478	n/a	9	60	ButtonPress	Neutral	False
573.271	0.31	Control	0.7212999999999999	0.004	Yes	2.675	-0.004	4.0	GoodResponse	0	0.233	572.504	9	60	Target	Neutral	False
573.504	0.3	Control	0.7212999999999999	0.004	Yes	2.675	-0.004	4.0	GoodResponse	0	0.233	n/a	9	60	ButtonPress	Neutral	False
573.589	0.39	Control	0.7212999999999999	n/a	Yes	2.675	n/a	n/a	GoodResponse	0	n/a	n/a	9	60	Blank	Neutral	False
573.974	1.45	Control	0.7212999999999999	n/a	Yes	2.675	n/a	5.0	GoodResponse	0	0.005	572.979	9	60	Feedback	Neutral	False
575.428	2.675	Control	0.7212999999999999	n/a	Yes	2.675	n/a	n/a	GoodResponse	0	0.0	n/a	9	60	ISIslide	Neutral	False
578.119	0.25	Lose2	0.7097	0.0	No	2.981	0.019	n/a	NoResponse	-1	n/a	n/a	8	61	Cue	Loss	True
578.37	4.0	Lose2	0.7097	0.0	No	2.981	0.001	n/a	NoResponse	-1	n/a	n/a	8	61	Fixation	Loss	True
582.365	0.3	Lose2	0.7097	0.004	No	2.981	-0.004	4.0	NoResponse	-1	0.47	581.835	8	61	Target	Loss	True
582.666	0.4	Lose2	0.7097	n/a	No	2.981	n/a	n/a	NoResponse	-1	n/a	n/a	8	61	Blank	Loss	True
582.835	0.3	Lose2	0.7097	0.004	No	2.981	-0.004	4.0	NoResponse	-1	0.47	n/a	8	61	ButtonPress	Loss	True
583.068	1.45	Lose2	0.7097	n/a	No	2.981	n/a	5.0	NoResponse	-1	0.03	582.098	8	61	Feedback	Loss	True
584.522	2.981	Lose2	0.7097	n/a	No	2.981	n/a	n/a	NoResponse	-1	0.0	n/a	8	61	ISIslide	Loss	True
587.514	0.25	Lose2	0.6984	0.0	No	2.886	0.014	n/a	LatePress	-1	n/a	n/a	7	62	Cue	Loss	True
587.765	3.9	Lose2	0.6984	0.0	No	2.886	0.001	n/a	LatePress	-1	n/a	n/a	7	62	Fixation	Loss	True
591.66	0.29	Lose2	0.6984	0.004	No	2.886	-0.004	4.0	LatePress	-1	0.297	590.957	7	62	Target	Loss	True
591.957	0.3	Lose2	0.6984	0.004	No	2.886	-0.004	4.0	LatePress	-1	0.297	n/a	7	62	ButtonPress	Loss	True
591.961	0.41	Lose2	0.6984	n/a	No	2.886	n/a	n/a	LatePress	-1	n/a	n/a	7	62	Blank	Loss	True
592.362	1.45	Lose2	0.6984	n/a	No	2.886	n/a	5.0	LatePress	-1	0.005	591.367	7	62	Feedback	Loss	True
593.816	2.886	Lose2	0.6984	n/a	No	2.886	n/a	n/a	LatePress	-1	0.0	n/a	7	62	ISIslide	Loss	True
596.725	0.25	Lose2	0.7031000000000001	0.0	Yes	2.625	0.025	n/a	GoodResponse	0	n/a	n/a	7	63	Cue	AvoidedLoss	True
596.976	4.05	Lose2	0.7031000000000001	0.0	Yes	2.625	0.001	n/a	GoodResponse	0	n/a	n/a	7	63	Fixation	AvoidedLoss	True
601.021	0.28	Lose2	0.7031000000000001	0.004	Yes	2.625	-0.004	4.0	GoodResponse	0	0.182	600.203	7	63	Target	AvoidedLoss	True
601.203	0.3	Lose2	0.7031000000000001	0.004	Yes	2.625	-0.004	4.0	GoodResponse	0	0.182	n/a	7	63	ButtonPress	AvoidedLoss	True
601.305	0.42	Lose2	0.7031000000000001	n/a	Yes	2.625	n/a	n/a	GoodResponse	0	n/a	n/a	7	63	Blank	AvoidedLoss	True
601.723	1.45	Lose2	0.7031000000000001	n/a	Yes	2.625	n/a	5.0	GoodResponse	0	0.009	600.732	7	63	Feedback	AvoidedLoss	True
603.178	2.625	Lose2	0.7031000000000001	n/a	Yes	2.625	n/a	n/a	GoodResponse	0	0.0	n/a	7	63	ISIslide	AvoidedLoss	True
605.819	0.25	Win2	0.7077	0.0	Yes	3.131	0.019	n/a	GoodResponse	1	n/a	n/a	8	64	Cue	Win	True
606.07	4.15	Win2	0.7077	0.0	Yes	3.131	0.001	n/a	GoodResponse	1	n/a	n/a	8	64	Fixation	Win	True
610.216	0.27	Win2	0.7077	0.003	Yes	3.131	-0.003	4.0	GoodResponse	1	0.193	609.409	8	64	Target	Win	True
610.409	0.3	Win2	0.7077	0.003	Yes	3.131	-0.003	4.0	GoodResponse	1	0.193	n/a	8	64	ButtonPress	Win	True
610.5	0.43	Win2	0.7077	n/a	Yes	3.131	n/a	n/a	GoodResponse	1	n/a	n/a	8	64	Blank	Win	True
610.918	1.45	Win2	0.7077	n/a	Yes	3.131	n/a	5.0	GoodResponse	1	0.034	609.952	8	64	Feedback	Win	True
612.372	3.131	Win2	0.7077	n/a	Yes	3.131	n/a	n/a	GoodResponse	1	0.0	n/a	8	64	ISIslide	Win	True
615.515	0.25	Control	0.7121	0.0	Yes	2.785	0.015	n/a	GoodResponse	0	n/a	n/a	8	65	Cue	Neutral	True
615.765	4.0	Control	0.7121	0.001	Yes	2.785	0.0	n/a	GoodResponse	0	n/a	n/a	8	65	Fixation	Neutral	True
619.761	0.26	Control	0.7121	0.004	Yes	2.785	-0.004	4.0	GoodResponse	0	0.258	619.019	8	65	Target	Neutral	True
620.019	0.3	Control	0.7121	0.004	Yes	2.785	-0.004	4.0	GoodResponse	0	0.258	n/a	8	65	ButtonPress	Neutral	True
620.028	0.44	Control	0.7121	n/a	Yes	2.785	n/a	n/a	GoodResponse	0	n/a	n/a	8	65	Blank	Neutral	True
620.463	1.45	Control	0.7121	n/a	Yes	2.785	n/a	5.0	GoodResponse	0	0.001	619.464	8	65	Feedback	Neutral	True
621.917	2.785	Control	0.7121	n/a	Yes	2.785	n/a	n/a	GoodResponse	0	0.0	n/a	8	65	ISIslide	Neutral	True
624.726	0.25	Win2	0.7164	0.0	Yes	2.774	0.026	n/a	GoodResponse	1	n/a	n/a	9	66	Cue	Win	True
624.976	3.9	Win2	0.7164	0.001	Yes	2.774	0.0	n/a	GoodResponse	1	n/a	n/a	9	66	Fixation	Win	True
628.871	0.25	Win2	0.7164	0.005	Yes	2.774	-0.005	4.0	GoodResponse	1	0.23	628.101	9	66	Target	Win	True
629.101	0.3	Win2	0.7164	0.005	Yes	2.774	-0.005	4.0	GoodResponse	1	0.23	n/a	9	66	ButtonPress	Win	True
629.122	0.45	Win2	0.7164	n/a	Yes	2.774	n/a	n/a	GoodResponse	1	n/a	n/a	9	66	Blank	Win	True
629.574	1.45	Win2	0.7164	n/a	Yes	2.774	n/a	5.0	GoodResponse	1	0.011	628.585	9	66	Feedback	Win	True
631.028	2.774	Win2	0.7164	n/a	Yes	2.774	n/a	n/a	GoodResponse	1	0.0	n/a	9	66	ISIslide	Win	True
633.82	0.25	Control	0.7206	0.0	Yes	2.73	0.02	n/a	GoodResponse	0	n/a	n/a	9	67	Cue	Neutral	True
634.07	3.95	Control	0.7206	0.0	Yes	2.73	0.0	n/a	GoodResponse	0	n/a	n/a	9	67	Fixation	Neutral	True
638.032	0.24	Control	0.7206	0.0	Yes	2.73	0.012	4.0	GoodResponse	0	0.21	637.242	9	67	Target	Neutral	True
638.242	0.3	Control	0.7206	0.0	Yes	2.73	0.012	4.0	GoodResponse	0	0.21	n/a	9	67	ButtonPress	Neutral	True
638.266	0.46	Control	0.7206	n/a	Yes	2.73	n/a	n/a	GoodResponse	0	n/a	n/a	9	67	Blank	Neutral	True
638.718	1.45	Control	0.7206	n/a	Yes	2.73	n/a	5.0	GoodResponse	0	0.038	637.756	9	67	Feedback	Neutral	True
640.172	2.73	Control	0.7206	n/a	Yes	2.73	n/a	n/a	GoodResponse	0	0.0	n/a	9	67	ISIslide	Neutral	True
642.93	0.25	Win2	0.7101000000000001	0.0	No	3.07	0.03	n/a	NoResponse	0	n/a	n/a	9	68	Cue	MissedWin	True
643.181	4.0	Win2	0.7101000000000001	0.0	No	3.07	0.001	n/a	NoResponse	0	n/a	n/a	9	68	Fixation	MissedWin	True
647.176	0.23	Win2	0.7101000000000001	0.004	No	3.07	-0.004	4.0	NoResponse	0	0.252	646.428	9	68	Target	MissedWin	True
647.41	0.47	Win2	0.7101000000000001	n/a	No	3.07	n/a	n/a	NoResponse	0	n/a	n/a	9	68	Blank	MissedWin	True
647.428	0.3	Win2	0.7101000000000001	0.004	No	3.07	-0.004	4.0	NoResponse	0	0.252	n/a	9	68	ButtonPress	MissedWin	True
647.878	1.45	Win2	0.7101000000000001	n/a	No	3.07	n/a	5.0	NoResponse	0	0.049	646.927	9	68	Feedback	MissedWin	True
649.333	3.07	Win2	0.7101000000000001	n/a	No	3.07	n/a	n/a	NoResponse	0	0.0	n/a	9	68	ISIslide	MissedWin	True
652.425	0.25	Win2	0.7143	0.0	Yes	3.225	0.025	n/a	GoodResponse	1	n/a	n/a	10	69	Cue	Win	True
652.676	3.95	Win2	0.7143	0.0	Yes	3.225	0.001	n/a	GoodResponse	1	n/a	n/a	10	69	Fixation	Win	True
656.621	0.22	Win2	0.7143	0.004	Yes	3.225	-0.004	4.0	GoodResponse	1	0.192	655.813	10	69	Target	Win	True
656.813	0.3	Win2	0.7143	0.004	Yes	3.225	-0.004	4.0	GoodResponse	1	0.192	n/a	10	69	ButtonPress	Win	True
656.855	0.48	Win2	0.7143	n/a	Yes	3.225	n/a	n/a	GoodResponse	1	n/a	n/a	10	69	Blank	Win	True
657.323	1.45	Win2	0.7143	n/a	Yes	3.225	n/a	5.0	GoodResponse	1	0.019	656.342	10	69	Feedback	Win	True
658.778	3.225	Win2	0.7143	n/a	Yes	3.225	n/a	n/a	GoodResponse	1	0.0	n/a	10	69	ISIslide	Win	True
662.021	0.25	Lose2	0.7182999999999999	0.0	Yes	3.029	0.021	n/a	GoodResponse	0	n/a	n/a	10	70	Cue	AvoidedLoss	True
662.271	4.05	Lose2	0.7182999999999999	0.001	Yes	3.029	0.0	n/a	GoodResponse	0	n/a	n/a	10	70	Fixation	AvoidedLoss	True
666.317	0.21	Lose2	0.7182999999999999	0.004	Yes	3.029	-0.004	4.0	GoodResponse	0	0.202	665.519	10	70	Target	AvoidedLoss	True
666.519	0.3	Lose2	0.7182999999999999	0.004	Yes	3.029	-0.004	4.0	GoodResponse	0	0.202	n/a	10	70	ButtonPress	AvoidedLoss	True
666.534	0.49	Lose2	0.7182999999999999	n/a	Yes	3.029	n/a	n/a	GoodResponse	0	n/a	n/a	10	70	Blank	AvoidedLoss	True
667.019	1.45	Lose2	0.7182999999999999	n/a	Yes	3.029	n/a	5.0	GoodResponse	0	0.03	666.049	10	70	Feedback	AvoidedLoss	True
668.473	3.029	Lose2	0.7182999999999999	n/a	Yes	3.029	n/a	n/a	GoodResponse	0	0.0	n/a	10	70	ISIslide	AvoidedLoss	True
671.516	0.25	Win2	0.7082999999999999	0.0	No	2.734	0.016	n/a	NoResponse	0	n/a	n/a	10	71	Cue	MissedWin	True
671.767	4.05	Win2	0.7082999999999999	0.0	No	2.734	0.001	n/a	NoResponse	0	n/a	n/a	10	71	Fixation	MissedWin	True
675.812	0.2	Win2	0.7082999999999999	0.004	No	2.734	-0.004	4.0	NoResponse	0	0.219	675.031	10	71	Target	MissedWin	True
676.013	0.5	Win2	0.7082999999999999	n/a	No	2.734	n/a	n/a	NoResponse	0	n/a	n/a	10	71	Blank	MissedWin	True
676.031	0.3	Win2	0.7082999999999999	0.004	No	2.734	-0.004	4.0	NoResponse	0	0.219	n/a	10	71	ButtonPress	MissedWin	True
676.514	1.45	Win2	0.7082999999999999	n/a	No	2.734	n/a	5.0	NoResponse	0	0.047	675.561	10	71	Feedback	MissedWin	True
677.969	2.734	Win2	0.7082999999999999	n/a	No	2.734	n/a	n/a	NoResponse	0	0.0	n/a	10	71	ISIslide	MissedWin	True
680.727	0.25	Win2	0.6986	0.0	No	2.773	0.027	n/a	NoResponse	0	n/a	n/a	10	72	Cue	MissedWin	True
680.978	4.1	Win2	0.6986	0.0	No	2.773	0.001	n/a	NoResponse	0	n/a	n/a	10	72	Fixation	MissedWin	True
685.073	0.19	Win2	0.6986	0.004	No	2.773	-0.004	4.0	NoResponse	0	0.255	684.328	10	72	Target	MissedWin	True
685.274	0.51	Win2	0.6986	n/a	No	2.773	n/a	n/a	NoResponse	0	n/a	n/a	10	72	Blank	MissedWin	True
685.328	0.3	Win2	0.6986	0.004	No	2.773	-0.004	4.0	NoResponse	0	0.255	n/a	10	72	ButtonPress	MissedWin	True
685.775	1.45	Win2	0.6986	n/a	No	2.773	n/a	5.0	NoResponse	0	0.006	684.781	10	72	Feedback	MissedWin	True
687.23	2.773	Win2	0.6986	n/a	No	2.773	n/a	n/a	NoResponse	0	0.0	n/a	10	72	ISIslide	MissedWin	True
690.021	0.25	Win2	0.6892	0.0	No	2.679	0.021	n/a	NoResponse	0	n/a	n/a	10	73	Cue	MissedWin	True
690.272	4.0	Win2	0.6892	0.0	No	2.679	0.001	n/a	NoResponse	0	n/a	n/a	10	73	Fixation	MissedWin	True
694.267	0.18	Win2	0.6892	0.004	No	2.679	-0.004	4.0	NoResponse	0	0.2	693.467	10	73	Target	MissedWin	True
694.451	0.52	Win2	0.6892	n/a	No	2.679	n/a	n/a	NoResponse	0	n/a	n/a	10	73	Blank	MissedWin	True
694.467	0.3	Win2	0.6892	0.004	No	2.679	-0.004	4.0	NoResponse	0	0.2	n/a	10	73	ButtonPress	MissedWin	True
694.969	1.45	Win2	0.6892	n/a	No	2.679	n/a	5.0	NoResponse	0	0.031	694.0	10	73	Feedback	MissedWin	True
696.424	2.679	Win2	0.6892	n/a	No	2.679	n/a	n/a	NoResponse	0	0.0	n/a	10	73	ISIslide	MissedWin	True
699.115	0.25	Lose2	0.68	0.0	No	2.635	0.015	n/a	NoResponse	-1	n/a	n/a	9	74	Cue	Loss	True
699.366	4.05	Lose2	0.68	0.0	No	2.635	0.001	n/a	NoResponse	-1	n/a	n/a	9	74	Fixation	Loss	True
703.411	0.17	Lose2	0.68	0.004	No	2.635	-0.004	4.0	NoResponse	-1	0.249	702.66	9	74	Target	Loss	True
703.595	0.53	Lose2	0.68	n/a	No	2.635	n/a	n/a	NoResponse	-1	n/a	n/a	9	74	Blank	Loss	True
703.66	0.3	Lose2	0.68	0.004	No	2.635	-0.004	4.0	NoResponse	-1	0.249	n/a	9	74	ButtonPress	Loss	True
704.114	1.45	Lose2	0.68	n/a	No	2.635	n/a	5.0	NoResponse	-1	0.008	703.122	9	74	Feedback	Loss	True
705.568	2.635	Lose2	0.68	n/a	No	2.635	n/a	n/a	NoResponse	-1	0.0	n/a	9	74	ISIslide	Loss	True
708.226	0.25	Lose2	0.6711	0.0	No	2.924	0.026	n/a	NoResponse	-1	n/a	n/a	8	75	Cue	Loss	True
708.477	3.95	Lose2	0.6711	0.0	No	2.924	0.001	n/a	NoResponse	-1	n/a	n/a	8	75	Fixation	Loss	True
712.422	0.16	Lose2	0.6711	0.004	No	2.924	-0.004	4.0	NoResponse	-1	0.27	711.692	8	75	Target	Loss	True
712.589	0.54	Lose2	0.6711	n/a	No	2.924	n/a	n/a	NoResponse	-1	n/a	n/a	8	75	Blank	Loss	True
712.692	0.3	Lose2	0.6711	0.004	No	2.924	-0.004	4.0	NoResponse	-1	0.27	n/a	8	75	ButtonPress	Loss	True
713.124	1.45	Lose2	0.6711	n/a	No	2.924	n/a	5.0	NoResponse	-1	0.022	712.146	8	75	Feedback	Loss	True
714.578	2.924	Lose2	0.6711	n/a	No	2.924	n/a	n/a	NoResponse	-1	0.0	n/a	8	75	ISIslide	Loss	True
717.52	0.25	Control	0.6623	0.0	No	3.23	0.02	n/a	NoResponse	0	n/a	n/a	8	76	Cue	Neutral	True
717.771	4.05	Control	0.6623	0.0	No	3.23	0.001	n/a	NoResponse	0	n/a	n/a	8	76	Fixation	Neutral	True
721.817	0.15	Control	0.6623	0.003	No	3.23	-0.003	4.0	NoResponse	0	0.255	721.072	8	76	Target	Neutral	True
721.967	0.55	Control	0.6623	n/a	No	3.23	n/a	n/a	NoResponse	0	n/a	n/a	8	76	Blank	Neutral	True
722.072	0.3	Control	0.6623	0.003	No	3.23	-0.003	4.0	NoResponse	0	0.255	n/a	8	76	ButtonPress	Neutral	True
722.519	1.45	Control	0.6623	n/a	No	3.23	n/a	5.0	NoResponse	0	0.043	721.562	8	76	Feedback	Neutral	True
723.973	3.23	Control	0.6623	n/a	No	3.23	n/a	n/a	NoResponse	0	0.0	n/a	8	76	ISIslide	Neutral	True
727.216	0.25	Lose2	0.6537999999999999	0.0	No	2.584	0.016	n/a	NoResponse	-1	n/a	n/a	7	77	Cue	Loss	False
727.467	3.95	Lose2	0.6537999999999999	0.0	No	2.584	0.001	4.0	NoResponse	-1	0.006	726.473	7	77	Fixation	Loss	False
727.473	0.3	Lose2	0.6537999999999999	0.0	No	2.584	0.001	4.0	NoResponse	-1	0.006	n/a	7	77	ButtonPress	Loss	False
731.412	0.15	Lose2	0.6537999999999999	0.004	No	2.584	-0.004	4.0	NoResponse	-1	0.244	730.656	7	77	Target	Loss	False
731.562	0.55	Lose2	0.6537999999999999	n/a	No	2.584	n/a	n/a	NoResponse	-1	n/a	n/a	7	77	Blank	Loss	False
731.656	0.3	Lose2	0.6537999999999999	0.004	No	2.584	-0.004	4.0	NoResponse	-1	0.244	n/a	7	77	ButtonPress	Loss	False
732.114	1.45	Lose2	0.6537999999999999	n/a	No	2.584	n/a	5.0	NoResponse	-1	0.008	731.122	7	77	Feedback	Loss	False
733.568	2.584	Lose2	0.6537999999999999	n/a	No	2.584	n/a	n/a	NoResponse	-1	0.0	n/a	7	77	ISIslide	Loss	False
