onset	duration	cue_type	current_mean_accuracy	duration_error	is_hit	isi_adjusted	onset_delay	response	response_type	reward	rt	rt_time	total_reward	trial_number	trial_phase	trial_type	one_press
11.098	0.25	Control	1.0	0.0	Yes	2.952	-0.002	n/a	GoodResponse	0	n/a	n/a	0	0	Cue	Neutral	True
11.349	3.85	Control	1.0	0.0	Yes	2.952	0.001	n/a	GoodResponse	0	n/a	n/a	0	0	Fixation	Neutral	True
15.194	0.4	Control	1.0	0.004	Yes	2.952	-0.004	2.0	GoodResponse	0	0.253	14.447	0	0	Target	Neutral	True
15.447	0.3	Control	1.0	0.004	Yes	2.952	-0.004	2.0	GoodResponse	0	0.253	n/a	0	0	ButtonPress	Neutral	True
15.595	0.3	Control	1.0	n/a	Yes	2.952	n/a	n/a	GoodResponse	0	n/a	n/a	0	0	Blank	Neutral	True
15.896	1.45	Control	1.0	n/a	Yes	2.952	n/a	5.0	GoodResponse	0	0.03	14.926	0	0	Feedback	Neutral	True
17.35	2.952	Control	1.0	n/a	Yes	2.952	n/a	n/a	GoodResponse	0	0.0	n/a	0	0	ISIslide	Neutral	True
20.326	0.25	Lose2	1.0	0.0	Yes	2.774	0.026	n/a	GoodResponse	0	n/a	n/a	0	1	Cue	AvoidedLoss	True
20.576	4.0	Lose2	1.0	0.0	Yes	2.774	0.0	n/a	GoodResponse	0	n/a	n/a	0	1	Fixation	AvoidedLoss	True
24.572	0.39	Lose2	1.0	0.004	Yes	2.774	-0.004	2.0	GoodResponse	0	0.207	23.779	0	1	Target	AvoidedLoss	True
24.779	0.3	Lose2	1.0	0.004	Yes	2.774	-0.004	2.0	GoodResponse	0	0.207	n/a	0	1	ButtonPress	AvoidedLoss	True
24.973	0.31	Lose2	1.0	n/a	Yes	2.774	n/a	n/a	GoodResponse	0	n/a	n/a	0	1	Blank	AvoidedLoss	True
25.274	1.45	Lose2	1.0	n/a	Yes	2.774	n/a	5.0	GoodResponse	0	0.018	24.292	0	1	Feedback	AvoidedLoss	True
26.728	2.774	Lose2	1.0	n/a	Yes	2.774	n/a	n/a	GoodResponse	0	0.0	n/a	0	1	ISIslide	AvoidedLoss	True
29.52	0.25	Control	1.0	0.0	Yes	2.58	0.02	n/a	GoodResponse	0	n/a	n/a	0	2	Cue	Neutral	True
29.77	4.1	Control	1.0	0.001	Yes	2.58	0.0	n/a	GoodResponse	0	n/a	n/a	0	2	Fixation	Neutral	True
33.866	0.38	Control	1.0	0.004	Yes	2.58	-0.004	2.0	GoodResponse	0	0.202	33.068	0	2	Target	Neutral	True
34.068	0.3	Control	1.0	0.004	Yes	2.58	-0.004	2.0	GoodResponse	0	0.202	n/a	0	2	ButtonPress	Neutral	True
34.251	0.32	Control	1.0	n/a	Yes	2.58	n/a	n/a	GoodResponse	0	n/a	n/a	0	2	Blank	Neutral	True
34.568	1.45	Control	1.0	n/a	Yes	2.58	n/a	5.0	GoodResponse	0	0.04	33.608	0	2	Feedback	Neutral	True
36.022	2.58	Control	1.0	n/a	Yes	2.58	n/a	n/a	GoodResponse	0	0.0	n/a	0	2	ISIslide	Neutral	True
38.614	0.25	Win2	1.0	0.0	Yes	2.836	0.014	n/a	GoodResponse	1	n/a	n/a	1	3	Cue	Win	True
38.864	3.95	Win2	1.0	0.0	Yes	2.836	0.0	n/a	GoodResponse	1	n/a	n/a	1	3	Fixation	Win	True
42.809	0.37	Win2	1.0	0.005	Yes	2.836	-0.005	2.0	GoodResponse	1	0.181	41.99	1	3	Target	Win	True
42.99	0.3	Win2	1.0	0.005	Yes	2.836	-0.005	2.0	GoodResponse	1	0.181	n/a	1	3	ButtonPress	Win	True
43.194	0.33	Win2	1.0	n/a	Yes	2.836	n/a	n/a	GoodResponse	1	n/a	n/a	1	3	Blank	Win	True
43.512	1.45	Win2	1.0	n/a	Yes	2.836	n/a	5.0	GoodResponse	1	0.023	42.535	1	3	Feedback	Win	True
44.966	2.836	Win2	1.0	n/a	Yes	2.836	n/a	n/a	GoodResponse	1	0.0	n/a	1	3	ISIslide	Win	True
47.824	0.25	Win2	1.0	0.0	Yes	3.276	0.024	n/a	GoodResponse	1	n/a	n/a	2	4	Cue	Win	True
48.075	4.0	Win2	1.0	0.0	Yes	3.276	0.001	n/a	GoodResponse	1	n/a	n/a	2	4	Fixation	Win	True
52.07	0.36	Win2	1.0	0.004	Yes	3.276	-0.004	2.0	GoodResponse	1	0.212	51.282	2	4	Target	Win	True
52.282	0.3	Win2	1.0	0.004	Yes	3.276	-0.004	2.0	GoodResponse	1	0.212	n/a	2	4	ButtonPress	Win	True
52.438	0.34	Win2	1.0	n/a	Yes	3.276	n/a	n/a	GoodResponse	1	n/a	n/a	2	4	Blank	Win	True
52.773	1.45	Win2	1.0	n/a	Yes	3.276	n/a	5.0	GoodResponse	1	0.031	51.804	2	4	Feedback	Win	True
54.227	3.276	Win2	1.0	n/a	Yes	3.276	n/a	n/a	GoodResponse	1	0.0	n/a	2	4	ISIslide	Win	True
57.52	0.25	Win2	1.0	0.0	Yes	2.78	0.02	n/a	GoodResponse	1	n/a	n/a	3	5	Cue	Win	True
57.771	4.0	Win2	1.0	0.0	Yes	2.78	0.001	n/a	GoodResponse	1	n/a	n/a	3	5	Fixation	Win	True
61.766	0.35	Win2	1.0	0.004	Yes	2.78	-0.004	2.0	GoodResponse	1	0.219	60.985	3	5	Target	Win	True
61.985	0.3	Win2	1.0	0.004	Yes	2.78	-0.004	2.0	GoodResponse	1	0.219	n/a	3	5	ButtonPress	Win	True
62.117	0.35	Win2	1.0	n/a	Yes	2.78	n/a	n/a	GoodResponse	1	n/a	n/a	3	5	Blank	Win	True
62.468	1.45	Win2	1.0	n/a	Yes	2.78	n/a	5.0	GoodResponse	1	0.043	61.511	3	5	Feedback	Win	True
63.922	2.78	Win2	1.0	n/a	Yes	2.78	n/a	n/a	GoodResponse	1	0.0	n/a	3	5	ISIslide	Win	True
66.714	0.25	Lose2	1.0	0.0	Yes	2.736	0.014	n/a	GoodResponse	0	n/a	n/a	3	6	Cue	AvoidedLoss	True
66.965	3.95	Lose2	1.0	0.0	Yes	2.736	0.001	n/a	GoodResponse	0	n/a	n/a	3	6	Fixation	AvoidedLoss	True
70.91	0.34	Lose2	1.0	0.004	Yes	2.736	-0.004	2.0	GoodResponse	0	0.265	70.175	3	6	Target	AvoidedLoss	True
71.175	0.3	Lose2	1.0	0.004	Yes	2.736	-0.004	2.0	GoodResponse	0	0.265	n/a	3	6	ButtonPress	AvoidedLoss	True
71.261	0.36	Lose2	1.0	n/a	Yes	2.736	n/a	n/a	GoodResponse	0	n/a	n/a	3	6	Blank	AvoidedLoss	True
71.612	1.45	Lose2	1.0	n/a	Yes	2.736	n/a	5.0	GoodResponse	0	0.02	70.632	3	6	Feedback	AvoidedLoss	True
73.066	2.736	Lose2	1.0	n/a	Yes	2.736	n/a	n/a	GoodResponse	0	0.0	n/a	3	6	ISIslide	AvoidedLoss	True
75.825	0.25	Lose2	1.0	0.0	Yes	4.025	0.025	n/a	GoodResponse	0	n/a	n/a	3	7	Cue	AvoidedLoss	True
76.075	4.05	Lose2	1.0	0.001	Yes	4.025	0.0	n/a	GoodResponse	0	n/a	n/a	3	7	Fixation	AvoidedLoss	True
80.121	0.33	Lose2	1.0	0.004	Yes	4.025	-0.004	2.0	GoodResponse	0	0.207	79.328	3	7	Target	AvoidedLoss	True
80.328	0.3	Lose2	1.0	0.004	Yes	4.025	-0.004	2.0	GoodResponse	0	0.207	n/a	3	7	ButtonPress	AvoidedLoss	True
80.455	0.37	Lose2	1.0	n/a	Yes	4.025	n/a	n/a	GoodResponse	0	n/a	n/a	3	7	Blank	AvoidedLoss	True
80.823	1.45	Lose2	1.0	n/a	Yes	4.025	n/a	5.0	GoodResponse	0	0.029	79.852	3	7	Feedback	AvoidedLoss	True
82.277	4.025	Lose2	1.0	n/a	Yes	4.025	n/a	n/a	GoodResponse	0	0.0	n/a	3	7	ISIslide	AvoidedLoss	True
86.323	0.25	Lose2	1.0	0.0	Yes	3.027	0.023	n/a	GoodResponse	0	n/a	n/a	3	8	Cue	AvoidedLoss	True
86.573	3.95	Lose2	1.0	0.001	Yes	3.027	0.0	n/a	GoodResponse	0	n/a	n/a	3	8	Fixation	AvoidedLoss	True
90.519	0.32	Lose2	1.0	0.004	Yes	3.027	-0.004	2.0	GoodResponse	0	0.211	89.73	3	8	Target	AvoidedLoss	True
90.73	0.3	Lose2	1.0	0.004	Yes	3.027	-0.004	2.0	GoodResponse	0	0.211	n/a	3	8	ButtonPress	AvoidedLoss	True
90.853	0.38	Lose2	1.0	n/a	Yes	3.027	n/a	n/a	GoodResponse	0	n/a	n/a	3	8	Blank	AvoidedLoss	True
91.221	1.45	Lose2	1.0	n/a	Yes	3.027	n/a	5.0	GoodResponse	0	0.021	90.242	3	8	Feedback	AvoidedLoss	True
92.675	3.027	Lose2	1.0	n/a	Yes	3.027	n/a	n/a	GoodResponse	0	0.0	n/a	3	8	ISIslide	AvoidedLoss	True
95.717	0.25	Lose2	1.0	0.001	Yes	3.133	0.017	n/a	GoodResponse	0	n/a	n/a	3	9	Cue	AvoidedLoss	True
95.968	3.95	Lose2	1.0	0.0	Yes	3.133	0.001	n/a	GoodResponse	0	n/a	n/a	3	9	Fixation	AvoidedLoss	True
99.913	0.31	Lose2	1.0	0.004	Yes	3.133	-0.004	2.0	GoodResponse	0	0.274	99.187	3	9	Target	AvoidedLoss	True
100.187	0.3	Lose2	1.0	0.004	Yes	3.133	-0.004	2.0	GoodResponse	0	0.274	n/a	3	9	ButtonPress	AvoidedLoss	True
100.231	0.39	Lose2	1.0	n/a	Yes	3.133	n/a	n/a	GoodResponse	0	n/a	n/a	3	9	Blank	AvoidedLoss	True
100.615	1.45	Lose2	1.0	n/a	Yes	3.133	n/a	5.0	GoodResponse	0	0.042	99.657	3	9	Feedback	AvoidedLoss	True
102.07	3.133	Lose2	1.0	n/a	Yes	3.133	n/a	n/a	GoodResponse	0	0.0	n/a	3	9	ISIslide	AvoidedLoss	True
105.212	0.25	Control	1.0	0.001	Yes	3.288	0.012	n/a	GoodResponse	0	n/a	n/a	3	10	Cue	Neutral	True
105.463	4.0	Control	1.0	0.0	Yes	3.288	0.001	n/a	GoodResponse	0	n/a	n/a	3	10	Fixation	Neutral	True
109.458	0.3	Control	1.0	0.004	Yes	3.288	-0.004	2.0	GoodResponse	0	0.207	108.665	3	10	Target	Neutral	True
109.665	0.3	Control	1.0	0.004	Yes	3.288	-0.004	2.0	GoodResponse	0	0.207	n/a	3	10	ButtonPress	Neutral	True
109.759	0.4	Control	1.0	n/a	Yes	3.288	n/a	n/a	GoodResponse	0	n/a	n/a	3	10	Blank	Neutral	True
110.161	1.45	Control	1.0	n/a	Yes	3.288	n/a	5.0	GoodResponse	0	0.007	109.168	3	10	Feedback	Neutral	True
111.615	3.288	Control	1.0	n/a	Yes	3.288	n/a	n/a	GoodResponse	0	0.0	n/a	3	10	ISIslide	Neutral	True
114.925	0.25	Lose2	1.0	0.0	Yes	2.725	0.025	n/a	GoodResponse	0	n/a	n/a	3	11	Cue	AvoidedLoss	True
115.176	4.05	Lose2	1.0	0.0	Yes	2.725	0.001	n/a	GoodResponse	0	n/a	n/a	3	11	Fixation	AvoidedLoss	True
119.221	0.29	Lose2	1.0	0.004	Yes	2.725	-0.004	2.0	GoodResponse	0	0.211	118.432	3	11	Target	AvoidedLoss	True
119.432	0.3	Lose2	1.0	0.004	Yes	2.725	-0.004	2.0	GoodResponse	0	0.211	n/a	3	11	ButtonPress	AvoidedLoss	True
119.522	0.41	Lose2	1.0	n/a	Yes	2.725	n/a	n/a	GoodResponse	0	n/a	n/a	3	11	Blank	AvoidedLoss	True
119.923	1.45	Lose2	1.0	n/a	Yes	2.725	n/a	5.0	GoodResponse	0	0.001	118.924	3	11	Feedback	AvoidedLoss	True
121.377	2.725	Lose2	1.0	n/a	Yes	2.725	n/a	n/a	GoodResponse	0	0.0	n/a	3	11	ISIslide	AvoidedLoss	True
124.119	0.25	Control	1.0	0.0	Yes	2.981	0.019	n/a	GoodResponse	0	n/a	n/a	3	12	Cue	Neutral	True
124.37	3.9	Control	1.0	0.0	Yes	2.981	0.001	n/a	GoodResponse	0	n/a	n/a	3	12	Fixation	Neutral	True
128.265	0.28	Control	1.0	0.004	Yes	2.981	-0.004	2.0	GoodResponse	0	0.274	127.539	3	12	Target	Neutral	True
128.539	0.3	Control	1.0	0.004	Yes	2.981	-0.004	2.0	GoodResponse	0	0.274	n/a	3	12	ButtonPress	Neutral	True
128.549	0.42	Control	1.0	n/a	Yes	2.981	n/a	n/a	GoodResponse	0	n/a	n/a	3	12	Blank	Neutral	True
128.967	1.45	Control	1.0	n/a	Yes	2.981	n/a	5.0	GoodResponse	0	0.031	127.998	3	12	Feedback	Neutral	True
130.421	2.981	Control	1.0	n/a	Yes	2.981	n/a	n/a	GoodResponse	0	0.0	n/a	3	12	ISIslide	Neutral	True
133.413	0.25	Control	0.9286	0.0	No	2.787	0.013	n/a	NoResponse	0	n/a	n/a	3	13	Cue	Neutral	False
133.664	4.0	Control	0.9286	0.0	No	2.787	0.001	n/a	NoResponse	0	n/a	n/a	3	13	Fixation	Neutral	False
137.659	0.27	Control	0.9286	0.004	No	2.787	-0.004	n/a	NoResponse	0	n/a	n/a	3	13	Target	Neutral	False
137.944	0.43	Control	0.9286	n/a	No	2.787	n/a	n/a	NoResponse	0	n/a	n/a	3	13	Blank	Neutral	False
138.361	1.45	Control	0.9286	n/a	No	2.787	n/a	5.0	NoResponse	0	0.005	137.366	3	13	Feedback	Neutral	False
139.816	2.787	Control	0.9286	n/a	No	2.787	n/a	n/a	NoResponse	0	0.0	n/a	3	13	ISIslide	Neutral	False
142.624	0.25	Win2	0.9333	0.0	Yes	2.676	0.024	n/a	GoodResponse	1	n/a	n/a	4	14	Cue	Win	True
142.875	4.1	Win2	0.9333	0.0	Yes	2.676	0.001	n/a	GoodResponse	1	n/a	n/a	4	14	Fixation	Win	True
146.971	0.26	Win2	0.9333	0.003	Yes	2.676	-0.003	2.0	GoodResponse	1	0.227	146.198	4	14	Target	Win	True
147.198	0.3	Win2	0.9333	0.003	Yes	2.676	-0.003	2.0	GoodResponse	1	0.227	n/a	4	14	ButtonPress	Win	True
147.238	0.44	Win2	0.9333	n/a	Yes	2.676	n/a	n/a	GoodResponse	1	n/a	n/a	4	14	Blank	Win	True
147.673	1.45	Win2	0.9333	n/a	Yes	2.676	n/a	5.0	GoodResponse	1	0.007	146.68	4	14	Feedback	Win	True
149.127	2.676	Win2	0.9333	n/a	Yes	2.676	n/a	n/a	GoodResponse	1	0.0	n/a	4	14	ISIslide	Win	True
151.818	0.25	Control	0.875	0.0	No	2.982	0.018	n/a	NoResponse	0	n/a	n/a	4	15	Cue	Neutral	False
152.069	4.0	Control	0.875	0.0	No	2.982	0.001	n/a	NoResponse	0	n/a	n/a	4	15	Fixation	Neutral	False
156.064	0.25	Control	0.875	0.004	No	2.982	-0.004	n/a	NoResponse	0	n/a	n/a	4	15	Target	Neutral	False
156.315	0.45	Control	0.875	n/a	No	2.982	n/a	n/a	NoResponse	0	n/a	n/a	4	15	Blank	Neutral	False
156.766	1.45	Control	0.875	n/a	No	2.982	n/a	5.0	NoResponse	0	0.036	155.802	4	15	Feedback	Neutral	False
158.221	2.982	Control	0.875	n/a	No	2.982	n/a	n/a	NoResponse	0	0.0	n/a	4	15	ISIslide	Neutral	False
161.213	0.25	Win2	0.8824	0.0	Yes	2.887	0.013	n/a	GoodResponse	1	n/a	n/a	5	16	Cue	Win	True
161.464	4.0	Win2	0.8824	0.0	Yes	2.887	0.001	n/a	GoodResponse	1	n/a	n/a	5	16	Fixation	Win	True
165.459	0.24	Win2	0.8824	0.004	Yes	2.887	-0.004	2.0	GoodResponse	1	0.211	164.67	5	16	Target	Win	True
165.67	0.3	Win2	0.8824	0.004	Yes	2.887	-0.004	2.0	GoodResponse	1	0.211	n/a	5	16	ButtonPress	Win	True
165.71	0.46	Win2	0.8824	n/a	Yes	2.887	n/a	n/a	GoodResponse	1	n/a	n/a	5	16	Blank	Win	True
166.161	1.45	Win2	0.8824	n/a	Yes	2.887	n/a	5.0	GoodResponse	1	0.007	165.168	5	16	Feedback	Win	True
167.615	2.887	Win2	0.8824	n/a	Yes	2.887	n/a	n/a	GoodResponse	1	0.0	n/a	5	16	ISIslide	Win	True
170.524	0.25	Lose2	0.8889	0.0	Yes	2.726	0.024	n/a	GoodResponse	0	n/a	n/a	5	17	Cue	AvoidedLoss	True
170.775	3.95	Lose2	0.8889	0.0	Yes	2.726	0.001	n/a	GoodResponse	0	n/a	n/a	5	17	Fixation	AvoidedLoss	True
174.72	0.23	Lose2	0.8889	0.004	Yes	2.726	-0.004	2.0	GoodResponse	0	0.226	173.946	5	17	Target	AvoidedLoss	True
174.946	0.3	Lose2	0.8889	0.004	Yes	2.726	-0.004	2.0	GoodResponse	0	0.226	n/a	5	17	ButtonPress	AvoidedLoss	True
174.954	0.47	Lose2	0.8889	n/a	Yes	2.726	n/a	n/a	GoodResponse	0	n/a	n/a	5	17	Blank	AvoidedLoss	True
175.422	1.45	Lose2	0.8889	n/a	Yes	2.726	n/a	5.0	GoodResponse	0	0.014	174.436	5	17	Feedback	AvoidedLoss	True
176.876	2.726	Lose2	0.8889	n/a	Yes	2.726	n/a	n/a	GoodResponse	0	0.0	n/a	5	17	ISIslide	AvoidedLoss	True
179.618	0.25	Lose2	0.8946999999999999	0.0	Yes	2.732	0.018	n/a	GoodResponse	0	n/a	n/a	5	18	Cue	AvoidedLoss	True
179.869	4.05	Lose2	0.8946999999999999	0.0	Yes	2.732	0.001	n/a	GoodResponse	0	n/a	n/a	5	18	Fixation	AvoidedLoss	True
183.914	0.22	Lose2	0.8946999999999999	0.004	Yes	2.732	-0.004	2.0	GoodResponse	0	0.211	183.125	5	18	Target	AvoidedLoss	True
184.125	0.3	Lose2	0.8946999999999999	0.004	Yes	2.732	-0.004	2.0	GoodResponse	0	0.211	n/a	5	18	ButtonPress	AvoidedLoss	True
184.148	0.48	Lose2	0.8946999999999999	n/a	Yes	2.732	n/a	n/a	GoodResponse	0	n/a	n/a	5	18	Blank	AvoidedLoss	True
184.616	1.45	Lose2	0.8946999999999999	n/a	Yes	2.732	n/a	5.0	GoodResponse	0	0.039	183.655	5	18	Feedback	AvoidedLoss	True
186.071	2.732	Lose2	0.8946999999999999	n/a	Yes	2.732	n/a	n/a	GoodResponse	0	0.0	n/a	5	18	ISIslide	AvoidedLoss	True
188.829	0.25	Control	0.85	0.0	No	2.921	0.029	n/a	NoResponse	0	n/a	n/a	5	19	Cue	Neutral	False
189.08	3.95	Control	0.85	0.0	No	2.921	0.001	n/a	NoResponse	0	n/a	n/a	5	19	Fixation	Neutral	False
193.025	0.21	Control	0.85	0.004	No	2.921	-0.004	n/a	NoResponse	0	n/a	n/a	5	19	Target	Neutral	False
193.242	0.49	Control	0.85	n/a	No	2.921	n/a	n/a	NoResponse	0	n/a	n/a	5	19	Blank	Neutral	False
193.727	1.45	Control	0.85	n/a	No	2.921	n/a	5.0	NoResponse	0	0.001	192.728	5	19	Feedback	Neutral	False
195.181	2.921	Control	0.85	n/a	No	2.921	n/a	n/a	NoResponse	0	0.0	n/a	5	19	ISIslide	Neutral	False
198.123	0.25	Control	0.8095	0.0	No	2.627	0.023	n/a	NoResponse	0	n/a	n/a	5	20	Cue	Neutral	False
198.374	4.05	Control	0.8095	0.0	No	2.627	0.001	n/a	NoResponse	0	n/a	n/a	5	20	Fixation	Neutral	False
202.419	0.2	Control	0.8095	0.004	No	2.627	-0.004	n/a	NoResponse	0	n/a	n/a	5	20	Target	Neutral	False
202.62	0.5	Control	0.8095	n/a	No	2.627	n/a	n/a	NoResponse	0	n/a	n/a	5	20	Blank	Neutral	False
203.122	1.45	Control	0.8095	n/a	No	2.627	n/a	5.0	NoResponse	0	0.021	202.143	5	20	Feedback	Neutral	False
204.576	2.627	Control	0.8095	n/a	No	2.627	n/a	n/a	NoResponse	0	0.0	n/a	5	20	ISIslide	Neutral	False
207.217	0.25	Control	0.7726999999999999	0.0	No	2.783	0.017	n/a	NoResponse	0	n/a	n/a	5	21	Cue	Neutral	False
207.468	4.1	Control	0.7726999999999999	0.0	No	2.783	0.001	n/a	NoResponse	0	n/a	n/a	5	21	Fixation	Neutral	False
211.563	0.19	Control	0.7726999999999999	0.004	No	2.783	-0.004	n/a	NoResponse	0	n/a	n/a	5	21	Target	Neutral	False
211.764	0.51	Control	0.7726999999999999	n/a	No	2.783	n/a	n/a	NoResponse	0	n/a	n/a	5	21	Blank	Neutral	False
212.266	1.45	Control	0.7726999999999999	n/a	No	2.783	n/a	5.0	NoResponse	0	0.048	211.314	5	21	Feedback	Neutral	False
213.72	2.783	Control	0.7726999999999999	n/a	No	2.783	n/a	n/a	NoResponse	0	0.0	n/a	5	21	ISIslide	Neutral	False
216.528	0.25	Control	0.7391	0.0	No	2.772	0.028	n/a	NoResponse	0	n/a	n/a	5	22	Cue	Neutral	False
216.779	4.0	Control	0.7391	0.0	No	2.772	0.001	n/a	NoResponse	0	n/a	n/a	5	22	Fixation	Neutral	False
220.774	0.18	Control	0.7391	0.004	No	2.772	-0.004	n/a	NoResponse	0	n/a	n/a	5	22	Target	Neutral	False
220.958	0.52	Control	0.7391	n/a	No	2.772	n/a	n/a	NoResponse	0	n/a	n/a	5	22	Blank	Neutral	False
221.476	1.45	Control	0.7391	n/a	No	2.772	n/a	5.0	NoResponse	0	0.008	220.484	5	22	Feedback	Neutral	False
222.931	2.772	Control	0.7391	n/a	No	2.772	n/a	n/a	NoResponse	0	0.0	n/a	5	22	ISIslide	Neutral	False
225.722	0.25	Control	0.7082999999999999	0.0	No	2.778	0.022	n/a	NoResponse	0	n/a	n/a	5	23	Cue	Neutral	True
225.973	3.9	Control	0.7082999999999999	0.0	No	2.778	0.001	n/a	NoResponse	0	n/a	n/a	5	23	Fixation	Neutral	True
229.868	0.17	Control	0.7082999999999999	0.004	No	2.778	-0.004	2.0	NoResponse	0	0.19	229.058	5	23	Target	Neutral	True
230.052	0.53	Control	0.7082999999999999	n/a	No	2.778	n/a	n/a	NoResponse	0	n/a	n/a	5	23	Blank	Neutral	True
230.058	0.3	Control	0.7082999999999999	0.004	No	2.778	-0.004	2.0	NoResponse	0	0.19	n/a	5	23	ButtonPress	Neutral	True
230.57	1.45	Control	0.7082999999999999	n/a	No	2.778	n/a	5.0	NoResponse	0	0.036	229.606	5	23	Feedback	Neutral	True
232.025	2.778	Control	0.7082999999999999	n/a	No	2.778	n/a	n/a	NoResponse	0	0.0	n/a	5	23	ISIslide	Neutral	True
234.816	0.25	Win2	0.72	0.0	Yes	3.134	0.016	n/a	GoodResponse	1	n/a	n/a	6	24	Cue	Win	False
235.067	3.95	Win2	0.72	0.0	Yes	3.134	0.001	2.0	GoodResponse	1	3.595	237.662	6	24	Fixation	Win	False
238.662	0.3	Win2	0.72	0.0	Yes	3.134	0.001	2.0	GoodResponse	1	3.595	n/a	6	24	ButtonPress	Win	False
239.012	0.16	Win2	0.72	0.004	Yes	3.134	-0.004	2.0	GoodResponse	1	0.12	238.132	6	24	Target	Win	False
239.132	0.3	Win2	0.72	0.004	Yes	3.134	-0.004	2.0	GoodResponse	1	0.12	n/a	6	24	ButtonPress	Win	False
239.179	0.54	Win2	0.72	n/a	Yes	3.134	n/a	n/a	GoodResponse	1	n/a	n/a	6	24	Blank	Win	False
239.714	1.45	Win2	0.72	n/a	Yes	3.134	n/a	5.0	GoodResponse	1	0.014	238.728	6	24	Feedback	Win	False
241.168	3.134	Win2	0.72	n/a	Yes	3.134	n/a	n/a	GoodResponse	1	0.0	n/a	6	24	ISIslide	Win	False
244.328	0.25	Win2	0.6923	0.0	No	3.072	0.028	n/a	NoResponse	0	n/a	n/a	6	25	Cue	MissedWin	True
244.579	4.0	Win2	0.6923	0.0	No	3.072	0.001	n/a	NoResponse	0	n/a	n/a	6	25	Fixation	MissedWin	True
248.574	0.15	Win2	0.6923	0.004	No	3.072	-0.004	2.0	NoResponse	0	0.195	247.769	6	25	Target	MissedWin	True
248.724	0.55	Win2	0.6923	n/a	No	3.072	n/a	n/a	NoResponse	0	n/a	n/a	6	25	Blank	MissedWin	True
248.769	0.3	Win2	0.6923	0.004	No	3.072	-0.004	2.0	NoResponse	0	0.195	n/a	6	25	ButtonPress	MissedWin	True
249.276	1.45	Win2	0.6923	n/a	No	3.072	n/a	5.0	NoResponse	0	0.013	248.289	6	25	Feedback	MissedWin	True
250.73	3.072	Win2	0.6923	n/a	No	3.072	n/a	n/a	NoResponse	0	0.0	n/a	6	25	ISIslide	MissedWin	True
253.823	0.25	Win2	0.6667000000000001	0.0	No	2.927	0.023	n/a	NoResponse	0	n/a	n/a	6	26	Cue	MissedWin	True
254.074	3.95	Win2	0.6667000000000001	0.0	No	2.927	0.001	n/a	NoResponse	0	n/a	n/a	6	26	Fixation	MissedWin	True
258.019	0.15	Win2	0.6667000000000001	0.004	No	2.927	-0.004	2.0	NoResponse	0	0.209	257.228	6	26	Target	MissedWin	True
258.169	0.55	Win2	0.6667000000000001	n/a	No	2.927	n/a	n/a	NoResponse	0	n/a	n/a	6	26	Blank	MissedWin	True
258.228	0.3	Win2	0.6667000000000001	0.004	No	2.927	-0.004	2.0	NoResponse	0	0.209	n/a	6	26	ButtonPress	MissedWin	True
258.721	1.45	Win2	0.6667000000000001	n/a	No	2.927	n/a	5.0	NoResponse	0	0.03	257.751	6	26	Feedback	MissedWin	True
260.175	2.927	Win2	0.6667000000000001	n/a	No	2.927	n/a	n/a	NoResponse	0	0.0	n/a	6	26	ISIslide	MissedWin	True
263.117	0.25	Lose2	0.6429	0.0	No	2.833	0.017	n/a	NoResponse	-1	n/a	n/a	5	27	Cue	Loss	True
263.368	4.05	Lose2	0.6429	0.0	No	2.833	0.001	2.0	NoResponse	-1	4.045	266.413	5	27	Fixation	Loss	True
267.413	0.3	Lose2	0.6429	0.0	No	2.833	0.001	2.0	NoResponse	-1	4.045	n/a	5	27	ButtonPress	Loss	True
267.414	0.15	Lose2	0.6429	0.003	No	2.833	-0.003	n/a	NoResponse	-1	n/a	n/a	5	27	Target	Loss	True
267.564	0.55	Lose2	0.6429	n/a	No	2.833	n/a	n/a	NoResponse	-1	n/a	n/a	5	27	Blank	Loss	True
268.116	1.45	Lose2	0.6429	n/a	No	2.833	n/a	5.0	NoResponse	-1	0.004	267.12	5	27	Feedback	Loss	True
269.57	2.833	Lose2	0.6429	n/a	No	2.833	n/a	n/a	NoResponse	-1	0.0	n/a	5	27	ISIslide	Loss	True
272.429	0.25	Control	0.6207	0.0	No	2.821	0.029	n/a	NoResponse	0	n/a	n/a	5	28	Cue	Neutral	False
272.679	4.05	Control	0.6207	0.0	No	2.821	0.0	n/a	NoResponse	0	n/a	n/a	5	28	Fixation	Neutral	False
276.725	0.16	Control	0.6207	0.004	No	2.821	-0.004	n/a	NoResponse	0	n/a	n/a	5	28	Target	Neutral	False
276.892	0.54	Control	0.6207	n/a	No	2.821	n/a	n/a	NoResponse	0	n/a	n/a	5	28	Blank	Neutral	False
277.427	1.45	Control	0.6207	n/a	No	2.821	n/a	5.0	NoResponse	0	0.007	276.434	5	28	Feedback	Neutral	False
278.881	2.821	Control	0.6207	n/a	No	2.821	n/a	n/a	NoResponse	0	0.0	n/a	5	28	ISIslide	Neutral	False
281.723	0.25	Lose2	0.6	0.0	No	2.827	0.023	n/a	NoResponse	-1	n/a	n/a	4	29	Cue	Loss	True
281.974	3.95	Lose2	0.6	0.0	No	2.827	0.001	n/a	NoResponse	-1	n/a	n/a	4	29	Fixation	Loss	True
285.919	0.17	Lose2	0.6	0.004	No	2.827	-0.004	2.0	NoResponse	-1	0.202	285.121	4	29	Target	Loss	True
286.103	0.53	Lose2	0.6	n/a	No	2.827	n/a	n/a	NoResponse	-1	n/a	n/a	4	29	Blank	Loss	True
286.121	0.3	Lose2	0.6	0.004	No	2.827	-0.004	2.0	NoResponse	-1	0.202	n/a	4	29	ButtonPress	Loss	True
286.621	1.45	Lose2	0.6	n/a	No	2.827	n/a	5.0	NoResponse	-1	0.033	285.654	4	29	Feedback	Loss	True
288.075	2.827	Lose2	0.6	n/a	No	2.827	n/a	n/a	NoResponse	-1	0.0	n/a	4	29	ISIslide	Loss	True
290.917	0.25	Win2	0.5806	0.0	No	2.783	0.017	n/a	NoResponse	0	n/a	n/a	4	30	Cue	MissedWin	True
291.168	3.9	Win2	0.5806	0.0	No	2.783	0.001	n/a	NoResponse	0	n/a	n/a	4	30	Fixation	MissedWin	True
295.063	0.18	Win2	0.5806	0.004	No	2.783	-0.004	2.0	NoResponse	0	0.214	294.277	4	30	Target	MissedWin	True
295.247	0.52	Win2	0.5806	n/a	No	2.783	n/a	n/a	NoResponse	0	n/a	n/a	4	30	Blank	MissedWin	True
295.277	0.3	Win2	0.5806	0.004	No	2.783	-0.004	2.0	NoResponse	0	0.214	n/a	4	30	ButtonPress	MissedWin	True
295.765	1.45	Win2	0.5806	n/a	No	2.783	n/a	5.0	NoResponse	0	0.01	294.775	4	30	Feedback	MissedWin	True
297.219	2.783	Win2	0.5806	n/a	No	2.783	n/a	n/a	NoResponse	0	0.0	n/a	4	30	ISIslide	MissedWin	True
300.028	0.25	Lose2	0.5625	0.0	No	2.822	0.028	n/a	LatePress	-1	n/a	n/a	3	31	Cue	Loss	True
300.278	4.05	Lose2	0.5625	0.0	No	2.822	0.0	n/a	LatePress	-1	n/a	n/a	3	31	Fixation	Loss	True
304.324	0.19	Lose2	0.5625	0.004	No	2.822	-0.004	2.0	LatePress	-1	0.197	303.521	3	31	Target	Loss	True
304.521	0.3	Lose2	0.5625	0.004	No	2.822	-0.004	2.0	LatePress	-1	0.197	n/a	3	31	ButtonPress	Loss	True
304.524	0.51	Lose2	0.5625	n/a	No	2.822	n/a	n/a	LatePress	-1	n/a	n/a	3	31	Blank	Loss	True
305.026	1.45	Lose2	0.5625	n/a	No	2.822	n/a	5.0	LatePress	-1	0.017	304.043	3	31	Feedback	Loss	True
306.48	2.822	Lose2	0.5625	n/a	No	2.822	n/a	n/a	LatePress	-1	0.0	n/a	3	31	ISIslide	Loss	True
309.322	0.25	Lose2	0.5455	0.0	No	2.628	0.022	n/a	NoResponse	-1	n/a	n/a	2	32	Cue	Loss	True
309.573	4.15	Lose2	0.5455	0.0	No	2.628	0.001	n/a	NoResponse	-1	n/a	n/a	2	32	Fixation	Loss	True
313.719	0.2	Lose2	0.5455	0.003	No	2.628	-0.003	2.0	NoResponse	-1	0.223	312.942	2	32	Target	Loss	True
313.919	0.5	Lose2	0.5455	n/a	No	2.628	n/a	n/a	NoResponse	-1	n/a	n/a	2	32	Blank	Loss	True
313.942	0.3	Lose2	0.5455	0.003	No	2.628	-0.003	2.0	NoResponse	-1	0.223	n/a	2	32	ButtonPress	Loss	True
314.421	1.45	Lose2	0.5455	n/a	No	2.628	n/a	5.0	NoResponse	-1	0.037	313.458	2	32	Feedback	Loss	True
315.875	2.628	Lose2	0.5455	n/a	No	2.628	n/a	n/a	NoResponse	-1	0.0	n/a	2	32	ISIslide	Loss	True
318.516	0.25	Win2	0.5588000000000001	0.0	Yes	2.684	0.016	n/a	GoodResponse	1	n/a	n/a	3	33	Cue	Win	True
318.767	4.0	Win2	0.5588000000000001	0.0	Yes	2.684	0.001	n/a	GoodResponse	1	n/a	n/a	3	33	Fixation	Win	True
322.762	0.21	Win2	0.5588000000000001	0.004	Yes	2.684	-0.004	2.0	GoodResponse	1	0.209	321.971	3	33	Target	Win	True
322.971	0.3	Win2	0.5588000000000001	0.004	Yes	2.684	-0.004	2.0	GoodResponse	1	0.209	n/a	3	33	ButtonPress	Win	True
322.979	0.49	Win2	0.5588000000000001	n/a	Yes	2.684	n/a	n/a	GoodResponse	1	n/a	n/a	3	33	Blank	Win	True
323.464	1.45	Win2	0.5588000000000001	n/a	Yes	2.684	n/a	5.0	GoodResponse	1	0.019	322.483	3	33	Feedback	Win	True
324.919	2.684	Win2	0.5588000000000001	n/a	Yes	2.684	n/a	n/a	GoodResponse	1	0.0	n/a	3	33	ISIslide	Win	True
327.627	0.25	Lose2	0.5714	0.0	Yes	2.623	0.027	n/a	GoodResponse	0	n/a	n/a	3	34	Cue	AvoidedLoss	True
327.877	4.05	Lose2	0.5714	0.001	Yes	2.623	0.0	n/a	GoodResponse	0	n/a	n/a	3	34	Fixation	AvoidedLoss	True
331.923	0.22	Lose2	0.5714	0.004	Yes	2.623	-0.004	2.0	GoodResponse	0	0.2	331.123	3	34	Target	AvoidedLoss	True
332.123	0.3	Lose2	0.5714	0.004	Yes	2.623	-0.004	2.0	GoodResponse	0	0.2	n/a	3	34	ButtonPress	AvoidedLoss	True
332.157	0.48	Lose2	0.5714	n/a	Yes	2.623	n/a	n/a	GoodResponse	0	n/a	n/a	3	34	Blank	AvoidedLoss	True
332.625	1.45	Lose2	0.5714	n/a	Yes	2.623	n/a	5.0	GoodResponse	0	0.028	331.653	3	34	Feedback	AvoidedLoss	True
334.079	2.623	Lose2	0.5714	n/a	Yes	2.623	n/a	n/a	GoodResponse	0	0.0	n/a	3	34	ISIslide	AvoidedLoss	True
336.721	0.25	Lose2	0.5832999999999999	0.0	Yes	2.679	0.021	n/a	GoodResponse	0	n/a	n/a	3	35	Cue	AvoidedLoss	True
336.971	4.0	Lose2	0.5832999999999999	0.0	Yes	2.679	0.0	n/a	GoodResponse	0	n/a	n/a	3	35	Fixation	AvoidedLoss	True
340.967	0.23	Lose2	0.5832999999999999	0.004	Yes	2.679	-0.004	2.0	GoodResponse	0	0.188	340.155	3	35	Target	AvoidedLoss	True
341.155	0.3	Lose2	0.5832999999999999	0.004	Yes	2.679	-0.004	2.0	GoodResponse	0	0.188	n/a	3	35	ButtonPress	AvoidedLoss	True
341.201	0.47	Lose2	0.5832999999999999	n/a	Yes	2.679	n/a	n/a	GoodResponse	0	n/a	n/a	3	35	Blank	AvoidedLoss	True
341.669	1.45	Lose2	0.5832999999999999	n/a	Yes	2.679	n/a	5.0	GoodResponse	0	0.008	340.677	3	35	Feedback	AvoidedLoss	True
343.123	2.679	Lose2	0.5832999999999999	n/a	Yes	2.679	n/a	n/a	GoodResponse	0	0.0	n/a	3	35	ISIslide	AvoidedLoss	True
345.814	0.25	Control	0.5676	0.0	No	2.686	0.014	n/a	NoResponse	0	n/a	n/a	3	36	Cue	Neutral	False
346.065	4.0	Control	0.5676	0.0	No	2.686	0.001	n/a	NoResponse	0	n/a	n/a	3	36	Fixation	Neutral	False
350.06	0.24	Control	0.5676	0.004	No	2.686	-0.004	n/a	NoResponse	0	n/a	n/a	3	36	Target	Neutral	False
350.311	0.46	Control	0.5676	n/a	No	2.686	n/a	n/a	NoResponse	0	n/a	n/a	3	36	Blank	Neutral	False
350.762	1.45	Control	0.5676	n/a	No	2.686	n/a	5.0	NoResponse	0	0.037	349.799	3	36	Feedback	Neutral	False
352.217	2.686	Control	0.5676	n/a	No	2.686	n/a	n/a	NoResponse	0	0.0	n/a	3	36	ISIslide	Neutral	False
354.925	0.25	Win2	0.5789	0.0	Yes	2.875	0.025	n/a	GoodResponse	1	n/a	n/a	4	37	Cue	Win	True
355.176	4.0	Win2	0.5789	0.0	Yes	2.875	0.001	n/a	GoodResponse	1	n/a	n/a	4	37	Fixation	Win	True
359.171	0.25	Win2	0.5789	0.004	Yes	2.875	-0.004	2.0	GoodResponse	1	0.222	358.393	4	37	Target	Win	True
359.393	0.3	Win2	0.5789	0.004	Yes	2.875	-0.004	2.0	GoodResponse	1	0.222	n/a	4	37	ButtonPress	Win	True
359.422	0.45	Win2	0.5789	n/a	Yes	2.875	n/a	n/a	GoodResponse	1	n/a	n/a	4	37	Blank	Win	True
359.873	1.45	Win2	0.5789	n/a	Yes	2.875	n/a	5.0	GoodResponse	1	0.048	358.921	4	37	Feedback	Win	True
361.327	2.875	Win2	0.5789	n/a	Yes	2.875	n/a	n/a	GoodResponse	1	0.0	n/a	4	37	ISIslide	Win	True
364.219	0.25	Lose2	0.5897	0.0	Yes	2.831	0.019	n/a	GoodResponse	0	n/a	n/a	4	38	Cue	AvoidedLoss	True
364.47	3.95	Lose2	0.5897	0.0	Yes	2.831	0.001	n/a	GoodResponse	0	n/a	n/a	4	38	Fixation	AvoidedLoss	True
368.415	0.26	Lose2	0.5897	0.004	Yes	2.831	-0.004	2.0	GoodResponse	0	0.206	367.621	4	38	Target	AvoidedLoss	True
368.621	0.3	Lose2	0.5897	0.004	Yes	2.831	-0.004	2.0	GoodResponse	0	0.206	n/a	4	38	ButtonPress	AvoidedLoss	True
368.683	0.44	Lose2	0.5897	n/a	Yes	2.831	n/a	n/a	GoodResponse	0	n/a	n/a	4	38	Blank	AvoidedLoss	True
369.117	1.45	Lose2	0.5897	n/a	Yes	2.831	n/a	5.0	GoodResponse	0	0.023	368.14	4	38	Feedback	AvoidedLoss	True
370.572	2.831	Lose2	0.5897	n/a	Yes	2.831	n/a	n/a	GoodResponse	0	0.0	n/a	4	38	ISIslide	AvoidedLoss	True
373.413	0.25	Win2	0.6	0.001	Yes	2.987	0.013	n/a	GoodResponse	1	n/a	n/a	5	39	Cue	Win	True
373.664	4.1	Win2	0.6	0.0	Yes	2.987	0.001	n/a	GoodResponse	1	n/a	n/a	5	39	Fixation	Win	True
377.76	0.27	Win2	0.6	0.003	Yes	2.987	-0.003	2.0	GoodResponse	1	0.189	376.949	5	39	Target	Win	True
377.949	0.3	Win2	0.6	0.003	Yes	2.987	-0.003	2.0	GoodResponse	1	0.189	n/a	5	39	ButtonPress	Win	True
378.044	0.43	Win2	0.6	n/a	Yes	2.987	n/a	n/a	GoodResponse	1	n/a	n/a	5	39	Blank	Win	True
378.462	1.45	Win2	0.6	n/a	Yes	2.987	n/a	5.0	GoodResponse	1	0.044	377.506	5	39	Feedback	Win	True
379.916	2.987	Win2	0.6	n/a	Yes	2.987	n/a	n/a	GoodResponse	1	0.0	n/a	5	39	ISIslide	Win	True
382.925	0.25	Win2	0.6098	0.0	Yes	2.725	0.025	n/a	GoodResponse	1	n/a	n/a	6	40	Cue	Win	True
383.176	3.95	Win2	0.6098	0.0	Yes	2.725	0.001	n/a	GoodResponse	1	n/a	n/a	6	40	Fixation	Win	True
387.121	0.28	Win2	0.6098	0.004	Yes	2.725	-0.004	2.0	GoodResponse	1	0.234	386.355	6	40	Target	Win	True
387.355	0.3	Win2	0.6098	0.004	Yes	2.725	-0.004	2.0	GoodResponse	1	0.234	n/a	6	40	ButtonPress	Win	True
387.405	0.42	Win2	0.6098	n/a	Yes	2.725	n/a	n/a	GoodResponse	1	n/a	n/a	6	40	Blank	Win	True
387.823	1.45	Win2	0.6098	n/a	Yes	2.725	n/a	5.0	GoodResponse	1	0.049	386.872	6	40	Feedback	Win	True
389.277	2.725	Win2	0.6098	n/a	Yes	2.725	n/a	n/a	GoodResponse	1	0.0	n/a	6	40	ISIslide	Win	True
392.019	0.25	Win2	0.619	0.0	Yes	2.781	0.019	n/a	GoodResponse	1	n/a	n/a	7	41	Cue	Win	True
392.27	3.9	Win2	0.619	0.0	Yes	2.781	0.001	n/a	GoodResponse	1	n/a	n/a	7	41	Fixation	Win	True
396.165	0.29	Win2	0.619	0.004	Yes	2.781	-0.004	2.0	GoodResponse	1	0.196	395.361	7	41	Target	Win	True
396.361	0.3	Win2	0.619	0.004	Yes	2.781	-0.004	2.0	GoodResponse	1	0.196	n/a	7	41	ButtonPress	Win	True
396.466	0.41	Win2	0.619	n/a	Yes	2.781	n/a	n/a	GoodResponse	1	n/a	n/a	7	41	Blank	Win	True
396.867	1.45	Win2	0.619	n/a	Yes	2.781	n/a	5.0	GoodResponse	1	0.029	395.896	7	41	Feedback	Win	True
398.321	2.781	Win2	0.619	n/a	Yes	2.781	n/a	n/a	GoodResponse	1	0.0	n/a	7	41	ISIslide	Win	True
401.113	0.25	Control	0.6047	0.0	No	2.937	0.013	n/a	NoResponse	0	n/a	n/a	7	42	Cue	Neutral	False
401.364	3.85	Control	0.6047	0.0	No	2.937	0.001	n/a	NoResponse	0	n/a	n/a	7	42	Fixation	Neutral	False
405.225	0.3	Control	0.6047	0.0	No	2.937	0.012	n/a	NoResponse	0	n/a	n/a	7	42	Target	Neutral	False
405.509	0.4	Control	0.6047	n/a	No	2.937	n/a	n/a	NoResponse	0	n/a	n/a	7	42	Blank	Neutral	False
405.91	1.45	Control	0.6047	n/a	No	2.937	n/a	5.0	NoResponse	0	0.011	404.921	7	42	Feedback	Neutral	False
407.365	2.937	Control	0.6047	n/a	No	2.937	n/a	n/a	NoResponse	0	0.0	n/a	7	42	ISIslide	Neutral	False
410.324	0.25	Win2	0.6136	0.0	Yes	3.176	0.024	n/a	GoodResponse	1	n/a	n/a	8	43	Cue	Win	True
410.574	4.0	Win2	0.6136	0.001	Yes	3.176	0.0	n/a	GoodResponse	1	n/a	n/a	8	43	Fixation	Win	True
414.57	0.31	Win2	0.6136	0.004	Yes	3.176	-0.004	2.0	GoodResponse	1	0.21	413.78	8	43	Target	Win	True
414.78	0.3	Win2	0.6136	0.004	Yes	3.176	-0.004	2.0	GoodResponse	1	0.21	n/a	8	43	ButtonPress	Win	True
414.887	0.39	Win2	0.6136	n/a	Yes	3.176	n/a	n/a	GoodResponse	1	n/a	n/a	8	43	Blank	Win	True
415.272	1.45	Win2	0.6136	n/a	Yes	3.176	n/a	5.0	GoodResponse	1	0.014	414.286	8	43	Feedback	Win	True
416.726	3.176	Win2	0.6136	n/a	Yes	3.176	n/a	n/a	GoodResponse	1	0.0	n/a	8	43	ISIslide	Win	True
419.919	0.25	Win2	0.6222	0.0	Yes	2.981	0.019	n/a	GoodResponse	1	n/a	n/a	9	44	Cue	Win	True
420.17	4.0	Win2	0.6222	0.0	Yes	2.981	0.001	n/a	GoodResponse	1	n/a	n/a	9	44	Fixation	Win	True
424.165	0.32	Win2	0.6222	0.004	Yes	2.981	-0.004	2.0	GoodResponse	1	0.236	423.401	9	44	Target	Win	True
424.401	0.3	Win2	0.6222	0.004	Yes	2.981	-0.004	2.0	GoodResponse	1	0.236	n/a	9	44	ButtonPress	Win	True
424.499	0.38	Win2	0.6222	n/a	Yes	2.981	n/a	n/a	GoodResponse	1	n/a	n/a	9	44	Blank	Win	True
424.867	1.45	Win2	0.6222	n/a	Yes	2.981	n/a	5.0	GoodResponse	1	0.028	423.895	9	44	Feedback	Win	True
426.321	2.981	Win2	0.6222	n/a	Yes	2.981	n/a	n/a	GoodResponse	1	0.0	n/a	9	44	ISIslide	Win	True
429.314	0.25	Control	0.6087	0.0	No	2.886	0.014	n/a	NoResponse	0	n/a	n/a	9	45	Cue	Neutral	False
429.564	4.1	Control	0.6087	0.001	No	2.886	0.0	n/a	NoResponse	0	n/a	n/a	9	45	Fixation	Neutral	False
433.66	0.33	Control	0.6087	0.004	No	2.886	-0.004	n/a	NoResponse	0	n/a	n/a	9	45	Target	Neutral	False
433.994	0.37	Control	0.6087	n/a	No	2.886	n/a	n/a	NoResponse	0	n/a	n/a	9	45	Blank	Neutral	False
434.362	1.45	Control	0.6087	n/a	No	2.886	n/a	5.0	NoResponse	0	0.046	433.408	9	45	Feedback	Neutral	False
435.816	2.886	Control	0.6087	n/a	No	2.886	n/a	n/a	NoResponse	0	0.0	n/a	9	45	ISIslide	Neutral	False
438.725	0.25	Lose2	0.617	0.0	Yes	3.375	0.025	n/a	GoodResponse	0	n/a	n/a	9	46	Cue	AvoidedLoss	True
438.976	4.0	Lose2	0.617	0.0	Yes	3.375	0.001	n/a	GoodResponse	0	n/a	n/a	9	46	Fixation	AvoidedLoss	True
442.971	0.34	Lose2	0.617	0.004	Yes	3.375	-0.004	2.0	GoodResponse	0	0.222	442.193	9	46	Target	AvoidedLoss	True
443.193	0.3	Lose2	0.617	0.004	Yes	3.375	-0.004	2.0	GoodResponse	0	0.222	n/a	9	46	ButtonPress	AvoidedLoss	True
443.322	0.36	Lose2	0.617	n/a	Yes	3.375	n/a	n/a	GoodResponse	0	n/a	n/a	9	46	Blank	AvoidedLoss	True
443.673	1.45	Lose2	0.617	n/a	Yes	3.375	n/a	5.0	GoodResponse	0	0.005	442.678	9	46	Feedback	AvoidedLoss	True
445.128	3.375	Lose2	0.617	n/a	Yes	3.375	n/a	n/a	GoodResponse	0	0.0	n/a	9	46	ISIslide	AvoidedLoss	True
448.521	0.25	Lose2	0.625	0.0	Yes	2.679	0.021	n/a	GoodResponse	0	n/a	n/a	9	47	Cue	AvoidedLoss	True
448.772	4.0	Lose2	0.625	0.0	Yes	2.679	0.001	n/a	GoodResponse	0	n/a	n/a	9	47	Fixation	AvoidedLoss	True
452.767	0.35	Lose2	0.625	0.004	Yes	2.679	-0.004	2.0	GoodResponse	0	0.214	451.981	9	47	Target	AvoidedLoss	True
452.981	0.3	Lose2	0.625	0.004	Yes	2.679	-0.004	2.0	GoodResponse	0	0.214	n/a	9	47	ButtonPress	AvoidedLoss	True
453.118	0.35	Lose2	0.625	n/a	Yes	2.679	n/a	n/a	GoodResponse	0	n/a	n/a	9	47	Blank	AvoidedLoss	True
453.469	1.45	Lose2	0.625	n/a	Yes	2.679	n/a	5.0	GoodResponse	0	0.011	452.48	9	47	Feedback	AvoidedLoss	True
454.924	2.679	Lose2	0.625	n/a	Yes	2.679	n/a	n/a	GoodResponse	0	0.0	n/a	9	47	ISIslide	AvoidedLoss	True
457.615	0.25	Lose2	0.6327	0.0	Yes	3.035	0.015	n/a	GoodResponse	0	n/a	n/a	9	48	Cue	AvoidedLoss	True
457.866	3.95	Lose2	0.6327	0.0	Yes	3.035	0.001	n/a	GoodResponse	0	n/a	n/a	9	48	Fixation	AvoidedLoss	True
461.811	0.36	Lose2	0.6327	0.004	Yes	3.035	-0.004	2.0	GoodResponse	0	0.235	461.046	9	48	Target	AvoidedLoss	True
462.046	0.3	Lose2	0.6327	0.004	Yes	3.035	-0.004	2.0	GoodResponse	0	0.235	n/a	9	48	ButtonPress	AvoidedLoss	True
462.179	0.34	Lose2	0.6327	n/a	Yes	3.035	n/a	n/a	GoodResponse	0	n/a	n/a	9	48	Blank	AvoidedLoss	True
462.513	1.45	Lose2	0.6327	n/a	Yes	3.035	n/a	5.0	GoodResponse	0	0.04	461.553	9	48	Feedback	AvoidedLoss	True
463.967	3.035	Lose2	0.6327	n/a	Yes	3.035	n/a	n/a	GoodResponse	0	0.0	n/a	9	48	ISIslide	AvoidedLoss	True
467.026	0.25	Control	0.62	0.0	No	2.874	0.026	n/a	NoResponse	0	n/a	n/a	9	49	Cue	Neutral	False
467.277	4.0	Control	0.62	0.0	No	2.874	0.001	n/a	NoResponse	0	n/a	n/a	9	49	Fixation	Neutral	False
471.272	0.37	Control	0.62	0.004	No	2.874	-0.004	n/a	NoResponse	0	n/a	n/a	9	49	Target	Neutral	False
471.657	0.33	Control	0.62	n/a	No	2.874	n/a	n/a	NoResponse	0	n/a	n/a	9	49	Blank	Neutral	False
471.974	1.45	Control	0.62	n/a	No	2.874	n/a	5.0	NoResponse	0	0.043	471.017	9	49	Feedback	Neutral	False
473.429	2.874	Control	0.62	n/a	No	2.874	n/a	n/a	NoResponse	0	0.0	n/a	9	49	ISIslide	Neutral	False
476.321	0.25	Control	0.6078	0.0	No	2.779	0.021	n/a	NoResponse	0	n/a	n/a	9	50	Cue	Neutral	False
476.572	4.0	Control	0.6078	0.0	No	2.779	0.001	n/a	NoResponse	0	n/a	n/a	9	50	Fixation	Neutral	False
480.567	0.38	Control	0.6078	0.004	No	2.779	-0.004	n/a	NoResponse	0	n/a	n/a	9	50	Target	Neutral	False
480.951	0.32	Control	0.6078	n/a	No	2.779	n/a	n/a	NoResponse	0	n/a	n/a	9	50	Blank	Neutral	False
481.269	1.45	Control	0.6078	n/a	No	2.779	n/a	5.0	NoResponse	0	0.015	480.284	9	50	Feedback	Neutral	False
482.723	2.779	Control	0.6078	n/a	No	2.779	n/a	n/a	NoResponse	0	0.0	n/a	9	50	ISIslide	Neutral	False
485.515	0.25	Control	0.5962	0.0	No	2.735	0.015	n/a	NoResponse	0	n/a	n/a	9	51	Cue	Neutral	False
485.766	3.95	Control	0.5962	0.0	No	2.735	0.001	n/a	NoResponse	0	n/a	n/a	9	51	Fixation	Neutral	False
489.711	0.39	Control	0.5962	0.004	No	2.735	-0.004	n/a	NoResponse	0	n/a	n/a	9	51	Target	Neutral	False
490.112	0.31	Control	0.5962	n/a	No	2.735	n/a	n/a	NoResponse	0	n/a	n/a	9	51	Blank	Neutral	False
490.413	1.45	Control	0.5962	n/a	No	2.735	n/a	5.0	NoResponse	0	0.042	489.455	9	51	Feedback	Neutral	False
491.867	2.735	Control	0.5962	n/a	No	2.735	n/a	n/a	NoResponse	0	0.0	n/a	9	51	ISIslide	Neutral	False
494.625	0.25	Control	0.5849	0.001	No	2.625	0.025	n/a	NoResponse	0	n/a	n/a	9	52	Cue	Neutral	False
494.876	4.05	Control	0.5849	0.0	No	2.625	0.001	n/a	NoResponse	0	n/a	n/a	9	52	Fixation	Neutral	False
498.922	0.4	Control	0.5849	0.003	No	2.625	-0.003	n/a	NoResponse	0	n/a	n/a	9	52	Target	Neutral	False
499.323	0.3	Control	0.5849	n/a	No	2.625	n/a	n/a	NoResponse	0	n/a	n/a	9	52	Blank	Neutral	False
499.624	1.45	Control	0.5849	n/a	No	2.625	n/a	5.0	NoResponse	0	0.004	498.628	9	52	Feedback	Neutral	False
501.078	2.625	Control	0.5849	n/a	No	2.625	n/a	n/a	NoResponse	0	0.0	n/a	9	52	ISIslide	Neutral	False
503.719	0.25	Win2	0.5926	0.0	Yes	2.931	0.019	n/a	GoodResponse	1	n/a	n/a	10	53	Cue	Win	True
503.97	4.05	Win2	0.5926	0.0	Yes	2.931	0.001	n/a	GoodResponse	1	n/a	n/a	10	53	Fixation	Win	True
508.015	0.41	Win2	0.5926	0.004	Yes	2.931	-0.004	2.0	GoodResponse	1	0.201	507.216	10	53	Target	Win	True
508.216	0.3	Win2	0.5926	0.004	Yes	2.931	-0.004	2.0	GoodResponse	1	0.201	n/a	10	53	ButtonPress	Win	True
508.433	0.29	Win2	0.5926	n/a	Yes	2.931	n/a	n/a	GoodResponse	1	n/a	n/a	10	53	Blank	Win	True
508.718	1.45	Win2	0.5926	n/a	Yes	2.931	n/a	5.0	GoodResponse	1	0.03	507.748	10	53	Feedback	Win	True
510.172	2.931	Win2	0.5926	n/a	Yes	2.931	n/a	n/a	GoodResponse	1	0.0	n/a	10	53	ISIslide	Win	True
513.114	0.25	Win2	0.6	0.0	Yes	2.736	0.014	n/a	GoodResponse	1	n/a	n/a	11	54	Cue	Win	True
513.365	3.95	Win2	0.6	0.0	Yes	2.736	0.001	n/a	GoodResponse	1	n/a	n/a	11	54	Fixation	Win	True
517.31	0.42	Win2	0.6	0.004	Yes	2.736	-0.004	2.0	GoodResponse	1	0.232	516.542	11	54	Target	Win	True
517.542	0.3	Win2	0.6	0.004	Yes	2.736	-0.004	2.0	GoodResponse	1	0.232	n/a	11	54	ButtonPress	Win	True
517.744	0.28	Win2	0.6	n/a	Yes	2.736	n/a	n/a	GoodResponse	1	n/a	n/a	11	54	Blank	Win	True
518.012	1.45	Win2	0.6	n/a	Yes	2.736	n/a	5.0	GoodResponse	1	0.004	517.016	11	54	Feedback	Win	True
519.466	2.736	Win2	0.6	n/a	Yes	2.736	n/a	n/a	GoodResponse	1	0.0	n/a	11	54	ISIslide	Win	True
522.225	0.25	Control	0.5893	0.0	No	3.025	0.025	n/a	NoResponse	0	n/a	n/a	11	55	Cue	Neutral	False
522.475	3.95	Control	0.5893	0.0	No	3.025	0.0	n/a	NoResponse	0	n/a	n/a	11	55	Fixation	Neutral	False
526.437	0.43	Control	0.5893	0.0	No	3.025	0.012	n/a	NoResponse	0	n/a	n/a	11	55	Target	Neutral	False
526.855	0.27	Control	0.5893	n/a	No	3.025	n/a	n/a	NoResponse	0	n/a	n/a	11	55	Blank	Neutral	False
527.122	1.45	Control	0.5893	n/a	No	3.025	n/a	5.0	NoResponse	0	0.016	526.138	11	55	Feedback	Neutral	False
528.577	3.025	Control	0.5893	n/a	No	3.025	n/a	n/a	NoResponse	0	0.0	n/a	11	55	ISIslide	Neutral	False
531.619	0.25	Control	0.5789	0.0	No	2.831	0.019	n/a	NoResponse	0	n/a	n/a	11	56	Cue	Neutral	False
531.87	3.95	Control	0.5789	0.0	No	2.831	0.001	n/a	NoResponse	0	n/a	n/a	11	56	Fixation	Neutral	False
535.815	0.44	Control	0.5789	0.004	No	2.831	-0.004	n/a	NoResponse	0	n/a	n/a	11	56	Target	Neutral	False
536.266	0.26	Control	0.5789	n/a	No	2.831	n/a	n/a	NoResponse	0	n/a	n/a	11	56	Blank	Neutral	False
536.517	1.45	Control	0.5789	n/a	No	2.831	n/a	5.0	NoResponse	0	0.035	535.552	11	56	Feedback	Neutral	False
537.972	2.831	Control	0.5789	n/a	No	2.831	n/a	n/a	NoResponse	0	0.0	n/a	11	56	ISIslide	Neutral	False
540.813	0.25	Control	0.569	0.0	No	3.487	0.013	n/a	NoResponse	0	n/a	n/a	11	57	Cue	Neutral	False
541.064	4.0	Control	0.569	0.0	No	3.487	0.001	n/a	NoResponse	0	n/a	n/a	11	57	Fixation	Neutral	False
545.059	0.45	Control	0.569	0.004	No	3.487	-0.004	n/a	NoResponse	0	n/a	n/a	11	57	Target	Neutral	False
545.511	0.25	Control	0.569	n/a	No	3.487	n/a	n/a	NoResponse	0	n/a	n/a	11	57	Blank	Neutral	False
545.761	1.45	Control	0.569	n/a	No	3.487	n/a	5.0	NoResponse	0	0.011	544.772	11	57	Feedback	Neutral	False
547.216	3.487	Control	0.569	n/a	No	3.487	n/a	n/a	NoResponse	0	0.0	n/a	11	57	ISIslide	Neutral	False
550.726	0.25	Win2	0.5763	0.0	Yes	2.724	0.026	n/a	GoodResponse	1	n/a	n/a	12	58	Cue	Win	True
550.977	4.05	Win2	0.5763	0.0	Yes	2.724	0.001	n/a	GoodResponse	1	n/a	n/a	12	58	Fixation	Win	True
555.022	0.46	Win2	0.5763	0.004	Yes	2.724	-0.004	2.0	GoodResponse	1	0.236	554.258	12	58	Target	Win	True
555.258	0.3	Win2	0.5763	0.004	Yes	2.724	-0.004	2.0	GoodResponse	1	0.236	n/a	12	58	ButtonPress	Win	True
555.491	0.24	Win2	0.5763	n/a	Yes	2.724	n/a	n/a	GoodResponse	1	n/a	n/a	12	58	Blank	Win	True
555.725	1.45	Win2	0.5763	n/a	Yes	2.724	n/a	5.0	GoodResponse	1	0.046	554.771	12	58	Feedback	Win	True
557.179	2.724	Win2	0.5763	n/a	Yes	2.724	n/a	n/a	GoodResponse	1	0.0	n/a	12	58	ISIslide	Win	True
559.92	0.25	Lose2	0.5832999999999999	0.001	Yes	2.68	0.02	n/a	GoodResponse	0	n/a	n/a	12	59	Cue	AvoidedLoss	True
560.171	4.0	Lose2	0.5832999999999999	0.0	Yes	2.68	0.001	n/a	GoodResponse	0	n/a	n/a	12	59	Fixation	AvoidedLoss	True
564.166	0.47	Lose2	0.5832999999999999	0.004	Yes	2.68	-0.004	2.0	GoodResponse	0	0.362	563.528	12	59	Target	AvoidedLoss	True
564.528	0.3	Lose2	0.5832999999999999	0.004	Yes	2.68	-0.004	2.0	GoodResponse	0	0.362	n/a	12	59	ButtonPress	AvoidedLoss	True
564.651	0.23	Lose2	0.5832999999999999	n/a	Yes	2.68	n/a	n/a	GoodResponse	0	n/a	n/a	12	59	Blank	AvoidedLoss	True
564.869	1.45	Lose2	0.5832999999999999	n/a	Yes	2.68	n/a	5.0	GoodResponse	0	0.024	563.893	12	59	Feedback	AvoidedLoss	True
566.323	2.68	Lose2	0.5832999999999999	n/a	Yes	2.68	n/a	n/a	GoodResponse	0	0.0	n/a	12	59	ISIslide	AvoidedLoss	True
569.014	0.25	Control	0.5738	0.0	No	2.686	0.014	n/a	NoResponse	0	n/a	n/a	12	60	Cue	Neutral	False
569.265	4.0	Control	0.5738	0.0	No	2.686	0.001	n/a	NoResponse	0	n/a	n/a	12	60	Fixation	Neutral	False
573.26	0.48	Control	0.5738	0.004	No	2.686	-0.004	n/a	NoResponse	0	n/a	n/a	12	60	Target	Neutral	False
573.745	0.22	Control	0.5738	n/a	No	2.686	n/a	n/a	NoResponse	0	n/a	n/a	12	60	Blank	Neutral	False
573.962	1.45	Control	0.5738	n/a	No	2.686	n/a	5.0	NoResponse	0	0.004	572.966	12	60	Feedback	Neutral	False
575.417	2.686	Control	0.5738	n/a	No	2.686	n/a	n/a	NoResponse	0	0.0	n/a	12	60	ISIslide	Neutral	False
578.125	0.25	Lose2	0.5806	0.0	Yes	2.975	0.025	n/a	GoodResponse	0	n/a	n/a	12	61	Cue	AvoidedLoss	True
578.376	4.0	Lose2	0.5806	0.0	Yes	2.975	0.001	n/a	GoodResponse	0	n/a	n/a	12	61	Fixation	AvoidedLoss	True
582.371	0.49	Lose2	0.5806	0.004	Yes	2.975	-0.004	2.0	GoodResponse	0	0.219	581.59	12	61	Target	AvoidedLoss	True
582.59	0.3	Lose2	0.5806	0.004	Yes	2.975	-0.004	2.0	GoodResponse	0	0.219	n/a	12	61	ButtonPress	AvoidedLoss	True
582.872	0.21	Lose2	0.5806	n/a	Yes	2.975	n/a	n/a	GoodResponse	0	n/a	n/a	12	61	Blank	AvoidedLoss	True
583.073	1.45	Lose2	0.5806	n/a	Yes	2.975	n/a	5.0	GoodResponse	0	0.015	582.088	12	61	Feedback	AvoidedLoss	True
584.527	2.975	Lose2	0.5806	n/a	Yes	2.975	n/a	n/a	GoodResponse	0	0.0	n/a	12	61	ISIslide	AvoidedLoss	True
587.52	0.25	Lose2	0.5872999999999999	0.0	Yes	2.88	0.02	n/a	GoodResponse	0	n/a	n/a	12	62	Cue	AvoidedLoss	True
587.77	3.9	Lose2	0.5872999999999999	0.0	Yes	2.88	0.0	n/a	GoodResponse	0	n/a	n/a	12	62	Fixation	AvoidedLoss	True
591.682	0.5	Lose2	0.5872999999999999	0.0	Yes	2.88	0.012	2.0	GoodResponse	0	0.294	590.976	12	62	Target	AvoidedLoss	True
591.976	0.3	Lose2	0.5872999999999999	0.0	Yes	2.88	0.012	2.0	GoodResponse	0	0.294	n/a	12	62	ButtonPress	AvoidedLoss	True
592.167	0.2	Lose2	0.5872999999999999	n/a	Yes	2.88	n/a	n/a	GoodResponse	0	n/a	n/a	12	62	Blank	AvoidedLoss	True
592.367	1.45	Lose2	0.5872999999999999	n/a	Yes	2.88	n/a	5.0	GoodResponse	0	0.039	591.406	12	62	Feedback	AvoidedLoss	True
593.822	2.88	Lose2	0.5872999999999999	n/a	Yes	2.88	n/a	n/a	GoodResponse	0	0.0	n/a	12	62	ISIslide	AvoidedLoss	True
596.73	0.25	Lose2	0.5938	0.0	Yes	2.62	0.03	n/a	GoodResponse	0	n/a	n/a	12	63	Cue	AvoidedLoss	True
596.981	4.05	Lose2	0.5938	0.0	Yes	2.62	0.001	n/a	GoodResponse	0	n/a	n/a	12	63	Fixation	AvoidedLoss	True
601.027	0.5	Lose2	0.5938	0.003	Yes	2.62	-0.003	2.0	GoodResponse	0	0.215	600.242	12	63	Target	AvoidedLoss	True
601.242	0.3	Lose2	0.5938	0.003	Yes	2.62	-0.003	2.0	GoodResponse	0	0.215	n/a	12	63	ButtonPress	AvoidedLoss	True
601.528	0.2	Lose2	0.5938	n/a	Yes	2.62	n/a	n/a	GoodResponse	0	n/a	n/a	12	63	Blank	AvoidedLoss	True
601.729	1.45	Lose2	0.5938	n/a	Yes	2.62	n/a	5.0	GoodResponse	0	0.041	600.77	12	63	Feedback	AvoidedLoss	True
603.183	2.62	Lose2	0.5938	n/a	Yes	2.62	n/a	n/a	GoodResponse	0	0.0	n/a	12	63	ISIslide	AvoidedLoss	True
605.824	0.25	Win2	0.6	0.0	Yes	3.126	0.024	n/a	GoodResponse	1	n/a	n/a	13	64	Cue	Win	True
606.075	4.15	Win2	0.6	0.0	Yes	3.126	0.001	n/a	GoodResponse	1	n/a	n/a	13	64	Fixation	Win	True
610.221	0.5	Win2	0.6	0.003	Yes	3.126	-0.003	2.0	GoodResponse	1	0.313	609.534	13	64	Target	Win	True
610.534	0.3	Win2	0.6	0.003	Yes	3.126	-0.003	2.0	GoodResponse	1	0.313	n/a	13	64	ButtonPress	Win	True
610.722	0.2	Win2	0.6	n/a	Yes	3.126	n/a	n/a	GoodResponse	1	n/a	n/a	13	64	Blank	Win	True
610.923	1.45	Win2	0.6	n/a	Yes	3.126	n/a	5.0	GoodResponse	1	0.018	609.941	13	64	Feedback	Win	True
612.377	3.126	Win2	0.6	n/a	Yes	3.126	n/a	n/a	GoodResponse	1	0.0	n/a	13	64	ISIslide	Win	True
615.52	0.25	Control	0.5909	0.0	No	2.78	0.02	n/a	NoResponse	0	n/a	n/a	13	65	Cue	Neutral	False
615.771	4.0	Control	0.5909	0.0	No	2.78	0.001	n/a	NoResponse	0	n/a	n/a	13	65	Fixation	Neutral	False
619.766	0.5	Control	0.5909	0.004	No	2.78	-0.004	n/a	NoResponse	0	n/a	n/a	13	65	Target	Neutral	False
620.267	0.2	Control	0.5909	n/a	No	2.78	n/a	n/a	NoResponse	0	n/a	n/a	13	65	Blank	Neutral	False
620.468	1.45	Control	0.5909	n/a	No	2.78	n/a	5.0	NoResponse	0	0.034	619.502	13	65	Feedback	Neutral	False
621.922	2.78	Control	0.5909	n/a	No	2.78	n/a	n/a	NoResponse	0	0.0	n/a	13	65	ISIslide	Neutral	False
624.731	0.25	Win2	0.597	0.0	Yes	2.769	0.031	n/a	GoodResponse	1	n/a	n/a	14	66	Cue	Win	True
624.981	3.9	Win2	0.597	0.0	Yes	2.769	0.0	n/a	GoodResponse	1	n/a	n/a	14	66	Fixation	Win	True
628.893	0.5	Win2	0.597	0.0	Yes	2.769	0.012	2.0	GoodResponse	1	0.222	628.115	14	66	Target	Win	True
629.115	0.3	Win2	0.597	0.0	Yes	2.769	0.012	2.0	GoodResponse	1	0.222	n/a	14	66	ButtonPress	Win	True
629.378	0.2	Win2	0.597	n/a	Yes	2.769	n/a	n/a	GoodResponse	1	n/a	n/a	14	66	Blank	Win	True
629.578	1.45	Win2	0.597	n/a	Yes	2.769	n/a	5.0	GoodResponse	1	0.046	628.624	14	66	Feedback	Win	True
631.033	2.769	Win2	0.597	n/a	Yes	2.769	n/a	n/a	GoodResponse	1	0.0	n/a	14	66	ISIslide	Win	True
633.824	0.25	Control	0.5882000000000001	0.001	No	2.726	0.024	n/a	NoResponse	0	n/a	n/a	14	67	Cue	Neutral	False
634.075	3.95	Control	0.5882000000000001	0.0	No	2.726	0.001	n/a	NoResponse	0	n/a	n/a	14	67	Fixation	Neutral	False
638.02	0.5	Control	0.5882000000000001	0.004	No	2.726	-0.004	n/a	NoResponse	0	n/a	n/a	14	67	Target	Neutral	False
638.522	0.2	Control	0.5882000000000001	n/a	No	2.726	n/a	n/a	NoResponse	0	n/a	n/a	14	67	Blank	Neutral	False
638.722	1.45	Control	0.5882000000000001	n/a	No	2.726	n/a	5.0	NoResponse	0	0.024	637.746	14	67	Feedback	Neutral	False
640.177	2.726	Control	0.5882000000000001	n/a	No	2.726	n/a	n/a	NoResponse	0	0.0	n/a	14	67	ISIslide	Neutral	False
642.918	0.25	Win2	0.5942000000000001	0.0	Yes	3.082	0.018	n/a	GoodResponse	1	n/a	n/a	15	68	Cue	Win	True
643.169	4.0	Win2	0.5942000000000001	0.0	Yes	3.082	0.001	n/a	GoodResponse	1	n/a	n/a	15	68	Fixation	Win	True
647.164	0.5	Win2	0.5942000000000001	0.004	Yes	3.082	-0.004	2.0	GoodResponse	1	0.218	646.382	15	68	Target	Win	True
647.382	0.3	Win2	0.5942000000000001	0.004	Yes	3.082	-0.004	2.0	GoodResponse	1	0.218	n/a	15	68	ButtonPress	Win	True
647.666	0.2	Win2	0.5942000000000001	n/a	Yes	3.082	n/a	n/a	GoodResponse	1	n/a	n/a	15	68	Blank	Win	True
647.866	1.45	Win2	0.5942000000000001	n/a	Yes	3.082	n/a	5.0	GoodResponse	1	0.002	646.868	15	68	Feedback	Win	True
649.321	3.082	Win2	0.5942000000000001	n/a	Yes	3.082	n/a	n/a	GoodResponse	1	0.0	n/a	15	68	ISIslide	Win	True
652.43	0.25	Win2	0.6	0.0	Yes	3.22	0.03	n/a	GoodResponse	1	n/a	n/a	16	69	Cue	Win	True
652.681	3.95	Win2	0.6	0.0	Yes	3.22	0.001	n/a	GoodResponse	1	n/a	n/a	16	69	Fixation	Win	True
656.626	0.5	Win2	0.6	0.004	Yes	3.22	-0.004	2.0	GoodResponse	1	0.23	655.856	16	69	Target	Win	True
656.856	0.3	Win2	0.6	0.004	Yes	3.22	-0.004	2.0	GoodResponse	1	0.23	n/a	16	69	ButtonPress	Win	True
657.127	0.2	Win2	0.6	n/a	Yes	3.22	n/a	n/a	GoodResponse	1	n/a	n/a	16	69	Blank	Win	True
657.328	1.45	Win2	0.6	n/a	Yes	3.22	n/a	5.0	GoodResponse	1	0.006	656.334	16	69	Feedback	Win	True
658.782	3.22	Win2	0.6	n/a	Yes	3.22	n/a	n/a	GoodResponse	1	0.0	n/a	16	69	ISIslide	Win	True
662.025	0.25	Lose2	0.6056	0.0	Yes	3.025	0.025	n/a	GoodResponse	0	n/a	n/a	16	70	Cue	AvoidedLoss	True
662.276	4.05	Lose2	0.6056	0.0	Yes	3.025	0.001	n/a	GoodResponse	0	n/a	n/a	16	70	Fixation	AvoidedLoss	True
666.322	0.5	Lose2	0.6056	0.003	Yes	3.025	-0.003	2.0	GoodResponse	0	0.438	665.76	16	70	Target	AvoidedLoss	True
666.76	0.3	Lose2	0.6056	0.003	Yes	3.025	-0.003	2.0	GoodResponse	0	0.438	n/a	16	70	ButtonPress	AvoidedLoss	True
666.823	0.2	Lose2	0.6056	n/a	Yes	3.025	n/a	n/a	GoodResponse	0	n/a	n/a	16	70	Blank	AvoidedLoss	True
667.024	1.45	Lose2	0.6056	n/a	Yes	3.025	n/a	5.0	GoodResponse	0	0.014	666.038	16	70	Feedback	AvoidedLoss	True
668.478	3.025	Lose2	0.6056	n/a	Yes	3.025	n/a	n/a	GoodResponse	0	0.0	n/a	16	70	ISIslide	AvoidedLoss	True
671.52	0.25	Win2	0.6111	0.0	Yes	2.73	0.02	n/a	GoodResponse	1	n/a	n/a	17	71	Cue	Win	True
671.771	4.05	Win2	0.6111	0.0	Yes	2.73	0.001	n/a	GoodResponse	1	n/a	n/a	17	71	Fixation	Win	True
675.817	0.5	Win2	0.6111	0.003	Yes	2.73	-0.003	2.0	GoodResponse	1	0.229	675.046	17	71	Target	Win	True
676.046	0.3	Win2	0.6111	0.003	Yes	2.73	-0.003	2.0	GoodResponse	1	0.229	n/a	17	71	ButtonPress	Win	True
676.318	0.2	Win2	0.6111	n/a	Yes	2.73	n/a	n/a	GoodResponse	1	n/a	n/a	17	71	Blank	Win	True
676.519	1.45	Win2	0.6111	n/a	Yes	2.73	n/a	5.0	GoodResponse	1	0.031	675.55	17	71	Feedback	Win	True
677.973	2.73	Win2	0.6111	n/a	Yes	2.73	n/a	n/a	GoodResponse	1	0.0	n/a	17	71	ISIslide	Win	True
680.731	0.25	Win2	0.6164000000000001	0.0	Yes	2.769	0.031	n/a	GoodResponse	1	n/a	n/a	18	72	Cue	Win	True
680.982	4.1	Win2	0.6164000000000001	0.0	Yes	2.769	0.001	n/a	GoodResponse	1	n/a	n/a	18	72	Fixation	Win	True
685.078	0.5	Win2	0.6164000000000001	0.003	Yes	2.769	-0.003	2.0	GoodResponse	1	0.219	684.297	18	72	Target	Win	True
685.297	0.3	Win2	0.6164000000000001	0.003	Yes	2.769	-0.003	2.0	GoodResponse	1	0.219	n/a	18	72	ButtonPress	Win	True
685.579	0.2	Win2	0.6164000000000001	n/a	Yes	2.769	n/a	n/a	GoodResponse	1	n/a	n/a	18	72	Blank	Win	True
685.78	1.45	Win2	0.6164000000000001	n/a	Yes	2.769	n/a	5.0	GoodResponse	1	0.038	684.818	18	72	Feedback	Win	True
687.234	2.769	Win2	0.6164000000000001	n/a	Yes	2.769	n/a	n/a	GoodResponse	1	0.0	n/a	18	72	ISIslide	Win	True
690.026	0.25	Win2	0.6215999999999999	0.0	Yes	2.674	0.026	n/a	GoodResponse	1	n/a	n/a	19	73	Cue	Win	True
690.276	4.0	Win2	0.6215999999999999	0.0	Yes	2.674	0.0	n/a	GoodResponse	1	n/a	n/a	19	73	Fixation	Win	True
694.272	0.5	Win2	0.6215999999999999	0.004	Yes	2.674	-0.004	2.0	GoodResponse	1	0.217	693.489	19	73	Target	Win	True
694.489	0.3	Win2	0.6215999999999999	0.004	Yes	2.674	-0.004	2.0	GoodResponse	1	0.217	n/a	19	73	ButtonPress	Win	True
694.773	0.2	Win2	0.6215999999999999	n/a	Yes	2.674	n/a	n/a	GoodResponse	1	n/a	n/a	19	73	Blank	Win	True
694.974	1.45	Win2	0.6215999999999999	n/a	Yes	2.674	n/a	5.0	GoodResponse	1	0.015	693.989	19	73	Feedback	Win	True
696.428	2.674	Win2	0.6215999999999999	n/a	Yes	2.674	n/a	n/a	GoodResponse	1	0.0	n/a	19	73	ISIslide	Win	True
699.119	0.25	Lose2	0.6267	0.001	Yes	2.631	0.019	n/a	GoodResponse	0	n/a	n/a	19	74	Cue	AvoidedLoss	True
699.37	4.05	Lose2	0.6267	0.0	Yes	2.631	0.001	n/a	GoodResponse	0	n/a	n/a	19	74	Fixation	AvoidedLoss	True
703.416	0.5	Lose2	0.6267	0.003	Yes	2.631	-0.003	2.0	GoodResponse	0	0.218	702.634	19	74	Target	AvoidedLoss	True
703.634	0.3	Lose2	0.6267	0.003	Yes	2.631	-0.003	2.0	GoodResponse	0	0.218	n/a	19	74	ButtonPress	AvoidedLoss	True
703.917	0.2	Lose2	0.6267	n/a	Yes	2.631	n/a	n/a	GoodResponse	0	n/a	n/a	19	74	Blank	AvoidedLoss	True
704.118	1.45	Lose2	0.6267	n/a	Yes	2.631	n/a	5.0	GoodResponse	0	0.042	703.16	19	74	Feedback	AvoidedLoss	True
705.572	2.631	Lose2	0.6267	n/a	Yes	2.631	n/a	n/a	GoodResponse	0	0.0	n/a	19	74	ISIslide	AvoidedLoss	True
708.23	0.25	Lose2	0.6315999999999999	0.0	Yes	2.92	0.03	n/a	GoodResponse	0	n/a	n/a	19	75	Cue	AvoidedLoss	True
708.481	3.95	Lose2	0.6315999999999999	0.0	Yes	2.92	0.001	n/a	GoodResponse	0	n/a	n/a	19	75	Fixation	AvoidedLoss	True
712.426	0.5	Lose2	0.6315999999999999	0.004	Yes	2.92	-0.004	2.0	GoodResponse	0	0.251	711.677	19	75	Target	AvoidedLoss	True
712.677	0.3	Lose2	0.6315999999999999	0.004	Yes	2.92	-0.004	2.0	GoodResponse	0	0.251	n/a	19	75	ButtonPress	AvoidedLoss	True
712.927	0.2	Lose2	0.6315999999999999	n/a	Yes	2.92	n/a	n/a	GoodResponse	0	n/a	n/a	19	75	Blank	AvoidedLoss	True
713.128	1.45	Lose2	0.6315999999999999	n/a	Yes	2.92	n/a	5.0	GoodResponse	0	0.007	712.135	19	75	Feedback	AvoidedLoss	True
714.582	2.92	Lose2	0.6315999999999999	n/a	Yes	2.92	n/a	n/a	GoodResponse	0	0.0	n/a	19	75	ISIslide	AvoidedLoss	True
717.524	0.25	Control	0.6234000000000001	0.001	No	3.226	0.024	n/a	NoResponse	0	n/a	n/a	19	76	Cue	Neutral	False
717.775	4.05	Control	0.6234000000000001	0.0	No	3.226	0.001	n/a	NoResponse	0	n/a	n/a	19	76	Fixation	Neutral	False
721.821	0.5	Control	0.6234000000000001	0.003	No	3.226	-0.003	n/a	NoResponse	0	n/a	n/a	19	76	Target	Neutral	False
722.322	0.2	Control	0.6234000000000001	n/a	No	3.226	n/a	n/a	NoResponse	0	n/a	n/a	19	76	Blank	Neutral	False
722.523	1.45	Control	0.6234000000000001	n/a	No	3.226	n/a	5.0	NoResponse	0	0.026	721.549	19	76	Feedback	Neutral	False
723.977	3.226	Control	0.6234000000000001	n/a	No	3.226	n/a	n/a	NoResponse	0	0.0	n/a	19	76	ISIslide	Neutral	False
727.22	0.25	Lose2	0.6282	0.0	Yes	2.58	0.02	n/a	GoodResponse	0	n/a	n/a	19	77	Cue	AvoidedLoss	True
727.471	3.95	Lose2	0.6282	0.0	Yes	2.58	0.001	n/a	GoodResponse	0	n/a	n/a	19	77	Fixation	AvoidedLoss	True
731.416	0.5	Lose2	0.6282	0.004	Yes	2.58	-0.004	2.0	GoodResponse	0	0.21	730.626	19	77	Target	AvoidedLoss	True
731.626	0.3	Lose2	0.6282	0.004	Yes	2.58	-0.004	2.0	GoodResponse	0	0.21	n/a	19	77	ButtonPress	AvoidedLoss	True
731.917	0.2	Lose2	0.6282	n/a	Yes	2.58	n/a	n/a	GoodResponse	0	n/a	n/a	19	77	Blank	AvoidedLoss	True
732.118	1.45	Lose2	0.6282	n/a	Yes	2.58	n/a	5.0	GoodResponse	0	0.041	731.159	19	77	Feedback	AvoidedLoss	True
733.572	2.58	Lose2	0.6282	n/a	Yes	2.58	n/a	n/a	GoodResponse	0	0.0	n/a	19	77	ISIslide	AvoidedLoss	True
