onset	duration	cue_type	current_mean_accuracy	duration_error	is_hit	isi_adjusted	onset_delay	response	response_type	reward	rt	rt_time	total_reward	trial_number	trial_phase	trial_type	one_press
11.1	0.25	Control	1.0	0.0	Yes	2.95	0.0	n/a	GoodResponse	0	n/a	n/a	0	0	Cue	Neutral	True
11.35	3.85	Control	1.0	0.0	Yes	2.95	0.0	n/a	GoodResponse	0	n/a	n/a	0	0	Fixation	Neutral	True
15.199	0.4	Control	1.0	0.001	Yes	2.95	-0.001	3.0	GoodResponse	0	0.25	14.449	0	0	Target	Neutral	True
15.449	0.3	Control	1.0	0.001	Yes	2.95	-0.001	3.0	GoodResponse	0	0.25	n/a	0	0	ButtonPress	Neutral	True
15.599	0.3	Control	1.0	n/a	Yes	2.95	n/a	n/a	GoodResponse	0	n/a	n/a	0	0	Blank	Neutral	True
15.899	1.45	Control	1.0	n/a	Yes	2.95	n/a	5.0	GoodResponse	0	1.104	16.003	0	0	Feedback	Neutral	True
17.348	2.95	Control	1.0	n/a	Yes	2.95	n/a	n/a	GoodResponse	0	0.0	n/a	0	0	ISIslide	Neutral	True
20.314	0.25	Lose2	1.0	0.0	Yes	2.786	0.014	n/a	GoodResponse	0	n/a	n/a	0	1	Cue	AvoidedLoss	True
20.564	4.0	Lose2	1.0	0.0	Yes	2.786	0.0	n/a	GoodResponse	0	n/a	n/a	0	1	Fixation	AvoidedLoss	True
24.562	0.39	Lose2	1.0	0.002	Yes	2.786	-0.002	3.0	GoodResponse	0	0.238	23.8	0	1	Target	AvoidedLoss	True
24.8	0.3	Lose2	1.0	0.002	Yes	2.786	-0.002	3.0	GoodResponse	0	0.238	n/a	0	1	ButtonPress	AvoidedLoss	True
24.962	0.31	Lose2	1.0	n/a	Yes	2.786	n/a	n/a	GoodResponse	0	n/a	n/a	0	1	Blank	AvoidedLoss	True
25.262	1.45	Lose2	1.0	n/a	Yes	2.786	n/a	n/a	GoodResponse	0	n/a	n/a	0	1	Feedback	AvoidedLoss	True
26.711	2.786	Lose2	1.0	n/a	Yes	2.786	n/a	n/a	GoodResponse	0	0.0	n/a	0	1	ISIslide	AvoidedLoss	True
29.527	0.25	Control	1.0	0.0	Yes	2.573	0.027	n/a	GoodResponse	0	n/a	n/a	0	2	Cue	Neutral	True
29.777	4.1	Control	1.0	0.0	Yes	2.573	0.0	n/a	GoodResponse	0	n/a	n/a	0	2	Fixation	Neutral	True
33.876	0.38	Control	1.0	0.001	Yes	2.573	-0.001	3.0	GoodResponse	0	0.244	33.12	0	2	Target	Neutral	True
34.12	0.3	Control	1.0	0.001	Yes	2.573	-0.001	3.0	GoodResponse	0	0.244	n/a	0	2	ButtonPress	Neutral	True
34.259	0.32	Control	1.0	n/a	Yes	2.573	n/a	n/a	GoodResponse	0	n/a	n/a	0	2	Blank	Neutral	True
34.575	1.45	Control	1.0	n/a	Yes	2.573	n/a	5.0	GoodResponse	0	0.427	34.002	0	2	Feedback	Neutral	True
36.025	2.573	Control	1.0	n/a	Yes	2.573	n/a	n/a	GoodResponse	0	0.0	n/a	0	2	ISIslide	Neutral	True
38.624	0.25	Win2	1.0	0.0	Yes	2.826	0.024	n/a	GoodResponse	1	n/a	n/a	1	3	Cue	Win	True
38.874	3.95	Win2	1.0	0.0	Yes	2.826	0.0	n/a	GoodResponse	1	n/a	n/a	1	3	Fixation	Win	True
42.823	0.37	Win2	1.0	0.001	Yes	2.826	-0.001	3.0	GoodResponse	1	0.334	42.157	1	3	Target	Win	True
43.157	0.3	Win2	1.0	0.001	Yes	2.826	-0.001	3.0	GoodResponse	1	0.334	n/a	1	3	ButtonPress	Win	True
43.206	0.33	Win2	1.0	n/a	Yes	2.826	n/a	n/a	GoodResponse	1	n/a	n/a	1	3	Blank	Win	True
43.522	1.45	Win2	1.0	n/a	Yes	2.826	n/a	n/a	GoodResponse	1	n/a	n/a	1	3	Feedback	Win	True
44.972	2.826	Win2	1.0	n/a	Yes	2.826	n/a	n/a	GoodResponse	1	0.0	n/a	1	3	ISIslide	Win	True
47.821	0.25	Win2	1.0	0.0	Yes	3.279	0.021	n/a	GoodResponse	1	n/a	n/a	2	4	Cue	Win	True
48.071	4.0	Win2	1.0	0.0	Yes	3.279	0.0	n/a	GoodResponse	1	n/a	n/a	2	4	Fixation	Win	True
52.069	0.36	Win2	1.0	0.002	Yes	3.279	-0.002	3.0	GoodResponse	1	0.187	51.256	2	4	Target	Win	True
52.256	0.3	Win2	1.0	0.002	Yes	3.279	-0.002	3.0	GoodResponse	1	0.187	n/a	2	4	ButtonPress	Win	True
52.436	0.34	Win2	1.0	n/a	Yes	3.279	n/a	n/a	GoodResponse	1	n/a	n/a	2	4	Blank	Win	True
52.769	1.45	Win2	1.0	n/a	Yes	3.279	n/a	5.0	GoodResponse	1	0.234	52.003	2	4	Feedback	Win	True
54.219	3.279	Win2	1.0	n/a	Yes	3.279	n/a	n/a	GoodResponse	1	0.0	n/a	2	4	ISIslide	Win	True
57.518	0.25	Win2	1.0	0.0	Yes	2.782	0.018	n/a	GoodResponse	1	n/a	n/a	3	5	Cue	Win	True
57.767	4.0	Win2	1.0	0.001	Yes	2.782	-0.001	n/a	GoodResponse	1	n/a	n/a	3	5	Fixation	Win	True
61.766	0.35	Win2	1.0	0.002	Yes	2.782	-0.002	3.0	GoodResponse	1	0.234	61.0	3	5	Target	Win	True
62	0.3	Win2	1.0	0.002	Yes	2.782	-0.002	3.0	GoodResponse	1	0.234	n/a	3	5	ButtonPress	Win	True
62.116	0.35	Win2	1.0	n/a	Yes	2.782	n/a	n/a	GoodResponse	1	n/a	n/a	3	5	Blank	Win	True
62.466	1.45	Win2	1.0	n/a	Yes	2.782	n/a	5.0	GoodResponse	1	0.537	62.003	3	5	Feedback	Win	True
63.915	2.782	Win2	1.0	n/a	Yes	2.782	n/a	n/a	GoodResponse	1	0.0	n/a	3	5	ISIslide	Win	True
66.731	0.25	Lose2	1.0	0.0	Yes	2.719	0.031	n/a	GoodResponse	0	n/a	n/a	3	6	Cue	AvoidedLoss	True
66.981	3.95	Lose2	1.0	0.0	Yes	2.719	0.0	n/a	GoodResponse	0	n/a	n/a	3	6	Fixation	AvoidedLoss	True
70.93	0.34	Lose2	1.0	0.001	Yes	2.719	-0.001	3.0	GoodResponse	0	0.192	70.122	3	6	Target	AvoidedLoss	True
71.122	0.3	Lose2	1.0	0.001	Yes	2.719	-0.001	3.0	GoodResponse	0	0.192	n/a	3	6	ButtonPress	AvoidedLoss	True
71.279	0.36	Lose2	1.0	n/a	Yes	2.719	n/a	n/a	GoodResponse	0	n/a	n/a	3	6	Blank	AvoidedLoss	True
71.629	1.45	Lose2	1.0	n/a	Yes	2.719	n/a	5.0	GoodResponse	0	1.374	72.003	3	6	Feedback	AvoidedLoss	True
73.079	2.719	Lose2	1.0	n/a	Yes	2.719	n/a	n/a	GoodResponse	0	0.0	n/a	3	6	ISIslide	AvoidedLoss	True
75.828	0.25	Lose2	1.0	0.0	Yes	4.022	0.028	n/a	GoodResponse	0	n/a	n/a	3	7	Cue	AvoidedLoss	True
76.078	4.05	Lose2	1.0	0.0	Yes	4.022	0.0	n/a	GoodResponse	0	n/a	n/a	3	7	Fixation	AvoidedLoss	True
80.126	0.33	Lose2	1.0	0.002	Yes	4.022	-0.002	3.0	GoodResponse	0	0.183	79.309	3	7	Target	AvoidedLoss	True
80.309	0.3	Lose2	1.0	0.002	Yes	4.022	-0.002	3.0	GoodResponse	0	0.183	n/a	3	7	ButtonPress	AvoidedLoss	True
80.46	0.37	Lose2	1.0	n/a	Yes	4.022	n/a	n/a	GoodResponse	0	n/a	n/a	3	7	Blank	AvoidedLoss	True
80.826	1.45	Lose2	1.0	n/a	Yes	4.022	n/a	5.0	GoodResponse	0	0.177	80.003	3	7	Feedback	AvoidedLoss	True
82.276	4.022	Lose2	1.0	n/a	Yes	4.022	n/a	n/a	GoodResponse	0	0.0	n/a	3	7	ISIslide	AvoidedLoss	True
86.324	0.25	Lose2	1.0	0.0	Yes	3.026	0.024	n/a	GoodResponse	0	n/a	n/a	3	8	Cue	AvoidedLoss	True
86.574	3.95	Lose2	1.0	0.0	Yes	3.026	0.0	n/a	GoodResponse	0	n/a	n/a	3	8	Fixation	AvoidedLoss	True
90.523	0.32	Lose2	1.0	0.001	Yes	3.026	-0.001	3.0	GoodResponse	0	0.187	89.71	3	8	Target	AvoidedLoss	True
90.71	0.3	Lose2	1.0	0.001	Yes	3.026	-0.001	3.0	GoodResponse	0	0.187	n/a	3	8	ButtonPress	AvoidedLoss	True
90.856	0.38	Lose2	1.0	n/a	Yes	3.026	n/a	n/a	GoodResponse	0	n/a	n/a	3	8	Blank	AvoidedLoss	True
91.223	1.45	Lose2	1.0	n/a	Yes	3.026	n/a	n/a	GoodResponse	0	n/a	n/a	3	8	Feedback	AvoidedLoss	True
92.672	3.026	Lose2	1.0	n/a	Yes	3.026	n/a	n/a	GoodResponse	0	0.0	n/a	3	8	ISIslide	AvoidedLoss	True
95.721	0.25	Lose2	1.0	0.0	Yes	3.129	0.021	n/a	GoodResponse	0	n/a	n/a	3	9	Cue	AvoidedLoss	True
95.971	3.95	Lose2	1.0	0.0	Yes	3.129	0.0	n/a	GoodResponse	0	n/a	n/a	3	9	Fixation	AvoidedLoss	True
99.92	0.31	Lose2	1.0	0.001	Yes	3.129	-0.001	3.0	GoodResponse	0	0.208	99.128	3	9	Target	AvoidedLoss	True
100.128	0.3	Lose2	1.0	0.001	Yes	3.129	-0.001	3.0	GoodResponse	0	0.208	n/a	3	9	ButtonPress	AvoidedLoss	True
100.236	0.39	Lose2	1.0	n/a	Yes	3.129	n/a	n/a	GoodResponse	0	n/a	n/a	3	9	Blank	AvoidedLoss	True
100.619	1.45	Lose2	1.0	n/a	Yes	3.129	n/a	5.0	GoodResponse	0	0.383	100.002	3	9	Feedback	AvoidedLoss	True
102.069	3.129	Lose2	1.0	n/a	Yes	3.129	n/a	n/a	GoodResponse	0	0.0	n/a	3	9	ISIslide	AvoidedLoss	True
105.218	0.25	Control	1.0	0.0	Yes	3.282	0.018	n/a	GoodResponse	0	n/a	n/a	3	10	Cue	Neutral	True
105.468	4.0	Control	1.0	0.0	Yes	3.282	0.0	n/a	GoodResponse	0	n/a	n/a	3	10	Fixation	Neutral	True
109.466	0.3	Control	1.0	0.002	Yes	3.282	-0.002	3.0	GoodResponse	0	0.196	108.662	3	10	Target	Neutral	True
109.662	0.3	Control	1.0	0.002	Yes	3.282	-0.002	3.0	GoodResponse	0	0.196	n/a	3	10	ButtonPress	Neutral	True
109.766	0.4	Control	1.0	n/a	Yes	3.282	n/a	n/a	GoodResponse	0	n/a	n/a	3	10	Blank	Neutral	True
110.166	1.45	Control	1.0	n/a	Yes	3.282	n/a	5.0	GoodResponse	0	0.836	110.002	3	10	Feedback	Neutral	True
111.615	3.282	Control	1.0	n/a	Yes	3.282	n/a	n/a	GoodResponse	0	0.0	n/a	3	10	ISIslide	Neutral	True
114.914	0.25	Lose2	1.0	0.0	Yes	2.736	0.014	n/a	GoodResponse	0	n/a	n/a	3	11	Cue	AvoidedLoss	True
115.164	4.05	Lose2	1.0	0.0	Yes	2.736	0.0	n/a	GoodResponse	0	n/a	n/a	3	11	Fixation	AvoidedLoss	True
119.213	0.29	Lose2	1.0	0.001	Yes	2.736	-0.001	3.0	GoodResponse	0	0.184	118.397	3	11	Target	AvoidedLoss	True
119.397	0.3	Lose2	1.0	0.001	Yes	2.736	-0.001	3.0	GoodResponse	0	0.184	n/a	3	11	ButtonPress	AvoidedLoss	True
119.513	0.41	Lose2	1.0	n/a	Yes	2.736	n/a	n/a	GoodResponse	0	n/a	n/a	3	11	Blank	AvoidedLoss	True
119.913	1.45	Lose2	1.0	n/a	Yes	2.736	n/a	5.0	GoodResponse	0	1.089	120.002	3	11	Feedback	AvoidedLoss	True
121.362	2.736	Lose2	1.0	n/a	Yes	2.736	n/a	n/a	GoodResponse	0	0.0	n/a	3	11	ISIslide	AvoidedLoss	True
124.128	0.25	Control	1.0	0.0	Yes	2.972	0.028	n/a	GoodResponse	0	n/a	n/a	3	12	Cue	Neutral	True
124.378	3.9	Control	1.0	0.0	Yes	2.972	0.0	n/a	GoodResponse	0	n/a	n/a	3	12	Fixation	Neutral	True
128.276	0.28	Control	1.0	0.002	Yes	2.972	-0.002	3.0	GoodResponse	0	0.256	127.532	3	12	Target	Neutral	True
128.532	0.3	Control	1.0	0.002	Yes	2.972	-0.002	3.0	GoodResponse	0	0.256	n/a	3	12	ButtonPress	Neutral	True
128.56	0.42	Control	1.0	n/a	Yes	2.972	n/a	n/a	GoodResponse	0	n/a	n/a	3	12	Blank	Neutral	True
128.976	1.45	Control	1.0	n/a	Yes	2.972	n/a	5.0	GoodResponse	0	0.026	128.002	3	12	Feedback	Neutral	True
130.426	2.972	Control	1.0	n/a	Yes	2.972	n/a	n/a	GoodResponse	0	0.0	n/a	3	12	ISIslide	Neutral	True
133.425	0.25	Control	1.0	0.0	Yes	2.775	0.025	n/a	GoodResponse	0	n/a	n/a	3	13	Cue	Neutral	True
133.675	4.0	Control	1.0	0.0	Yes	2.775	0.0	n/a	GoodResponse	0	n/a	n/a	3	13	Fixation	Neutral	True
137.673	0.27	Control	1.0	0.002	Yes	2.775	-0.002	3.0	GoodResponse	0	0.154	136.827	3	13	Target	Neutral	True
137.827	0.3	Control	1.0	0.002	Yes	2.775	-0.002	3.0	GoodResponse	0	0.154	n/a	3	13	ButtonPress	Neutral	True
137.956	0.43	Control	1.0	n/a	Yes	2.775	n/a	n/a	GoodResponse	0	n/a	n/a	3	13	Blank	Neutral	True
138.373	1.45	Control	1.0	n/a	Yes	2.775	n/a	5.0	GoodResponse	0	0.63	138.003	3	13	Feedback	Neutral	True
139.822	2.775	Control	1.0	n/a	Yes	2.775	n/a	n/a	GoodResponse	0	0.0	n/a	3	13	ISIslide	Neutral	True
142.621	0.25	Win2	1.0	0.0	Yes	2.679	0.021	n/a	GoodResponse	1	n/a	n/a	4	14	Cue	Win	True
142.871	4.1	Win2	1.0	0.0	Yes	2.679	0.0	n/a	GoodResponse	1	n/a	n/a	4	14	Fixation	Win	True
146.97	0.26	Win2	1.0	0.001	Yes	2.679	-0.001	3.0	GoodResponse	1	0.134	146.104	4	14	Target	Win	True
147.104	0.3	Win2	1.0	0.001	Yes	2.679	-0.001	3.0	GoodResponse	1	0.134	n/a	4	14	ButtonPress	Win	True
147.236	0.44	Win2	1.0	n/a	Yes	2.679	n/a	n/a	GoodResponse	1	n/a	n/a	4	14	Blank	Win	True
147.67	1.45	Win2	1.0	n/a	Yes	2.679	n/a	5.0	GoodResponse	1	1.332	148.002	4	14	Feedback	Win	True
149.119	2.679	Win2	1.0	n/a	Yes	2.679	n/a	n/a	GoodResponse	1	0.0	n/a	4	14	ISIslide	Win	True
151.818	0.25	Control	1.0	0.0	Yes	2.982	0.018	n/a	GoodResponse	0	n/a	n/a	4	15	Cue	Neutral	True
152.068	4.0	Control	1.0	0.0	Yes	2.982	0.0	n/a	GoodResponse	0	n/a	n/a	4	15	Fixation	Neutral	True
156.067	0.25	Control	1.0	0.001	Yes	2.982	-0.001	3.0	GoodResponse	0	0.188	155.255	4	15	Target	Neutral	True
156.255	0.3	Control	1.0	0.001	Yes	2.982	-0.001	3.0	GoodResponse	0	0.188	n/a	4	15	ButtonPress	Neutral	True
156.317	0.45	Control	1.0	n/a	Yes	2.982	n/a	n/a	GoodResponse	0	n/a	n/a	4	15	Blank	Neutral	True
156.767	1.45	Control	1.0	n/a	Yes	2.982	n/a	5.0	GoodResponse	0	0.235	156.002	4	15	Feedback	Neutral	True
158.216	2.982	Control	1.0	n/a	Yes	2.982	n/a	n/a	GoodResponse	0	0.0	n/a	4	15	ISIslide	Neutral	True
161.215	0.25	Win2	1.0	0.0	Yes	2.885	0.015	n/a	GoodResponse	1	n/a	n/a	5	16	Cue	Win	True
161.465	4.0	Win2	1.0	0.0	Yes	2.885	0.0	n/a	GoodResponse	1	n/a	n/a	5	16	Fixation	Win	True
165.464	0.24	Win2	1.0	0.001	Yes	2.885	-0.001	3.0	GoodResponse	1	0.198	164.662	5	16	Target	Win	True
165.662	0.3	Win2	1.0	0.001	Yes	2.885	-0.001	3.0	GoodResponse	1	0.198	n/a	5	16	ButtonPress	Win	True
165.713	0.46	Win2	1.0	n/a	Yes	2.885	n/a	n/a	GoodResponse	1	n/a	n/a	5	16	Blank	Win	True
166.163	1.45	Win2	1.0	n/a	Yes	2.885	n/a	5.0	GoodResponse	1	0.839	166.002	5	16	Feedback	Win	True
167.613	2.885	Win2	1.0	n/a	Yes	2.885	n/a	n/a	GoodResponse	1	0.0	n/a	5	16	ISIslide	Win	True
170.528	0.25	Lose2	1.0	0.001	Yes	2.722	0.028	n/a	GoodResponse	0	n/a	n/a	5	17	Cue	AvoidedLoss	True
170.778	3.95	Lose2	1.0	0.0	Yes	2.722	0.0	n/a	GoodResponse	0	n/a	n/a	5	17	Fixation	AvoidedLoss	True
174.727	0.23	Lose2	1.0	0.001	Yes	2.722	-0.001	3.0	GoodResponse	0	0.211	173.938	5	17	Target	AvoidedLoss	True
174.938	0.3	Lose2	1.0	0.001	Yes	2.722	-0.001	3.0	GoodResponse	0	0.211	n/a	5	17	ButtonPress	AvoidedLoss	True
174.96	0.47	Lose2	1.0	n/a	Yes	2.722	n/a	n/a	GoodResponse	0	n/a	n/a	5	17	Blank	AvoidedLoss	True
175.427	1.45	Lose2	1.0	n/a	Yes	2.722	n/a	n/a	GoodResponse	0	n/a	n/a	5	17	Feedback	AvoidedLoss	True
176.876	2.722	Lose2	1.0	n/a	Yes	2.722	n/a	n/a	GoodResponse	0	0.0	n/a	5	17	ISIslide	AvoidedLoss	True
179.625	0.25	Lose2	1.0	0.0	Yes	2.725	0.025	n/a	GoodResponse	0	n/a	n/a	5	18	Cue	AvoidedLoss	True
179.875	4.05	Lose2	1.0	0.0	Yes	2.725	0.0	n/a	GoodResponse	0	n/a	n/a	5	18	Fixation	AvoidedLoss	True
183.924	0.22	Lose2	1.0	0.001	Yes	2.725	-0.001	3.0	GoodResponse	0	0.189	183.113	5	18	Target	AvoidedLoss	True
184.113	0.3	Lose2	1.0	0.001	Yes	2.725	-0.001	3.0	GoodResponse	0	0.189	n/a	5	18	ButtonPress	AvoidedLoss	True
184.14	0.48	Lose2	1.0	n/a	Yes	2.725	n/a	n/a	GoodResponse	0	n/a	n/a	5	18	Blank	AvoidedLoss	True
184.624	1.45	Lose2	1.0	n/a	Yes	2.725	n/a	5.0	GoodResponse	0	0.378	184.002	5	18	Feedback	AvoidedLoss	True
186.073	2.725	Lose2	1.0	n/a	Yes	2.725	n/a	n/a	GoodResponse	0	0.0	n/a	5	18	ISIslide	AvoidedLoss	True
188.822	0.25	Control	0.95	0.0	No	2.928	0.022	n/a	LatePress	0	n/a	n/a	5	19	Cue	Neutral	True
189.072	3.95	Control	0.95	0.0	No	2.928	0.0	n/a	LatePress	0	n/a	n/a	5	19	Fixation	Neutral	True
193.021	0.21	Control	0.95	0.001	No	2.928	-0.001	3.0	LatePress	0	0.213	192.234	5	19	Target	Neutral	True
193.234	0.3	Control	0.95	0.001	No	2.928	-0.001	3.0	LatePress	0	0.213	n/a	5	19	ButtonPress	Neutral	True
193.237	0.49	Control	0.95	n/a	No	2.928	n/a	n/a	LatePress	0	n/a	n/a	5	19	Blank	Neutral	True
193.72	1.45	Control	0.95	n/a	No	2.928	n/a	5.0	LatePress	0	1.282	194.002	5	19	Feedback	Neutral	True
195.17	2.928	Control	0.95	n/a	No	2.928	n/a	n/a	LatePress	0	0.0	n/a	5	19	ISIslide	Neutral	True
198.119	0.25	Control	0.9523999999999999	0.0	Yes	2.631	0.019	n/a	GoodResponse	0	n/a	n/a	5	20	Cue	Neutral	True
198.369	4.05	Control	0.9523999999999999	0.0	Yes	2.631	0.0	n/a	GoodResponse	0	n/a	n/a	5	20	Fixation	Neutral	True
202.417	0.2	Control	0.9523999999999999	0.002	Yes	2.631	-0.002	3.0	GoodResponse	0	0.177	201.594	5	20	Target	Neutral	True
202.594	0.3	Control	0.9523999999999999	0.002	Yes	2.631	-0.002	3.0	GoodResponse	0	0.177	n/a	5	20	ButtonPress	Neutral	True
202.617	0.5	Control	0.9523999999999999	n/a	Yes	2.631	n/a	n/a	GoodResponse	0	n/a	n/a	5	20	Blank	Neutral	True
203.117	1.45	Control	0.9523999999999999	n/a	Yes	2.631	n/a	n/a	GoodResponse	0	n/a	n/a	5	20	Feedback	Neutral	True
204.567	2.631	Control	0.9523999999999999	n/a	Yes	2.631	n/a	n/a	GoodResponse	0	0.0	n/a	5	20	ISIslide	Neutral	True
207.216	0.25	Control	0.9545	0.0	Yes	2.784	0.016	n/a	GoodResponse	0	n/a	n/a	5	21	Cue	Neutral	True
207.466	4.1	Control	0.9545	0.0	Yes	2.784	0.0	n/a	GoodResponse	0	n/a	n/a	5	21	Fixation	Neutral	True
211.564	0.19	Control	0.9545	0.002	Yes	2.784	-0.002	3.0	GoodResponse	0	0.176	210.74	5	21	Target	Neutral	True
211.74	0.3	Control	0.9545	0.002	Yes	2.784	-0.002	3.0	GoodResponse	0	0.176	n/a	5	21	ButtonPress	Neutral	True
211.764	0.51	Control	0.9545	n/a	Yes	2.784	n/a	n/a	GoodResponse	0	n/a	n/a	5	21	Blank	Neutral	True
212.264	1.45	Control	0.9545	n/a	Yes	2.784	n/a	5.0	GoodResponse	0	0.738	212.002	5	21	Feedback	Neutral	True
213.713	2.784	Control	0.9545	n/a	Yes	2.784	n/a	n/a	GoodResponse	0	0.0	n/a	5	21	ISIslide	Neutral	True
216.513	0.25	Control	0.9129999999999999	0.0	No	2.787	0.013	n/a	NoResponse	0	n/a	n/a	5	22	Cue	Neutral	True
216.762	4.0	Control	0.9129999999999999	0.001	No	2.787	-0.001	n/a	NoResponse	0	n/a	n/a	5	22	Fixation	Neutral	True
220.761	0.18	Control	0.9129999999999999	0.002	No	2.787	-0.002	3.0	NoResponse	0	0.279	220.04	5	22	Target	Neutral	True
220.944	0.52	Control	0.9129999999999999	n/a	No	2.787	n/a	n/a	NoResponse	0	n/a	n/a	5	22	Blank	Neutral	True
221.04	0.3	Control	0.9129999999999999	0.002	No	2.787	-0.002	3.0	NoResponse	0	0.279	n/a	5	22	ButtonPress	Neutral	True
221.461	1.45	Control	0.9129999999999999	n/a	No	2.787	n/a	n/a	NoResponse	0	n/a	n/a	5	22	Feedback	Neutral	True
222.91	2.787	Control	0.9129999999999999	n/a	No	2.787	n/a	n/a	NoResponse	0	0.0	n/a	5	22	ISIslide	Neutral	True
225.726	0.25	Control	0.875	0.0	No	2.774	0.026	n/a	NoResponse	0	n/a	n/a	5	23	Cue	Neutral	True
225.976	3.9	Control	0.875	0.0	No	2.774	0.0	n/a	NoResponse	0	n/a	n/a	5	23	Fixation	Neutral	True
229.875	0.17	Control	0.875	0.001	No	2.774	-0.001	3.0	NoResponse	0	0.247	229.122	5	23	Target	Neutral	True
230.058	0.53	Control	0.875	n/a	No	2.774	n/a	n/a	NoResponse	0	n/a	n/a	5	23	Blank	Neutral	True
230.122	0.3	Control	0.875	0.001	No	2.774	-0.001	3.0	NoResponse	0	0.247	n/a	5	23	ButtonPress	Neutral	True
230.574	1.45	Control	0.875	n/a	No	2.774	n/a	5.0	NoResponse	0	0.428	230.002	5	23	Feedback	Neutral	True
232.024	2.774	Control	0.875	n/a	No	2.774	n/a	n/a	NoResponse	0	0.0	n/a	5	23	ISIslide	Neutral	True
234.823	0.25	Win2	0.84	0.0	No	3.127	0.023	n/a	NoResponse	0	n/a	n/a	5	24	Cue	MissedWin	True
235.073	3.95	Win2	0.84	0.0	No	3.127	0.0	n/a	NoResponse	0	n/a	n/a	5	24	Fixation	MissedWin	True
239.021	0.16	Win2	0.84	0.002	No	3.127	-0.002	3.0	NoResponse	0	0.19	238.211	5	24	Target	MissedWin	True
239.188	0.54	Win2	0.84	n/a	No	3.127	n/a	n/a	NoResponse	0	n/a	n/a	5	24	Blank	MissedWin	True
239.211	0.3	Win2	0.84	0.002	No	3.127	-0.002	3.0	NoResponse	0	0.19	n/a	5	24	ButtonPress	MissedWin	True
239.721	1.45	Win2	0.84	n/a	No	3.127	n/a	5.0	NoResponse	0	1.281	240.002	5	24	Feedback	MissedWin	True
241.171	3.127	Win2	0.84	n/a	No	3.127	n/a	n/a	NoResponse	0	0.0	n/a	5	24	ISIslide	MissedWin	True
244.32	0.25	Win2	0.8077	0.0	No	3.08	0.02	n/a	NoResponse	0	n/a	n/a	5	25	Cue	MissedWin	True
244.569	4.0	Win2	0.8077	0.001	No	3.08	-0.001	n/a	NoResponse	0	n/a	n/a	5	25	Fixation	MissedWin	True
248.568	0.15	Win2	0.8077	0.002	No	3.08	-0.002	3.0	NoResponse	0	0.166	247.734	5	25	Target	MissedWin	True
248.718	0.55	Win2	0.8077	n/a	No	3.08	n/a	n/a	NoResponse	0	n/a	n/a	5	25	Blank	MissedWin	True
248.734	0.3	Win2	0.8077	0.002	No	3.08	-0.002	3.0	NoResponse	0	0.166	n/a	5	25	ButtonPress	MissedWin	True
249.268	1.45	Win2	0.8077	n/a	No	3.08	n/a	n/a	NoResponse	0	n/a	n/a	5	25	Feedback	MissedWin	True
250.717	3.08	Win2	0.8077	n/a	No	3.08	n/a	n/a	NoResponse	0	0.0	n/a	5	25	ISIslide	MissedWin	True
253.816	0.25	Win2	0.7778	0.0	No	2.934	0.016	n/a	NoResponse	0	n/a	n/a	5	26	Cue	MissedWin	True
254.066	3.95	Win2	0.7778	0.0	No	2.934	0.0	n/a	NoResponse	0	n/a	n/a	5	26	Fixation	MissedWin	True
258.015	0.15	Win2	0.7778	0.001	No	2.934	-0.001	3.0	NoResponse	0	0.18	257.195	5	26	Target	MissedWin	True
258.165	0.55	Win2	0.7778	n/a	No	2.934	n/a	n/a	NoResponse	0	n/a	n/a	5	26	Blank	MissedWin	True
258.195	0.3	Win2	0.7778	0.001	No	2.934	-0.001	3.0	NoResponse	0	0.18	n/a	5	26	ButtonPress	MissedWin	True
258.715	1.45	Win2	0.7778	n/a	No	2.934	n/a	5.0	NoResponse	0	0.287	258.002	5	26	Feedback	MissedWin	True
260.164	2.934	Win2	0.7778	n/a	No	2.934	n/a	n/a	NoResponse	0	0.0	n/a	5	26	ISIslide	MissedWin	True
263.13	0.25	Lose2	0.75	0.0	No	2.82	0.03	n/a	NoResponse	-1	n/a	n/a	4	27	Cue	Loss	True
263.38	4.05	Lose2	0.75	0.0	No	2.82	0.0	n/a	NoResponse	-1	n/a	n/a	4	27	Fixation	Loss	True
267.428	0.15	Lose2	0.75	0.002	No	2.82	-0.002	3.0	NoResponse	-1	0.171	266.599	4	27	Target	Loss	True
267.578	0.55	Lose2	0.75	n/a	No	2.82	n/a	n/a	NoResponse	-1	n/a	n/a	4	27	Blank	Loss	True
267.599	0.3	Lose2	0.75	0.002	No	2.82	-0.002	3.0	NoResponse	-1	0.171	n/a	4	27	ButtonPress	Loss	True
268.128	1.45	Lose2	0.75	n/a	No	2.82	n/a	5.0	NoResponse	-1	0.873	268.001	4	27	Feedback	Loss	True
269.578	2.82	Lose2	0.75	n/a	No	2.82	n/a	n/a	NoResponse	-1	0.0	n/a	4	27	ISIslide	Loss	True
272.427	0.25	Control	0.7241	0.0	No	2.823	0.027	n/a	NoResponse	0	n/a	n/a	4	28	Cue	Neutral	True
272.676	4.05	Control	0.7241	0.001	No	2.823	-0.001	n/a	NoResponse	0	n/a	n/a	4	28	Fixation	Neutral	True
276.725	0.15	Control	0.7241	0.002	No	2.823	-0.002	3.0	NoResponse	0	0.175	275.9	4	28	Target	Neutral	True
276.875	0.55	Control	0.7241	n/a	No	2.823	n/a	n/a	NoResponse	0	n/a	n/a	4	28	Blank	Neutral	True
276.9	0.3	Control	0.7241	0.002	No	2.823	-0.002	3.0	NoResponse	0	0.175	n/a	4	28	ButtonPress	Neutral	True
277.425	1.45	Control	0.7241	n/a	No	2.823	n/a	n/a	NoResponse	0	n/a	n/a	4	28	Feedback	Neutral	True
278.874	2.823	Control	0.7241	n/a	No	2.823	n/a	n/a	NoResponse	0	0.0	n/a	4	28	ISIslide	Neutral	True
281.723	0.25	Lose2	0.7333	0.0	Yes	2.827	0.023	n/a	GoodResponse	0	n/a	n/a	4	29	Cue	AvoidedLoss	False
281.973	3.95	Lose2	0.7333	0.0	Yes	2.827	0.0	3.0	GoodResponse	0	3.486	284.459	4	29	Fixation	AvoidedLoss	False
285.459	0.3	Lose2	0.7333	0.0	Yes	2.827	0.0	3.0	GoodResponse	0	3.486	n/a	4	29	ButtonPress	AvoidedLoss	False
285.922	0.15	Lose2	0.7333	0.001	Yes	2.827	-0.001	3.0	GoodResponse	0	0.109	285.031	4	29	Target	AvoidedLoss	False
286.031	0.3	Lose2	0.7333	0.001	Yes	2.827	-0.001	3.0	GoodResponse	0	0.109	n/a	4	29	ButtonPress	AvoidedLoss	False
286.072	0.55	Lose2	0.7333	n/a	Yes	2.827	n/a	n/a	GoodResponse	0	n/a	n/a	4	29	Blank	AvoidedLoss	False
286.622	1.45	Lose2	0.7333	n/a	Yes	2.827	n/a	5.0	GoodResponse	0	0.38	286.002	4	29	Feedback	AvoidedLoss	False
288.071	2.827	Lose2	0.7333	n/a	Yes	2.827	n/a	n/a	GoodResponse	0	0.0	n/a	4	29	ISIslide	AvoidedLoss	False
290.92	0.25	Win2	0.7097	0.0	No	2.78	0.02	n/a	NoResponse	0	n/a	n/a	4	30	Cue	MissedWin	True
291.17	3.9	Win2	0.7097	0.0	No	2.78	0.0	n/a	NoResponse	0	n/a	n/a	4	30	Fixation	MissedWin	True
295.069	0.15	Win2	0.7097	0.001	No	2.78	-0.001	3.0	NoResponse	0	0.2	294.269	4	30	Target	MissedWin	True
295.219	0.55	Win2	0.7097	n/a	No	2.78	n/a	n/a	NoResponse	0	n/a	n/a	4	30	Blank	MissedWin	True
295.269	0.3	Win2	0.7097	0.001	No	2.78	-0.001	3.0	NoResponse	0	0.2	n/a	4	30	ButtonPress	MissedWin	True
295.768	1.45	Win2	0.7097	n/a	No	2.78	n/a	5.0	NoResponse	0	1.234	296.002	4	30	Feedback	MissedWin	True
297.218	2.78	Win2	0.7097	n/a	No	2.78	n/a	n/a	NoResponse	0	0.0	n/a	4	30	ISIslide	MissedWin	True
300.017	0.25	Lose2	0.6875	0.0	No	2.833	0.017	n/a	NoResponse	-1	n/a	n/a	3	31	Cue	Loss	True
300.267	4.05	Lose2	0.6875	0.0	No	2.833	0.0	n/a	NoResponse	-1	n/a	n/a	3	31	Fixation	Loss	True
304.316	0.15	Lose2	0.6875	0.001	No	2.833	-0.001	3.0	NoResponse	-1	0.178	303.494	3	31	Target	Loss	True
304.465	0.55	Lose2	0.6875	n/a	No	2.833	n/a	n/a	NoResponse	-1	n/a	n/a	3	31	Blank	Loss	True
304.494	0.3	Lose2	0.6875	0.001	No	2.833	-0.001	3.0	NoResponse	-1	0.178	n/a	3	31	ButtonPress	Loss	True
305.015	1.45	Lose2	0.6875	n/a	No	2.833	n/a	n/a	NoResponse	-1	n/a	n/a	3	31	Feedback	Loss	True
306.465	2.833	Lose2	0.6875	n/a	No	2.833	n/a	n/a	NoResponse	-1	0.0	n/a	3	31	ISIslide	Loss	True
309.314	0.25	Lose2	0.6667000000000001	0.0	No	2.636	0.014	n/a	NoResponse	-1	n/a	n/a	2	32	Cue	Loss	True
309.564	4.15	Lose2	0.6667000000000001	0.0	No	2.636	0.0	n/a	NoResponse	-1	n/a	n/a	2	32	Fixation	Loss	True
313.712	0.15	Lose2	0.6667000000000001	0.002	No	2.636	-0.002	3.0	NoResponse	-1	0.163	312.875	2	32	Target	Loss	True
313.862	0.55	Lose2	0.6667000000000001	n/a	No	2.636	n/a	n/a	NoResponse	-1	n/a	n/a	2	32	Blank	Loss	True
313.875	0.3	Lose2	0.6667000000000001	0.002	No	2.636	-0.002	3.0	NoResponse	-1	0.163	n/a	2	32	ButtonPress	Loss	True
314.412	1.45	Lose2	0.6667000000000001	n/a	No	2.636	n/a	5.0	NoResponse	-1	0.59	314.002	2	32	Feedback	Loss	True
315.862	2.636	Lose2	0.6667000000000001	n/a	No	2.636	n/a	n/a	NoResponse	-1	0.0	n/a	2	32	ISIslide	Loss	True
318.527	0.25	Win2	0.6470999999999999	0.0	No	2.673	0.027	n/a	NoResponse	0	n/a	n/a	2	33	Cue	MissedWin	False
318.777	4.0	Win2	0.6470999999999999	0.0	No	2.673	0.0	3.0	NoResponse	0	3.909	321.686	2	33	Fixation	MissedWin	False
322.686	0.3	Win2	0.6470999999999999	0.0	No	2.673	0.0	3.0	NoResponse	0	3.909	n/a	2	33	ButtonPress	MissedWin	False
322.776	0.15	Win2	0.6470999999999999	0.001	No	2.673	-0.001	3.0	NoResponse	0	0.191	321.967	2	33	Target	MissedWin	False
322.926	0.55	Win2	0.6470999999999999	n/a	No	2.673	n/a	n/a	NoResponse	0	n/a	n/a	2	33	Blank	MissedWin	False
322.967	0.3	Win2	0.6470999999999999	0.001	No	2.673	-0.001	3.0	NoResponse	0	0.191	n/a	2	33	ButtonPress	MissedWin	False
323.476	1.45	Win2	0.6470999999999999	n/a	No	2.673	n/a	n/a	NoResponse	0	n/a	n/a	2	33	Feedback	MissedWin	False
324.925	2.673	Win2	0.6470999999999999	n/a	No	2.673	n/a	n/a	NoResponse	0	0.0	n/a	2	33	ISIslide	MissedWin	False
327.624	0.25	Lose2	0.6286	0.0	No	2.626	0.024	n/a	NoResponse	-1	n/a	n/a	1	34	Cue	Loss	True
327.874	4.05	Lose2	0.6286	0.0	No	2.626	0.0	n/a	NoResponse	-1	n/a	n/a	1	34	Fixation	Loss	True
331.923	0.16	Lose2	0.6286	0.001	No	2.626	-0.001	3.0	NoResponse	-1	0.21	331.133	1	34	Target	Loss	True
332.089	0.54	Lose2	0.6286	n/a	No	2.626	n/a	n/a	NoResponse	-1	n/a	n/a	1	34	Blank	Loss	True
332.133	0.3	Lose2	0.6286	0.001	No	2.626	-0.001	3.0	NoResponse	-1	0.21	n/a	1	34	ButtonPress	Loss	True
332.622	1.45	Lose2	0.6286	n/a	No	2.626	n/a	5.0	NoResponse	-1	0.379	332.001	1	34	Feedback	Loss	True
334.072	2.626	Lose2	0.6286	n/a	No	2.626	n/a	n/a	NoResponse	-1	0.0	n/a	1	34	ISIslide	Loss	True
336.721	0.25	Lose2	0.6111	0.0	No	2.679	0.021	n/a	NoResponse	-1	n/a	n/a	0	35	Cue	Loss	True
336.971	4.0	Lose2	0.6111	0.0	No	2.679	0.0	n/a	NoResponse	-1	n/a	n/a	0	35	Fixation	Loss	True
340.97	0.17	Lose2	0.6111	0.001	No	2.679	-0.001	3.0	NoResponse	-1	0.191	340.161	0	35	Target	Loss	True
341.153	0.53	Lose2	0.6111	n/a	No	2.679	n/a	n/a	NoResponse	-1	n/a	n/a	0	35	Blank	Loss	True
341.161	0.3	Lose2	0.6111	0.001	No	2.679	-0.001	3.0	NoResponse	-1	0.191	n/a	0	35	ButtonPress	Loss	True
341.669	1.45	Lose2	0.6111	n/a	No	2.679	n/a	5.0	NoResponse	-1	1.332	342.001	0	35	Feedback	Loss	True
343.119	2.679	Lose2	0.6111	n/a	No	2.679	n/a	n/a	NoResponse	-1	0.0	n/a	0	35	ISIslide	Loss	True
345.818	0.25	Control	0.6215999999999999	0.0	Yes	2.682	0.018	n/a	GoodResponse	0	n/a	n/a	0	36	Cue	Neutral	True
346.068	4.0	Control	0.6215999999999999	0.0	Yes	2.682	0.0	n/a	GoodResponse	0	n/a	n/a	0	36	Fixation	Neutral	True
350.066	0.18	Control	0.6215999999999999	0.002	Yes	2.682	-0.002	3.0	GoodResponse	0	0.12	349.186	0	36	Target	Neutral	True
350.186	0.3	Control	0.6215999999999999	0.002	Yes	2.682	-0.002	3.0	GoodResponse	0	0.12	n/a	0	36	ButtonPress	Neutral	True
350.25	0.52	Control	0.6215999999999999	n/a	Yes	2.682	n/a	n/a	GoodResponse	0	n/a	n/a	0	36	Blank	Neutral	True
350.766	1.45	Control	0.6215999999999999	n/a	Yes	2.682	n/a	5.0	GoodResponse	0	0.235	350.001	0	36	Feedback	Neutral	True
352.216	2.682	Control	0.6215999999999999	n/a	Yes	2.682	n/a	n/a	GoodResponse	0	0.0	n/a	0	36	ISIslide	Neutral	True
354.915	0.25	Win2	0.6315999999999999	0.0	Yes	2.885	0.015	n/a	GoodResponse	1	n/a	n/a	1	37	Cue	Win	True
355.165	4.0	Win2	0.6315999999999999	0.0	Yes	2.885	0.0	n/a	GoodResponse	1	n/a	n/a	1	37	Fixation	Win	True
359.163	0.19	Win2	0.6315999999999999	0.002	Yes	2.885	-0.002	3.0	GoodResponse	1	0.18	358.343	1	37	Target	Win	True
359.343	0.3	Win2	0.6315999999999999	0.002	Yes	2.885	-0.002	3.0	GoodResponse	1	0.18	n/a	1	37	ButtonPress	Win	True
359.363	0.51	Win2	0.6315999999999999	n/a	Yes	2.885	n/a	n/a	GoodResponse	1	n/a	n/a	1	37	Blank	Win	True
359.863	1.45	Win2	0.6315999999999999	n/a	Yes	2.885	n/a	5.0	GoodResponse	1	1.138	360.001	1	37	Feedback	Win	True
361.312	2.885	Win2	0.6315999999999999	n/a	Yes	2.885	n/a	n/a	GoodResponse	1	0.0	n/a	1	37	ISIslide	Win	True
364.228	0.25	Lose2	0.6154	0.0	No	2.822	0.028	n/a	NoResponse	-1	n/a	n/a	0	38	Cue	Loss	True
364.478	3.95	Lose2	0.6154	0.0	No	2.822	0.0	n/a	NoResponse	-1	n/a	n/a	0	38	Fixation	Loss	True
368.427	0.2	Lose2	0.6154	0.001	No	2.822	-0.001	3.0	NoResponse	-1	0.258	367.685	0	38	Target	Loss	True
368.627	0.5	Lose2	0.6154	n/a	No	2.822	n/a	n/a	NoResponse	-1	n/a	n/a	0	38	Blank	Loss	True
368.685	0.3	Lose2	0.6154	0.001	No	2.822	-0.001	3.0	NoResponse	-1	0.258	n/a	0	38	ButtonPress	Loss	True
369.126	1.45	Lose2	0.6154	n/a	No	2.822	n/a	n/a	NoResponse	-1	n/a	n/a	0	38	Feedback	Loss	True
370.576	2.822	Lose2	0.6154	n/a	No	2.822	n/a	n/a	NoResponse	-1	0.0	n/a	0	38	ISIslide	Loss	True
373.425	0.25	Win2	0.6	0.0	No	2.975	0.025	n/a	NoResponse	0	n/a	n/a	0	39	Cue	MissedWin	True
373.675	4.1	Win2	0.6	0.0	No	2.975	0.0	3.0	NoResponse	0	4.032	376.707	0	39	Fixation	MissedWin	True
377.707	0.3	Win2	0.6	0.0	No	2.975	0.0	3.0	NoResponse	0	4.032	n/a	0	39	ButtonPress	MissedWin	True
377.773	0.21	Win2	0.6	0.002	No	2.975	-0.002	n/a	NoResponse	0	n/a	n/a	0	39	Target	MissedWin	True
377.99	0.49	Win2	0.6	n/a	No	2.975	n/a	n/a	NoResponse	0	n/a	n/a	0	39	Blank	MissedWin	True
378.473	1.45	Win2	0.6	n/a	No	2.975	n/a	5.0	NoResponse	0	0.529	378.002	0	39	Feedback	MissedWin	True
379.923	2.975	Win2	0.6	n/a	No	2.975	n/a	n/a	NoResponse	0	0.0	n/a	0	39	ISIslide	MissedWin	True
382.922	0.25	Win2	0.6098	0.0	Yes	2.728	0.022	n/a	GoodResponse	1	n/a	n/a	1	40	Cue	Win	True
383.172	3.95	Win2	0.6098	0.0	Yes	2.728	0.0	n/a	GoodResponse	1	n/a	n/a	1	40	Fixation	Win	True
387.12	0.22	Win2	0.6098	0.002	Yes	2.728	-0.002	3.0	GoodResponse	1	0.21	386.33	1	40	Target	Win	True
387.33	0.3	Win2	0.6098	0.002	Yes	2.728	-0.002	3.0	GoodResponse	1	0.21	n/a	1	40	ButtonPress	Win	True
387.353	0.48	Win2	0.6098	n/a	Yes	2.728	n/a	n/a	GoodResponse	1	n/a	n/a	1	40	Blank	Win	True
387.82	1.45	Win2	0.6098	n/a	Yes	2.728	n/a	5.0	GoodResponse	1	1.181	388.001	1	40	Feedback	Win	True
389.269	2.728	Win2	0.6098	n/a	Yes	2.728	n/a	n/a	GoodResponse	1	0.0	n/a	1	40	ISIslide	Win	True
392.019	0.25	Win2	0.619	0.0	Yes	2.781	0.019	n/a	GoodResponse	1	n/a	n/a	2	41	Cue	Win	True
392.268	3.9	Win2	0.619	0.001	Yes	2.781	-0.001	n/a	GoodResponse	1	n/a	n/a	2	41	Fixation	Win	True
396.167	0.23	Win2	0.619	0.002	Yes	2.781	-0.002	3.0	GoodResponse	1	0.196	395.363	2	41	Target	Win	True
396.363	0.3	Win2	0.619	0.002	Yes	2.781	-0.002	3.0	GoodResponse	1	0.196	n/a	2	41	ButtonPress	Win	True
396.4	0.47	Win2	0.619	n/a	Yes	2.781	n/a	n/a	GoodResponse	1	n/a	n/a	2	41	Blank	Win	True
396.867	1.45	Win2	0.619	n/a	Yes	2.781	n/a	5.0	GoodResponse	1	0.134	396.001	2	41	Feedback	Win	True
398.316	2.781	Win2	0.619	n/a	Yes	2.781	n/a	n/a	GoodResponse	1	0.0	n/a	2	41	ISIslide	Win	True
401.115	0.25	Control	0.6279	0.0	Yes	2.935	0.015	n/a	GoodResponse	0	n/a	n/a	2	42	Cue	Neutral	True
401.365	3.85	Control	0.6279	0.0	Yes	2.935	0.0	n/a	GoodResponse	0	n/a	n/a	2	42	Fixation	Neutral	True
405.214	0.24	Control	0.6279	0.001	Yes	2.935	-0.001	3.0	GoodResponse	0	0.213	404.427	2	42	Target	Neutral	True
405.427	0.3	Control	0.6279	0.001	Yes	2.935	-0.001	3.0	GoodResponse	0	0.213	n/a	2	42	ButtonPress	Neutral	True
405.464	0.46	Control	0.6279	n/a	Yes	2.935	n/a	n/a	GoodResponse	0	n/a	n/a	2	42	Blank	Neutral	True
405.914	1.45	Control	0.6279	n/a	Yes	2.935	n/a	5.0	GoodResponse	0	1.087	406.001	2	42	Feedback	Neutral	True
407.363	2.935	Control	0.6279	n/a	Yes	2.935	n/a	n/a	GoodResponse	0	0.0	n/a	2	42	ISIslide	Neutral	True
410.329	0.25	Win2	0.6364	0.0	Yes	3.171	0.029	n/a	GoodResponse	1	n/a	n/a	3	43	Cue	Win	True
410.579	4.0	Win2	0.6364	0.0	Yes	3.171	0.0	n/a	GoodResponse	1	n/a	n/a	3	43	Fixation	Win	True
414.577	0.25	Win2	0.6364	0.002	Yes	3.171	-0.002	3.0	GoodResponse	1	0.171	413.748	3	43	Target	Win	True
414.748	0.3	Win2	0.6364	0.002	Yes	3.171	-0.002	3.0	GoodResponse	1	0.171	n/a	3	43	ButtonPress	Win	True
414.827	0.45	Win2	0.6364	n/a	Yes	3.171	n/a	n/a	GoodResponse	1	n/a	n/a	3	43	Blank	Win	True
415.277	1.45	Win2	0.6364	n/a	Yes	3.171	n/a	n/a	GoodResponse	1	n/a	n/a	3	43	Feedback	Win	True
416.727	3.171	Win2	0.6364	n/a	Yes	3.171	n/a	n/a	GoodResponse	1	0.0	n/a	3	43	ISIslide	Win	True
419.926	0.25	Win2	0.6444	0.0	Yes	2.974	0.026	n/a	GoodResponse	1	n/a	n/a	4	44	Cue	Win	True
420.175	4.0	Win2	0.6444	0.001	Yes	2.974	-0.001	n/a	GoodResponse	1	n/a	n/a	4	44	Fixation	Win	True
424.174	0.26	Win2	0.6444	0.002	Yes	2.974	-0.002	3.0	GoodResponse	1	0.205	423.379	4	44	Target	Win	True
424.379	0.3	Win2	0.6444	0.002	Yes	2.974	-0.002	3.0	GoodResponse	1	0.205	n/a	4	44	ButtonPress	Win	True
424.441	0.44	Win2	0.6444	n/a	Yes	2.974	n/a	n/a	GoodResponse	1	n/a	n/a	4	44	Blank	Win	True
424.874	1.45	Win2	0.6444	n/a	Yes	2.974	n/a	5.0	GoodResponse	1	0.127	424.001	4	44	Feedback	Win	True
426.323	2.974	Win2	0.6444	n/a	Yes	2.974	n/a	n/a	GoodResponse	1	0.0	n/a	4	44	ISIslide	Win	True
429.322	0.25	Control	0.6522	0.0	Yes	2.878	0.022	n/a	GoodResponse	0	n/a	n/a	4	45	Cue	Neutral	True
429.572	4.1	Control	0.6522	0.0	Yes	2.878	0.0	n/a	GoodResponse	0	n/a	n/a	4	45	Fixation	Neutral	True
433.671	0.27	Control	0.6522	0.001	Yes	2.878	-0.001	3.0	GoodResponse	0	0.183	432.854	4	45	Target	Neutral	True
433.854	0.3	Control	0.6522	0.001	Yes	2.878	-0.001	3.0	GoodResponse	0	0.183	n/a	4	45	ButtonPress	Neutral	True
433.954	0.43	Control	0.6522	n/a	Yes	2.878	n/a	n/a	GoodResponse	0	n/a	n/a	4	45	Blank	Neutral	True
434.371	1.45	Control	0.6522	n/a	Yes	2.878	n/a	5.0	GoodResponse	0	0.63	434.001	4	45	Feedback	Neutral	True
435.82	2.878	Control	0.6522	n/a	Yes	2.878	n/a	n/a	GoodResponse	0	0.0	n/a	4	45	ISIslide	Neutral	True
438.719	0.25	Lose2	0.6596	0.0	Yes	3.381	0.019	n/a	GoodResponse	0	n/a	n/a	4	46	Cue	AvoidedLoss	True
438.969	4.0	Lose2	0.6596	0.0	Yes	3.381	0.0	n/a	GoodResponse	0	n/a	n/a	4	46	Fixation	AvoidedLoss	True
442.968	0.28	Lose2	0.6596	0.001	Yes	3.381	-0.001	3.0	GoodResponse	0	0.196	442.164	4	46	Target	AvoidedLoss	True
443.164	0.3	Lose2	0.6596	0.001	Yes	3.381	-0.001	3.0	GoodResponse	0	0.196	n/a	4	46	ButtonPress	AvoidedLoss	True
443.251	0.42	Lose2	0.6596	n/a	Yes	3.381	n/a	n/a	GoodResponse	0	n/a	n/a	4	46	Blank	AvoidedLoss	True
443.667	1.45	Lose2	0.6596	n/a	Yes	3.381	n/a	5.0	GoodResponse	0	1.334	444.001	4	46	Feedback	AvoidedLoss	True
445.117	3.381	Lose2	0.6596	n/a	Yes	3.381	n/a	n/a	GoodResponse	0	0.0	n/a	4	46	ISIslide	AvoidedLoss	True
448.516	0.25	Lose2	0.6667000000000001	0.0	Yes	2.684	0.016	n/a	GoodResponse	0	n/a	n/a	4	47	Cue	AvoidedLoss	True
448.766	4.0	Lose2	0.6667000000000001	0.0	Yes	2.684	0.0	n/a	GoodResponse	0	n/a	n/a	4	47	Fixation	AvoidedLoss	True
452.764	0.28	Lose2	0.6667000000000001	0.002	Yes	2.684	-0.002	3.0	GoodResponse	0	0.167	451.931	4	47	Target	AvoidedLoss	True
452.931	0.3	Lose2	0.6667000000000001	0.002	Yes	2.684	-0.002	3.0	GoodResponse	0	0.167	n/a	4	47	ButtonPress	AvoidedLoss	True
453.047	0.42	Lose2	0.6667000000000001	n/a	Yes	2.684	n/a	n/a	GoodResponse	0	n/a	n/a	4	47	Blank	AvoidedLoss	True
453.464	1.45	Lose2	0.6667000000000001	n/a	Yes	2.684	n/a	n/a	GoodResponse	0	n/a	n/a	4	47	Feedback	AvoidedLoss	True
454.913	2.684	Lose2	0.6667000000000001	n/a	Yes	2.684	n/a	n/a	GoodResponse	0	0.0	n/a	4	47	ISIslide	AvoidedLoss	True
457.613	0.25	Lose2	0.6735	0.0	Yes	3.037	0.013	n/a	GoodResponse	0	n/a	n/a	4	48	Cue	AvoidedLoss	True
457.862	3.95	Lose2	0.6735	0.001	Yes	3.037	-0.001	n/a	GoodResponse	0	n/a	n/a	4	48	Fixation	AvoidedLoss	True
461.811	0.27	Lose2	0.6735	0.002	Yes	3.037	-0.002	3.0	GoodResponse	0	0.185	460.996	4	48	Target	AvoidedLoss	True
461.996	0.3	Lose2	0.6735	0.002	Yes	3.037	-0.002	3.0	GoodResponse	0	0.185	n/a	4	48	ButtonPress	AvoidedLoss	True
462.094	0.43	Lose2	0.6735	n/a	Yes	3.037	n/a	n/a	GoodResponse	0	n/a	n/a	4	48	Blank	AvoidedLoss	True
462.511	1.45	Lose2	0.6735	n/a	Yes	3.037	n/a	5.0	GoodResponse	0	0.49	462.001	4	48	Feedback	AvoidedLoss	True
463.96	3.037	Lose2	0.6735	n/a	Yes	3.037	n/a	n/a	GoodResponse	0	0.0	n/a	4	48	ISIslide	AvoidedLoss	True
467.026	0.25	Control	0.68	0.0	Yes	2.874	0.026	n/a	GoodResponse	0	n/a	n/a	4	49	Cue	Neutral	True
467.276	4.0	Control	0.68	0.0	Yes	2.874	0.0	n/a	GoodResponse	0	n/a	n/a	4	49	Fixation	Neutral	True
471.274	0.26	Control	0.68	0.002	Yes	2.874	-0.002	3.0	GoodResponse	0	0.191	470.465	4	49	Target	Neutral	True
471.465	0.3	Control	0.68	0.002	Yes	2.874	-0.002	3.0	GoodResponse	0	0.191	n/a	4	49	ButtonPress	Neutral	True
471.541	0.44	Control	0.68	n/a	Yes	2.874	n/a	n/a	GoodResponse	0	n/a	n/a	4	49	Blank	Neutral	True
471.974	1.45	Control	0.68	n/a	Yes	2.874	n/a	5.0	GoodResponse	0	1.027	472.001	4	49	Feedback	Neutral	True
473.424	2.874	Control	0.68	n/a	Yes	2.874	n/a	n/a	GoodResponse	0	0.0	n/a	4	49	ISIslide	Neutral	True
476.323	0.25	Control	0.6667000000000001	0.0	No	2.777	0.023	n/a	PrematurePress	0	n/a	n/a	4	50	Cue	Neutral	True
476.573	4.0	Control	0.6667000000000001	0.0	No	2.777	0.0	n/a	PrematurePress	0	n/a	n/a	4	50	Fixation	Neutral	True
480.571	0.25	Control	0.6667000000000001	0.002	No	2.777	-0.002	3.0	PrematurePress	0	0.01	479.581	4	50	Target	Neutral	True
480.581	0.3	Control	0.6667000000000001	0.002	No	2.777	-0.002	3.0	PrematurePress	0	0.01	n/a	4	50	ButtonPress	Neutral	True
480.821	0.45	Control	0.6667000000000001	n/a	No	2.777	n/a	n/a	PrematurePress	0	n/a	n/a	4	50	Blank	Neutral	True
481.271	1.45	Control	0.6667000000000001	n/a	No	2.777	n/a	n/a	PrematurePress	0	n/a	n/a	4	50	Feedback	Neutral	True
482.72	2.777	Control	0.6667000000000001	n/a	No	2.777	n/a	n/a	PrematurePress	0	0.0	n/a	4	50	ISIslide	Neutral	True
485.52	0.25	Control	0.6731	0.0	Yes	2.73	0.02	n/a	GoodResponse	0	n/a	n/a	4	51	Cue	Neutral	True
485.769	3.95	Control	0.6731	0.001	Yes	2.73	-0.001	n/a	GoodResponse	0	n/a	n/a	4	51	Fixation	Neutral	True
489.718	0.24	Control	0.6731	0.002	Yes	2.73	-0.002	3.0	GoodResponse	0	0.193	488.911	4	51	Target	Neutral	True
489.911	0.3	Control	0.6731	0.002	Yes	2.73	-0.002	3.0	GoodResponse	0	0.193	n/a	4	51	ButtonPress	Neutral	True
489.968	0.46	Control	0.6731	n/a	Yes	2.73	n/a	n/a	GoodResponse	0	n/a	n/a	4	51	Blank	Neutral	True
490.418	1.45	Control	0.6731	n/a	Yes	2.73	n/a	5.0	GoodResponse	0	0.583	490.001	4	51	Feedback	Neutral	True
491.867	2.73	Control	0.6731	n/a	Yes	2.73	n/a	n/a	GoodResponse	0	0.0	n/a	4	51	ISIslide	Neutral	True
494.616	0.25	Control	0.6792	0.0	Yes	2.634	0.016	n/a	GoodResponse	0	n/a	n/a	4	52	Cue	Neutral	True
494.866	4.05	Control	0.6792	0.0	Yes	2.634	0.0	n/a	GoodResponse	0	n/a	n/a	4	52	Fixation	Neutral	True
498.915	0.23	Control	0.6792	0.001	Yes	2.634	-0.001	3.0	GoodResponse	0	0.227	498.142	4	52	Target	Neutral	True
499.142	0.3	Control	0.6792	0.001	Yes	2.634	-0.001	3.0	GoodResponse	0	0.227	n/a	4	52	ButtonPress	Neutral	True
499.148	0.47	Control	0.6792	n/a	Yes	2.634	n/a	n/a	GoodResponse	0	n/a	n/a	4	52	Blank	Neutral	True
499.615	1.45	Control	0.6792	n/a	Yes	2.634	n/a	5.0	GoodResponse	0	1.386	500.001	4	52	Feedback	Neutral	True
501.064	2.634	Control	0.6792	n/a	Yes	2.634	n/a	n/a	GoodResponse	0	0.0	n/a	4	52	ISIslide	Neutral	True
503.73	0.25	Win2	0.6667000000000001	0.0	No	2.92	0.03	n/a	PrematurePress	0	n/a	n/a	4	53	Cue	MissedWin	True
503.98	4.05	Win2	0.6667000000000001	0.0	No	2.92	0.0	n/a	PrematurePress	0	n/a	n/a	4	53	Fixation	MissedWin	True
508.028	0.22	Win2	0.6667000000000001	0.002	No	2.92	-0.002	3.0	PrematurePress	0	0.056	507.084	4	53	Target	MissedWin	True
508.084	0.3	Win2	0.6667000000000001	0.002	No	2.92	-0.002	3.0	PrematurePress	0	0.056	n/a	4	53	ButtonPress	MissedWin	True
508.262	0.48	Win2	0.6667000000000001	n/a	No	2.92	n/a	n/a	PrematurePress	0	n/a	n/a	4	53	Blank	MissedWin	True
508.728	1.45	Win2	0.6667000000000001	n/a	No	2.92	n/a	5.0	PrematurePress	0	0.272	508.0	4	53	Feedback	MissedWin	True
510.178	2.92	Win2	0.6667000000000001	n/a	No	2.92	n/a	n/a	PrematurePress	0	0.0	n/a	4	53	ISIslide	MissedWin	True
513.127	0.25	Win2	0.6727	0.0	Yes	2.723	0.027	n/a	GoodResponse	1	n/a	n/a	5	54	Cue	Win	True
513.377	3.95	Win2	0.6727	0.0	Yes	2.723	0.0	n/a	GoodResponse	1	n/a	n/a	5	54	Fixation	Win	True
517.325	0.21	Win2	0.6727	0.002	Yes	2.723	-0.002	3.0	GoodResponse	1	0.204	516.529	5	54	Target	Win	True
517.529	0.3	Win2	0.6727	0.002	Yes	2.723	-0.002	3.0	GoodResponse	1	0.204	n/a	5	54	ButtonPress	Win	True
517.542	0.49	Win2	0.6727	n/a	Yes	2.723	n/a	n/a	GoodResponse	1	n/a	n/a	5	54	Blank	Win	True
518.025	1.45	Win2	0.6727	n/a	Yes	2.723	n/a	5.0	GoodResponse	1	0.975	518.0	5	54	Feedback	Win	True
519.474	2.723	Win2	0.6727	n/a	Yes	2.723	n/a	n/a	GoodResponse	1	0.0	n/a	5	54	ISIslide	Win	True
522.223	0.25	Control	0.6607	0.001	No	3.027	0.023	n/a	NoResponse	0	n/a	n/a	5	55	Cue	Neutral	True
522.473	3.95	Control	0.6607	0.0	No	3.027	0.0	n/a	NoResponse	0	n/a	n/a	5	55	Fixation	Neutral	True
526.422	0.2	Control	0.6607	0.001	No	3.027	-0.001	3.0	NoResponse	0	0.209	525.631	5	55	Target	Neutral	True
526.622	0.5	Control	0.6607	n/a	No	3.027	n/a	n/a	NoResponse	0	n/a	n/a	5	55	Blank	Neutral	True
526.631	0.3	Control	0.6607	0.001	No	3.027	-0.001	3.0	NoResponse	0	0.209	n/a	5	55	ButtonPress	Neutral	True
527.122	1.45	Control	0.6607	n/a	No	3.027	n/a	n/a	NoResponse	0	n/a	n/a	5	55	Feedback	Neutral	True
528.571	3.027	Control	0.6607	n/a	No	3.027	n/a	n/a	NoResponse	0	0.0	n/a	5	55	ISIslide	Neutral	True
531.62	0.25	Control	0.6491	0.0	No	2.83	0.02	n/a	NoResponse	0	n/a	n/a	5	56	Cue	Neutral	True
531.87	3.95	Control	0.6491	0.0	No	2.83	0.0	n/a	NoResponse	0	n/a	n/a	5	56	Fixation	Neutral	True
535.819	0.2	Control	0.6491	0.001	No	2.83	-0.001	3.0	NoResponse	0	0.316	535.135	5	56	Target	Neutral	True
536.019	0.5	Control	0.6491	n/a	No	2.83	n/a	n/a	NoResponse	0	n/a	n/a	5	56	Blank	Neutral	True
536.135	0.3	Control	0.6491	0.001	No	2.83	-0.001	3.0	NoResponse	0	0.316	n/a	5	56	ButtonPress	Neutral	True
536.519	1.45	Control	0.6491	n/a	No	2.83	n/a	5.0	NoResponse	0	0.482	536.001	5	56	Feedback	Neutral	True
537.968	2.83	Control	0.6491	n/a	No	2.83	n/a	n/a	NoResponse	0	0.0	n/a	5	56	ISIslide	Neutral	True
540.817	0.25	Control	0.6552	0.0	Yes	3.483	0.017	n/a	GoodResponse	0	n/a	n/a	5	57	Cue	Neutral	True
541.067	4.0	Control	0.6552	0.0	Yes	3.483	0.0	n/a	GoodResponse	0	n/a	n/a	5	57	Fixation	Neutral	True
545.066	0.21	Control	0.6552	0.001	Yes	3.483	-0.001	3.0	GoodResponse	0	0.17	544.236	5	57	Target	Neutral	True
545.236	0.3	Control	0.6552	0.001	Yes	3.483	-0.001	3.0	GoodResponse	0	0.17	n/a	5	57	ButtonPress	Neutral	True
545.282	0.49	Control	0.6552	n/a	Yes	3.483	n/a	n/a	GoodResponse	0	n/a	n/a	5	57	Blank	Neutral	True
545.765	1.45	Control	0.6552	n/a	Yes	3.483	n/a	5.0	GoodResponse	0	1.236	546.001	5	57	Feedback	Neutral	True
547.215	3.483	Control	0.6552	n/a	Yes	3.483	n/a	n/a	GoodResponse	0	0.0	n/a	5	57	ISIslide	Neutral	True
550.714	0.25	Win2	0.6441	0.0	No	2.736	0.014	n/a	NoResponse	0	n/a	n/a	5	58	Cue	MissedWin	True
550.964	4.05	Win2	0.6441	0.0	No	2.736	0.0	3.0	NoResponse	0	3.693	553.657	5	58	Fixation	MissedWin	True
554.657	0.3	Win2	0.6441	0.0	No	2.736	0.0	3.0	NoResponse	0	3.693	n/a	5	58	ButtonPress	MissedWin	True
555.012	0.21	Win2	0.6441	0.002	No	2.736	-0.002	n/a	NoResponse	0	n/a	n/a	5	58	Target	MissedWin	True
555.229	0.49	Win2	0.6441	n/a	No	2.736	n/a	n/a	NoResponse	0	n/a	n/a	5	58	Blank	MissedWin	True
555.712	1.45	Win2	0.6441	n/a	No	2.736	n/a	5.0	NoResponse	0	1.289	556.001	5	58	Feedback	MissedWin	True
557.161	2.736	Win2	0.6441	n/a	No	2.736	n/a	n/a	NoResponse	0	0.0	n/a	5	58	ISIslide	MissedWin	True
559.927	0.25	Lose2	0.65	0.0	Yes	2.673	0.027	n/a	GoodResponse	0	n/a	n/a	5	59	Cue	AvoidedLoss	True
560.177	4.0	Lose2	0.65	0.0	Yes	2.673	0.0	n/a	GoodResponse	0	n/a	n/a	5	59	Fixation	AvoidedLoss	True
564.176	0.22	Lose2	0.65	0.001	Yes	2.673	-0.001	3.0	GoodResponse	0	0.188	563.364	5	59	Target	AvoidedLoss	True
564.364	0.3	Lose2	0.65	0.001	Yes	2.673	-0.001	3.0	GoodResponse	0	0.188	n/a	5	59	ButtonPress	AvoidedLoss	True
564.409	0.48	Lose2	0.65	n/a	Yes	2.673	n/a	n/a	GoodResponse	0	n/a	n/a	5	59	Blank	AvoidedLoss	True
564.875	1.45	Lose2	0.65	n/a	Yes	2.673	n/a	5.0	GoodResponse	0	0.125	564.0	5	59	Feedback	AvoidedLoss	True
566.325	2.673	Lose2	0.65	n/a	Yes	2.673	n/a	n/a	GoodResponse	0	0.0	n/a	5	59	ISIslide	AvoidedLoss	True
569.024	0.25	Control	0.6557	0.0	Yes	2.676	0.024	n/a	GoodResponse	0	n/a	n/a	5	60	Cue	Neutral	True
569.274	4.0	Control	0.6557	0.0	Yes	2.676	0.0	n/a	GoodResponse	0	n/a	n/a	5	60	Fixation	Neutral	True
573.272	0.23	Control	0.6557	0.002	Yes	2.676	-0.002	3.0	GoodResponse	0	0.228	572.5	5	60	Target	Neutral	True
573.5	0.3	Control	0.6557	0.002	Yes	2.676	-0.002	3.0	GoodResponse	0	0.228	n/a	5	60	ButtonPress	Neutral	True
573.506	0.47	Control	0.6557	n/a	Yes	2.676	n/a	n/a	GoodResponse	0	n/a	n/a	5	60	Blank	Neutral	True
573.972	1.45	Control	0.6557	n/a	Yes	2.676	n/a	5.0	GoodResponse	0	1.028	574.0	5	60	Feedback	Neutral	True
575.422	2.676	Control	0.6557	n/a	Yes	2.676	n/a	n/a	GoodResponse	0	0.0	n/a	5	60	ISIslide	Neutral	True
578.121	0.25	Lose2	0.6452	0.0	No	2.979	0.021	n/a	PrematurePress	-1	n/a	n/a	4	61	Cue	Loss	False
578.371	4.0	Lose2	0.6452	0.0	No	2.979	0.0	3.0	PrematurePress	-1	3.722	581.093	4	61	Fixation	Loss	False
582.093	0.3	Lose2	0.6452	0.0	No	2.979	0.0	3.0	PrematurePress	-1	3.722	n/a	4	61	ButtonPress	Loss	False
582.369	0.23	Lose2	0.6452	0.002	No	2.979	-0.002	3.0	PrematurePress	-1	0.05	581.419	4	61	Target	Loss	False
582.419	0.3	Lose2	0.6452	0.002	No	2.979	-0.002	3.0	PrematurePress	-1	0.05	n/a	4	61	ButtonPress	Loss	False
582.603	0.47	Lose2	0.6452	n/a	No	2.979	n/a	n/a	PrematurePress	-1	n/a	n/a	4	61	Blank	Loss	False
583.069	1.45	Lose2	0.6452	n/a	No	2.979	n/a	n/a	PrematurePress	-1	n/a	n/a	4	61	Feedback	Loss	False
584.519	2.979	Lose2	0.6452	n/a	No	2.979	n/a	n/a	PrematurePress	-1	0.0	n/a	4	61	ISIslide	Loss	False
587.518	0.25	Lose2	0.6507999999999999	0.0	Yes	2.882	0.018	n/a	GoodResponse	0	n/a	n/a	4	62	Cue	AvoidedLoss	True
587.767	3.9	Lose2	0.6507999999999999	0.001	Yes	2.882	-0.001	n/a	GoodResponse	0	n/a	n/a	4	62	Fixation	AvoidedLoss	True
591.666	0.24	Lose2	0.6507999999999999	0.002	Yes	2.882	-0.002	3.0	GoodResponse	0	0.197	590.863	4	62	Target	AvoidedLoss	True
591.863	0.3	Lose2	0.6507999999999999	0.002	Yes	2.882	-0.002	3.0	GoodResponse	0	0.197	n/a	4	62	ButtonPress	AvoidedLoss	True
591.916	0.46	Lose2	0.6507999999999999	n/a	Yes	2.882	n/a	n/a	GoodResponse	0	n/a	n/a	4	62	Blank	AvoidedLoss	True
592.366	1.45	Lose2	0.6507999999999999	n/a	Yes	2.882	n/a	5.0	GoodResponse	0	0.634	592.0	4	62	Feedback	AvoidedLoss	True
593.815	2.882	Lose2	0.6507999999999999	n/a	Yes	2.882	n/a	n/a	GoodResponse	0	0.0	n/a	4	62	ISIslide	AvoidedLoss	True
596.714	0.25	Lose2	0.6562	0.0	Yes	2.636	0.014	n/a	GoodResponse	0	n/a	n/a	4	63	Cue	AvoidedLoss	True
596.964	4.05	Lose2	0.6562	0.0	Yes	2.636	0.0	n/a	GoodResponse	0	n/a	n/a	4	63	Fixation	AvoidedLoss	True
601.013	0.25	Lose2	0.6562	0.001	Yes	2.636	-0.001	3.0	GoodResponse	0	0.198	600.211	4	63	Target	AvoidedLoss	True
601.211	0.3	Lose2	0.6562	0.001	Yes	2.636	-0.001	3.0	GoodResponse	0	0.198	n/a	4	63	ButtonPress	AvoidedLoss	True
601.263	0.45	Lose2	0.6562	n/a	Yes	2.636	n/a	n/a	GoodResponse	0	n/a	n/a	4	63	Blank	AvoidedLoss	True
601.713	1.45	Lose2	0.6562	n/a	Yes	2.636	n/a	5.0	GoodResponse	0	1.288	602.001	4	63	Feedback	AvoidedLoss	True
603.162	2.636	Lose2	0.6562	n/a	Yes	2.636	n/a	n/a	GoodResponse	0	0.0	n/a	4	63	ISIslide	AvoidedLoss	True
605.828	0.25	Win2	0.6462	0.0	No	3.122	0.028	n/a	NoResponse	0	n/a	n/a	4	64	Cue	MissedWin	True
606.078	4.15	Win2	0.6462	0.0	No	3.122	0.0	n/a	NoResponse	0	n/a	n/a	4	64	Fixation	MissedWin	True
610.226	0.25	Win2	0.6462	0.002	No	3.122	-0.002	3.0	NoResponse	0	0.351	609.577	4	64	Target	MissedWin	True
610.476	0.45	Win2	0.6462	n/a	No	3.122	n/a	n/a	NoResponse	0	n/a	n/a	4	64	Blank	MissedWin	True
610.577	0.3	Win2	0.6462	0.002	No	3.122	-0.002	3.0	NoResponse	0	0.351	n/a	4	64	ButtonPress	MissedWin	True
610.926	1.45	Win2	0.6462	n/a	No	3.122	n/a	5.0	NoResponse	0	0.075	610.001	4	64	Feedback	MissedWin	True
612.376	3.122	Win2	0.6462	n/a	No	3.122	n/a	n/a	NoResponse	0	0.0	n/a	4	64	ISIslide	MissedWin	True
615.525	0.25	Control	0.6515000000000001	0.0	Yes	2.775	0.025	n/a	GoodResponse	0	n/a	n/a	4	65	Cue	Neutral	True
615.774	4.0	Control	0.6515000000000001	0.001	Yes	2.775	-0.001	n/a	GoodResponse	0	n/a	n/a	4	65	Fixation	Neutral	True
619.773	0.26	Control	0.6515000000000001	0.002	Yes	2.775	-0.002	3.0	GoodResponse	0	0.165	618.938	4	65	Target	Neutral	True
619.938	0.3	Control	0.6515000000000001	0.002	Yes	2.775	-0.002	3.0	GoodResponse	0	0.165	n/a	4	65	ButtonPress	Neutral	True
620.04	0.44	Control	0.6515000000000001	n/a	Yes	2.775	n/a	n/a	GoodResponse	0	n/a	n/a	4	65	Blank	Neutral	True
620.473	1.45	Control	0.6515000000000001	n/a	Yes	2.775	n/a	5.0	GoodResponse	0	0.528	620.001	4	65	Feedback	Neutral	True
621.922	2.775	Control	0.6515000000000001	n/a	Yes	2.775	n/a	n/a	GoodResponse	0	0.0	n/a	4	65	ISIslide	Neutral	True
624.721	0.25	Win2	0.6567000000000001	0.0	Yes	2.779	0.021	n/a	GoodResponse	1	n/a	n/a	5	66	Cue	Win	True
624.971	3.9	Win2	0.6567000000000001	0.0	Yes	2.779	0.0	n/a	GoodResponse	1	n/a	n/a	5	66	Fixation	Win	True
628.87	0.27	Win2	0.6567000000000001	0.001	Yes	2.779	-0.001	3.0	GoodResponse	1	0.167	628.037	5	66	Target	Win	True
629.037	0.3	Win2	0.6567000000000001	0.001	Yes	2.779	-0.001	3.0	GoodResponse	1	0.167	n/a	5	66	ButtonPress	Win	True
629.137	0.43	Win2	0.6567000000000001	n/a	Yes	2.779	n/a	n/a	GoodResponse	1	n/a	n/a	5	66	Blank	Win	True
629.57	1.45	Win2	0.6567000000000001	n/a	Yes	2.779	n/a	5.0	GoodResponse	1	1.43	630.0	5	66	Feedback	Win	True
631.019	2.779	Win2	0.6567000000000001	n/a	Yes	2.779	n/a	n/a	GoodResponse	1	0.0	n/a	5	66	ISIslide	Win	True
633.818	0.25	Control	0.6618	0.0	Yes	2.732	0.018	n/a	GoodResponse	0	n/a	n/a	5	67	Cue	Neutral	True
634.068	3.95	Control	0.6618	0.0	Yes	2.732	0.0	n/a	GoodResponse	0	n/a	n/a	5	67	Fixation	Neutral	True
638.017	0.27	Control	0.6618	0.001	Yes	2.732	-0.001	3.0	GoodResponse	0	0.163	637.18	5	67	Target	Neutral	True
638.18	0.3	Control	0.6618	0.001	Yes	2.732	-0.001	3.0	GoodResponse	0	0.163	n/a	5	67	ButtonPress	Neutral	True
638.3	0.43	Control	0.6618	n/a	Yes	2.732	n/a	n/a	GoodResponse	0	n/a	n/a	5	67	Blank	Neutral	True
638.717	1.45	Control	0.6618	n/a	Yes	2.732	n/a	5.0	GoodResponse	0	0.283	638.0	5	67	Feedback	Neutral	True
640.166	2.732	Control	0.6618	n/a	Yes	2.732	n/a	n/a	GoodResponse	0	0.0	n/a	5	67	ISIslide	Neutral	True
642.915	0.25	Win2	0.6667000000000001	0.0	Yes	3.085	0.015	n/a	GoodResponse	1	n/a	n/a	6	68	Cue	Win	True
643.165	4.0	Win2	0.6667000000000001	0.0	Yes	3.085	0.0	n/a	GoodResponse	1	n/a	n/a	6	68	Fixation	Win	True
647.164	0.27	Win2	0.6667000000000001	0.001	Yes	3.085	-0.001	3.0	GoodResponse	1	0.162	646.326	6	68	Target	Win	True
647.326	0.3	Win2	0.6667000000000001	0.001	Yes	3.085	-0.001	3.0	GoodResponse	1	0.162	n/a	6	68	ButtonPress	Win	True
647.447	0.43	Win2	0.6667000000000001	n/a	Yes	3.085	n/a	n/a	GoodResponse	1	n/a	n/a	6	68	Blank	Win	True
647.863	1.45	Win2	0.6667000000000001	n/a	Yes	3.085	n/a	5.0	GoodResponse	1	1.137	648.0	6	68	Feedback	Win	True
649.313	3.085	Win2	0.6667000000000001	n/a	Yes	3.085	n/a	n/a	GoodResponse	1	0.0	n/a	6	68	ISIslide	Win	True
652.428	0.25	Win2	0.6714	0.001	Yes	3.222	0.028	n/a	GoodResponse	1	n/a	n/a	7	69	Cue	Win	True
652.678	3.95	Win2	0.6714	0.0	Yes	3.222	0.0	n/a	GoodResponse	1	n/a	n/a	7	69	Fixation	Win	True
656.627	0.26	Win2	0.6714	0.001	Yes	3.222	-0.001	3.0	GoodResponse	1	0.204	655.831	7	69	Target	Win	True
656.831	0.3	Win2	0.6714	0.001	Yes	3.222	-0.001	3.0	GoodResponse	1	0.204	n/a	7	69	ButtonPress	Win	True
656.894	0.44	Win2	0.6714	n/a	Yes	3.222	n/a	n/a	GoodResponse	1	n/a	n/a	7	69	Blank	Win	True
657.327	1.45	Win2	0.6714	n/a	Yes	3.222	n/a	n/a	GoodResponse	1	n/a	n/a	7	69	Feedback	Win	True
658.776	3.222	Win2	0.6714	n/a	Yes	3.222	n/a	n/a	GoodResponse	1	0.0	n/a	7	69	ISIslide	Win	True
662.025	0.25	Lose2	0.6761	0.0	Yes	3.025	0.025	n/a	GoodResponse	0	n/a	n/a	7	70	Cue	AvoidedLoss	True
662.275	4.05	Lose2	0.6761	0.0	Yes	3.025	0.0	n/a	GoodResponse	0	n/a	n/a	7	70	Fixation	AvoidedLoss	True
666.324	0.25	Lose2	0.6761	0.001	Yes	3.025	-0.001	3.0	GoodResponse	0	0.175	665.499	7	70	Target	AvoidedLoss	True
666.499	0.3	Lose2	0.6761	0.001	Yes	3.025	-0.001	3.0	GoodResponse	0	0.175	n/a	7	70	ButtonPress	AvoidedLoss	True
666.574	0.45	Lose2	0.6761	n/a	Yes	3.025	n/a	n/a	GoodResponse	0	n/a	n/a	7	70	Blank	AvoidedLoss	True
667.023	1.45	Lose2	0.6761	n/a	Yes	3.025	n/a	n/a	GoodResponse	0	n/a	n/a	7	70	Feedback	AvoidedLoss	True
668.473	3.025	Lose2	0.6761	n/a	Yes	3.025	n/a	n/a	GoodResponse	0	0.0	n/a	7	70	ISIslide	AvoidedLoss	True
671.522	0.25	Win2	0.6806	0.0	Yes	2.728	0.022	n/a	GoodResponse	1	n/a	n/a	8	71	Cue	Win	True
671.772	4.05	Win2	0.6806	0.0	Yes	2.728	0.0	n/a	GoodResponse	1	n/a	n/a	8	71	Fixation	Win	True
675.82	0.24	Win2	0.6806	0.002	Yes	2.728	-0.002	3.0	GoodResponse	1	0.216	675.036	8	71	Target	Win	True
676.036	0.3	Win2	0.6806	0.002	Yes	2.728	-0.002	3.0	GoodResponse	1	0.216	n/a	8	71	ButtonPress	Win	True
676.07	0.46	Win2	0.6806	n/a	Yes	2.728	n/a	n/a	GoodResponse	1	n/a	n/a	8	71	Blank	Win	True
676.52	1.45	Win2	0.6806	n/a	Yes	2.728	n/a	5.0	GoodResponse	1	0.48	676.0	8	71	Feedback	Win	True
677.97	2.728	Win2	0.6806	n/a	Yes	2.728	n/a	n/a	GoodResponse	1	0.0	n/a	8	71	ISIslide	Win	True
680.719	0.25	Win2	0.6849	0.0	Yes	2.781	0.019	n/a	GoodResponse	1	n/a	n/a	9	72	Cue	Win	True
680.969	4.1	Win2	0.6849	0.0	Yes	2.781	0.0	n/a	GoodResponse	1	n/a	n/a	9	72	Fixation	Win	True
685.067	0.23	Win2	0.6849	0.002	Yes	2.781	-0.002	3.0	GoodResponse	1	0.219	684.286	9	72	Target	Win	True
685.286	0.3	Win2	0.6849	0.002	Yes	2.781	-0.002	3.0	GoodResponse	1	0.219	n/a	9	72	ButtonPress	Win	True
685.3	0.47	Win2	0.6849	n/a	Yes	2.781	n/a	n/a	GoodResponse	1	n/a	n/a	9	72	Blank	Win	True
685.767	1.45	Win2	0.6849	n/a	Yes	2.781	n/a	5.0	GoodResponse	1	1.233	686.0	9	72	Feedback	Win	True
687.216	2.781	Win2	0.6849	n/a	Yes	2.781	n/a	n/a	GoodResponse	1	0.0	n/a	9	72	ISIslide	Win	True
690.015	0.25	Win2	0.6892	0.001	Yes	2.685	0.015	n/a	GoodResponse	1	n/a	n/a	10	73	Cue	Win	True
690.265	4.0	Win2	0.6892	0.0	Yes	2.685	0.0	n/a	GoodResponse	1	n/a	n/a	10	73	Fixation	Win	True
694.264	0.22	Win2	0.6892	0.001	Yes	2.685	-0.001	3.0	GoodResponse	1	0.184	693.448	10	73	Target	Win	True
694.448	0.3	Win2	0.6892	0.001	Yes	2.685	-0.001	3.0	GoodResponse	1	0.184	n/a	10	73	ButtonPress	Win	True
694.481	0.48	Win2	0.6892	n/a	Yes	2.685	n/a	n/a	GoodResponse	1	n/a	n/a	10	73	Blank	Win	True
694.964	1.45	Win2	0.6892	n/a	Yes	2.685	n/a	5.0	GoodResponse	1	0.036	694.0	10	73	Feedback	Win	True
696.413	2.685	Win2	0.6892	n/a	Yes	2.685	n/a	n/a	GoodResponse	1	0.0	n/a	10	73	ISIslide	Win	True
699.129	0.25	Lose2	0.6933	0.0	Yes	2.621	0.029	n/a	GoodResponse	0	n/a	n/a	10	74	Cue	AvoidedLoss	True
699.379	4.05	Lose2	0.6933	0.0	Yes	2.621	0.0	n/a	GoodResponse	0	n/a	n/a	10	74	Fixation	AvoidedLoss	True
703.427	0.21	Lose2	0.6933	0.002	Yes	2.621	-0.002	3.0	GoodResponse	0	0.177	702.604	10	74	Target	AvoidedLoss	True
703.604	0.3	Lose2	0.6933	0.002	Yes	2.621	-0.002	3.0	GoodResponse	0	0.177	n/a	10	74	ButtonPress	AvoidedLoss	True
703.644	0.49	Lose2	0.6933	n/a	Yes	2.621	n/a	n/a	GoodResponse	0	n/a	n/a	10	74	Blank	AvoidedLoss	True
704.127	1.45	Lose2	0.6933	n/a	Yes	2.621	n/a	5.0	GoodResponse	0	0.873	704.0	10	74	Feedback	AvoidedLoss	True
705.577	2.621	Lose2	0.6933	n/a	Yes	2.621	n/a	n/a	GoodResponse	0	0.0	n/a	10	74	ISIslide	AvoidedLoss	True
708.226	0.25	Lose2	0.6973999999999999	0.0	Yes	2.924	0.026	n/a	GoodResponse	0	n/a	n/a	10	75	Cue	AvoidedLoss	True
708.476	3.95	Lose2	0.6973999999999999	0.0	Yes	2.924	0.0	n/a	GoodResponse	0	n/a	n/a	10	75	Fixation	AvoidedLoss	True
712.424	0.2	Lose2	0.6973999999999999	0.002	Yes	2.924	-0.002	3.0	GoodResponse	0	0.166	711.59	10	75	Target	AvoidedLoss	True
712.59	0.3	Lose2	0.6973999999999999	0.002	Yes	2.924	-0.002	3.0	GoodResponse	0	0.166	n/a	10	75	ButtonPress	AvoidedLoss	True
712.624	0.5	Lose2	0.6973999999999999	n/a	Yes	2.924	n/a	n/a	GoodResponse	0	n/a	n/a	10	75	Blank	AvoidedLoss	True
713.124	1.45	Lose2	0.6973999999999999	n/a	Yes	2.924	n/a	n/a	GoodResponse	0	n/a	n/a	10	75	Feedback	AvoidedLoss	True
714.574	2.924	Lose2	0.6973999999999999	n/a	Yes	2.924	n/a	n/a	GoodResponse	0	0.0	n/a	10	75	ISIslide	AvoidedLoss	True
717.523	0.25	Control	0.7012999999999999	0.0	Yes	3.227	0.023	n/a	GoodResponse	0	n/a	n/a	10	76	Cue	Neutral	True
717.773	4.05	Control	0.7012999999999999	0.0	Yes	3.227	0.0	n/a	GoodResponse	0	n/a	n/a	10	76	Fixation	Neutral	True
721.821	0.19	Control	0.7012999999999999	0.002	Yes	3.227	-0.002	3.0	GoodResponse	0	0.188	721.009	10	76	Target	Neutral	True
722.009	0.3	Control	0.7012999999999999	0.002	Yes	3.227	-0.002	3.0	GoodResponse	0	0.188	n/a	10	76	ButtonPress	Neutral	True
722.021	0.51	Control	0.7012999999999999	n/a	Yes	3.227	n/a	n/a	GoodResponse	0	n/a	n/a	10	76	Blank	Neutral	True
722.521	1.45	Control	0.7012999999999999	n/a	Yes	3.227	n/a	5.0	GoodResponse	0	0.479	722.0	10	76	Feedback	Neutral	True
723.97	3.227	Control	0.7012999999999999	n/a	Yes	3.227	n/a	n/a	GoodResponse	0	0.0	n/a	10	76	ISIslide	Neutral	True
727.219	0.25	Lose2	0.6923	0.0	No	2.581	0.019	n/a	LatePress	-1	n/a	n/a	9	77	Cue	Loss	True
727.469	3.95	Lose2	0.6923	0.0	No	2.581	0.0	n/a	LatePress	-1	n/a	n/a	9	77	Fixation	Loss	True
731.418	0.18	Lose2	0.6923	0.001	No	2.581	-0.001	3.0	LatePress	-1	0.181	730.599	9	77	Target	Loss	True
731.599	0.3	Lose2	0.6923	0.001	No	2.581	-0.001	3.0	LatePress	-1	0.181	n/a	9	77	ButtonPress	Loss	True
731.601	0.52	Lose2	0.6923	n/a	No	2.581	n/a	n/a	LatePress	-1	n/a	n/a	9	77	Blank	Loss	True
732.118	1.45	Lose2	0.6923	n/a	No	2.581	n/a	n/a	LatePress	-1	n/a	n/a	9	77	Feedback	Loss	True
733.567	2.581	Lose2	0.6923	n/a	No	2.581	n/a	n/a	LatePress	-1	0.0	n/a	9	77	ISIslide	Loss	True
