onset	duration	cue_type	current_mean_accuracy	duration_error	is_hit	isi_adjusted	onset_delay	response	response_type	reward	rt	rt_time	total_reward	trial_number	trial_phase	trial_type	one_press
11.109	0.25	Control	1.0	0.0	Yes	2.941	0.009	n/a	GoodResponse	0	n/a	n/a	0	0	Cue	Neutral	True
11.36	3.85	Control	1.0	0.0	Yes	2.941	0.001	n/a	GoodResponse	0	n/a	n/a	0	0	Fixation	Neutral	True
15.205	0.4	Control	1.0	0.004	Yes	2.941	-0.004	2.0	GoodResponse	0	0.221	14.426000000000007	0	0	Target	Neutral	True
15.426	0.3	Control	1.0	0.004	Yes	2.941	-0.004	2.0	GoodResponse	0	0.221	n/a	0	0	ButtonPress	Neutral	True
15.606	0.3	Control	1.0	n/a	Yes	2.941	n/a	n/a	GoodResponse	0	n/a	n/a	0	0	Blank	Neutral	True
15.907	1.45	Control	1.0	n/a	Yes	2.941	n/a	5.0	GoodResponse	0	0.019	14.926000000000007	0	0	Feedback	Neutral	True
17.361	2.941	Control	1.0	n/a	Yes	2.941	n/a	n/a	GoodResponse	0	0.0	n/a	0	0	ISIslide	Neutral	True
20.37	0.25	Lose2	1.0	0.0	Yes	2.73	0.07	n/a	GoodResponse	0	n/a	n/a	0	1	Cue	AvoidedLoss	True
20.621	4.0	Lose2	1.0	0.0	Yes	2.73	0.001	n/a	GoodResponse	0	n/a	n/a	0	1	Fixation	AvoidedLoss	True
24.616	0.39	Lose2	1.0	0.004	Yes	2.73	-0.004	2.0	GoodResponse	0	0.196	23.81200000000001	0	1	Target	AvoidedLoss	True
24.812	0.3	Lose2	1.0	0.004	Yes	2.73	-0.004	2.0	GoodResponse	0	0.196	n/a	0	1	ButtonPress	AvoidedLoss	True
25.017	0.31	Lose2	1.0	n/a	Yes	2.73	n/a	n/a	GoodResponse	0	n/a	n/a	0	1	Blank	AvoidedLoss	True
25.318	1.45	Lose2	1.0	n/a	Yes	2.73	n/a	5.0	GoodResponse	0	0.022	24.340000000000007	0	1	Feedback	AvoidedLoss	True
26.773	2.73	Lose2	1.0	n/a	Yes	2.73	n/a	n/a	GoodResponse	0	0.0	n/a	0	1	ISIslide	AvoidedLoss	True
29.531	0.25	Control	1.0	0.0	Yes	2.569	0.031	n/a	GoodResponse	0	n/a	n/a	0	2	Cue	Neutral	True
29.782	4.1	Control	1.0	0.0	Yes	2.569	0.001	n/a	GoodResponse	0	n/a	n/a	0	2	Fixation	Neutral	True
33.877	0.38	Control	1.0	0.004	Yes	2.569	-0.004	2.0	GoodResponse	0	0.202	33.07900000000001	0	2	Target	Neutral	True
34.079	0.3	Control	1.0	0.004	Yes	2.569	-0.004	2.0	GoodResponse	0	0.202	n/a	0	2	ButtonPress	Neutral	True
34.262	0.32	Control	1.0	n/a	Yes	2.569	n/a	n/a	GoodResponse	0	n/a	n/a	0	2	Blank	Neutral	True
34.579	1.45	Control	1.0	n/a	Yes	2.569	n/a	5.0	GoodResponse	0	0.03	33.60900000000001	0	2	Feedback	Neutral	True
36.034	2.569	Control	1.0	n/a	Yes	2.569	n/a	n/a	GoodResponse	0	0.0	n/a	0	2	ISIslide	Neutral	True
38.625	0.25	Win2	1.0	0.0	Yes	2.825	0.025	n/a	GoodResponse	1	n/a	n/a	1	3	Cue	Win	True
38.876	3.95	Win2	1.0	0.0	Yes	2.825	0.001	n/a	GoodResponse	1	n/a	n/a	1	3	Fixation	Win	True
42.821	0.37	Win2	1.0	0.004	Yes	2.825	-0.004	2.0	GoodResponse	1	0.19	42.01100000000001	1	3	Target	Win	True
43.011	0.3	Win2	1.0	0.004	Yes	2.825	-0.004	2.0	GoodResponse	1	0.19	n/a	1	3	ButtonPress	Win	True
43.205	0.33	Win2	1.0	n/a	Yes	2.825	n/a	n/a	GoodResponse	1	n/a	n/a	1	3	Blank	Win	True
43.523	1.45	Win2	1.0	n/a	Yes	2.825	n/a	5.0	GoodResponse	1	0.013	42.53600000000001	1	3	Feedback	Win	True
44.977	2.825	Win2	1.0	n/a	Yes	2.825	n/a	n/a	GoodResponse	1	0.0	n/a	1	3	ISIslide	Win	True
47.819	0.25	Win2	0.8	0.0	No	3.281	0.019	n/a	NoResponse	0	n/a	n/a	1	4	Cue	MissedWin	True
48.07	4.0	Win2	0.8	0.0	No	3.281	0.001	2.0	NoResponse	0	3.995	51.065000000000005	1	4	Fixation	MissedWin	True
52.065	0.36	Win2	0.8	0.004	No	3.281	-0.004	n/a	NoResponse	0	n/a	n/a	1	4	Target	MissedWin	True
52.065	0.3	Win2	0.8	0.0	No	3.281	0.001	2.0	NoResponse	0	3.995	n/a	1	4	ButtonPress	MissedWin	True
52.433	0.34	Win2	0.8	n/a	No	3.281	n/a	n/a	NoResponse	0	n/a	n/a	1	4	Blank	MissedWin	True
52.767	1.45	Win2	0.8	n/a	No	3.281	n/a	5.0	NoResponse	0	0.037	51.80400000000001	1	4	Feedback	MissedWin	True
54.221	3.281	Win2	0.8	n/a	No	3.281	n/a	n/a	NoResponse	0	0.0	n/a	1	4	ISIslide	MissedWin	True
57.531	0.25	Win2	0.8332999999999999	0.0	Yes	2.769	0.031	n/a	GoodResponse	1	n/a	n/a	2	5	Cue	Win	True
57.782	4.0	Win2	0.8332999999999999	0.0	Yes	2.769	0.001	n/a	GoodResponse	1	n/a	n/a	2	5	Fixation	Win	True
61.777	0.35	Win2	0.8332999999999999	0.004	Yes	2.769	-0.004	2.0	GoodResponse	1	0.183	60.96000000000001	2	5	Target	Win	True
61.96	0.3	Win2	0.8332999999999999	0.004	Yes	2.769	-0.004	2.0	GoodResponse	1	0.183	n/a	2	5	ButtonPress	Win	True
62.128	0.35	Win2	0.8332999999999999	n/a	Yes	2.769	n/a	n/a	GoodResponse	1	n/a	n/a	2	5	Blank	Win	True
62.48	1.45	Win2	0.8332999999999999	n/a	Yes	2.769	n/a	5.0	GoodResponse	1	0.03	61.510000000000005	2	5	Feedback	Win	True
63.934	2.769	Win2	0.8332999999999999	n/a	Yes	2.769	n/a	n/a	GoodResponse	1	0.0	n/a	2	5	ISIslide	Win	True
66.726	0.25	Lose2	0.8571	0.0	Yes	2.724	0.026	n/a	GoodResponse	0	n/a	n/a	2	6	Cue	AvoidedLoss	True
66.976	3.95	Lose2	0.8571	0.0	Yes	2.724	0.0	n/a	GoodResponse	0	n/a	n/a	2	6	Fixation	AvoidedLoss	True
70.938	0.34	Lose2	0.8571	0.0	Yes	2.724	0.012	2.0	GoodResponse	0	0.21	70.148	2	6	Target	AvoidedLoss	True
71.148	0.3	Lose2	0.8571	0.0	Yes	2.724	0.012	2.0	GoodResponse	0	0.21	n/a	2	6	ButtonPress	AvoidedLoss	True
71.273	0.36	Lose2	0.8571	n/a	Yes	2.724	n/a	n/a	GoodResponse	0	n/a	n/a	2	6	Blank	AvoidedLoss	True
71.624	1.45	Lose2	0.8571	n/a	Yes	2.724	n/a	5.0	GoodResponse	0	0.009	70.633	2	6	Feedback	AvoidedLoss	True
73.078	2.724	Lose2	0.8571	n/a	Yes	2.724	n/a	n/a	GoodResponse	0	0.0	n/a	2	6	ISIslide	AvoidedLoss	True
75.819	0.25	Lose2	0.875	0.001	Yes	4.031	0.019	n/a	GoodResponse	0	n/a	n/a	2	7	Cue	AvoidedLoss	True
76.07	4.05	Lose2	0.875	0.0	Yes	4.031	0.001	n/a	GoodResponse	0	n/a	n/a	2	7	Fixation	AvoidedLoss	True
80.116	0.33	Lose2	0.875	0.003	Yes	4.031	-0.003	2.0	GoodResponse	0	0.221	79.337	2	7	Target	AvoidedLoss	True
80.337	0.3	Lose2	0.875	0.003	Yes	4.031	-0.003	2.0	GoodResponse	0	0.221	n/a	2	7	ButtonPress	AvoidedLoss	True
80.45	0.37	Lose2	0.875	n/a	Yes	4.031	n/a	n/a	GoodResponse	0	n/a	n/a	2	7	Blank	AvoidedLoss	True
80.818	1.45	Lose2	0.875	n/a	Yes	4.031	n/a	5.0	GoodResponse	0	0.034	79.852	2	7	Feedback	AvoidedLoss	True
82.272	4.031	Lose2	0.875	n/a	Yes	4.031	n/a	n/a	GoodResponse	0	0.0	n/a	2	7	ISIslide	AvoidedLoss	True
86.318	0.25	Lose2	0.8889	0.0	Yes	3.032	0.018	n/a	GoodResponse	0	n/a	n/a	2	8	Cue	AvoidedLoss	True
86.568	3.95	Lose2	0.8889	0.0	Yes	3.032	0.0	n/a	GoodResponse	0	n/a	n/a	2	8	Fixation	AvoidedLoss	True
90.513	0.32	Lose2	0.8889	0.005	Yes	3.032	-0.005	2.0	GoodResponse	0	0.222	89.735	2	8	Target	AvoidedLoss	True
90.735	0.3	Lose2	0.8889	0.005	Yes	3.032	-0.005	2.0	GoodResponse	0	0.222	n/a	2	8	ButtonPress	AvoidedLoss	True
90.848	0.38	Lose2	0.8889	n/a	Yes	3.032	n/a	n/a	GoodResponse	0	n/a	n/a	2	8	Blank	AvoidedLoss	True
91.216	1.45	Lose2	0.8889	n/a	Yes	3.032	n/a	5.0	GoodResponse	0	0.027	90.243	2	8	Feedback	AvoidedLoss	True
92.67	3.032	Lose2	0.8889	n/a	Yes	3.032	n/a	n/a	GoodResponse	0	0.0	n/a	2	8	ISIslide	AvoidedLoss	True
95.729	0.25	Lose2	0.9	0.0	Yes	3.121	0.029	n/a	GoodResponse	0	n/a	n/a	2	9	Cue	AvoidedLoss	True
95.98	3.95	Lose2	0.9	0.0	Yes	3.121	0.001	n/a	GoodResponse	0	n/a	n/a	2	9	Fixation	AvoidedLoss	True
99.925	0.31	Lose2	0.9	0.004	Yes	3.121	-0.004	2.0	GoodResponse	0	0.248	99.173	2	9	Target	AvoidedLoss	True
100.173	0.3	Lose2	0.9	0.004	Yes	3.121	-0.004	2.0	GoodResponse	0	0.248	n/a	2	9	ButtonPress	AvoidedLoss	True
100.243	0.39	Lose2	0.9	n/a	Yes	3.121	n/a	n/a	GoodResponse	0	n/a	n/a	2	9	Blank	AvoidedLoss	True
100.627	1.45	Lose2	0.9	n/a	Yes	3.121	n/a	5.0	GoodResponse	0	0.03	99.657	2	9	Feedback	AvoidedLoss	True
102.081	3.121	Lose2	0.9	n/a	Yes	3.121	n/a	n/a	GoodResponse	0	0.0	n/a	2	9	ISIslide	AvoidedLoss	True
105.224	0.25	Control	0.9091	0.0	Yes	3.276	0.024	n/a	GoodResponse	0	n/a	n/a	2	10	Cue	Neutral	True
105.475	4.0	Control	0.9091	0.0	Yes	3.276	0.001	n/a	GoodResponse	0	n/a	n/a	2	10	Fixation	Neutral	True
109.47	0.3	Control	0.9091	0.004	Yes	3.276	-0.004	2.0	GoodResponse	0	0.2	108.67	2	10	Target	Neutral	True
109.67	0.3	Control	0.9091	0.004	Yes	3.276	-0.004	2.0	GoodResponse	0	0.2	n/a	2	10	ButtonPress	Neutral	True
109.771	0.4	Control	0.9091	n/a	Yes	3.276	n/a	n/a	GoodResponse	0	n/a	n/a	2	10	Blank	Neutral	True
110.172	1.45	Control	0.9091	n/a	Yes	3.276	n/a	5.0	GoodResponse	0	0.045	109.217	2	10	Feedback	Neutral	True
111.627	3.276	Control	0.9091	n/a	Yes	3.276	n/a	n/a	GoodResponse	0	0.0	n/a	2	10	ISIslide	Neutral	True
114.92	0.25	Lose2	0.9167000000000001	0.0	Yes	2.73	0.02	n/a	GoodResponse	0	n/a	n/a	2	11	Cue	AvoidedLoss	True
115.171	4.05	Lose2	0.9167000000000001	0.0	Yes	2.73	0.001	n/a	GoodResponse	0	n/a	n/a	2	11	Fixation	AvoidedLoss	True
119.216	0.29	Lose2	0.9167000000000001	0.004	Yes	2.73	-0.004	2.0	GoodResponse	0	0.204	118.42	2	11	Target	AvoidedLoss	True
119.42	0.3	Lose2	0.9167000000000001	0.004	Yes	2.73	-0.004	2.0	GoodResponse	0	0.204	n/a	2	11	ButtonPress	AvoidedLoss	True
119.517	0.41	Lose2	0.9167000000000001	n/a	Yes	2.73	n/a	n/a	GoodResponse	0	n/a	n/a	2	11	Blank	AvoidedLoss	True
119.918	1.45	Lose2	0.9167000000000001	n/a	Yes	2.73	n/a	5.0	GoodResponse	0	0.007	118.925	2	11	Feedback	AvoidedLoss	True
121.372	2.73	Lose2	0.9167000000000001	n/a	Yes	2.73	n/a	n/a	GoodResponse	0	0.0	n/a	2	11	ISIslide	AvoidedLoss	True
124.114	0.25	Control	0.9231	0.0	Yes	2.986	0.014	n/a	GoodResponse	0	n/a	n/a	2	12	Cue	Neutral	True
124.365	3.9	Control	0.9231	0.0	Yes	2.986	0.001	n/a	GoodResponse	0	n/a	n/a	2	12	Fixation	Neutral	True
128.26	0.28	Control	0.9231	0.004	Yes	2.986	-0.004	2.0	GoodResponse	0	0.246	127.506	2	12	Target	Neutral	True
128.506	0.3	Control	0.9231	0.004	Yes	2.986	-0.004	2.0	GoodResponse	0	0.246	n/a	2	12	ButtonPress	Neutral	True
128.544	0.42	Control	0.9231	n/a	Yes	2.986	n/a	n/a	GoodResponse	0	n/a	n/a	2	12	Blank	Neutral	True
128.962	1.45	Control	0.9231	n/a	Yes	2.986	n/a	5.0	GoodResponse	0	0.036	127.998	2	12	Feedback	Neutral	True
130.416	2.986	Control	0.9231	n/a	Yes	2.986	n/a	n/a	GoodResponse	0	0.0	n/a	2	12	ISIslide	Neutral	True
133.425	0.25	Control	0.9286	0.0	Yes	2.775	0.025	n/a	GoodResponse	0	n/a	n/a	2	13	Cue	Neutral	True
133.676	4.0	Control	0.9286	0.0	Yes	2.775	0.001	n/a	GoodResponse	0	n/a	n/a	2	13	Fixation	Neutral	True
137.671	0.27	Control	0.9286	0.004	Yes	2.775	-0.004	2.0	GoodResponse	0	0.171	136.842	2	13	Target	Neutral	True
137.842	0.3	Control	0.9286	0.004	Yes	2.775	-0.004	2.0	GoodResponse	0	0.171	n/a	2	13	ButtonPress	Neutral	True
137.955	0.43	Control	0.9286	n/a	Yes	2.775	n/a	n/a	GoodResponse	0	n/a	n/a	2	13	Blank	Neutral	True
138.373	1.45	Control	0.9286	n/a	Yes	2.775	n/a	5.0	GoodResponse	0	0.04	137.413	2	13	Feedback	Neutral	True
139.828	2.775	Control	0.9286	n/a	Yes	2.775	n/a	n/a	GoodResponse	0	0.0	n/a	2	13	ISIslide	Neutral	True
142.619	0.25	Win2	0.9333	0.001	Yes	2.681	0.019	n/a	GoodResponse	1	n/a	n/a	3	14	Cue	Win	True
142.87	4.1	Win2	0.9333	0.0	Yes	2.681	0.001	n/a	GoodResponse	1	n/a	n/a	3	14	Fixation	Win	True
146.966	0.26	Win2	0.9333	0.003	Yes	2.681	-0.003	2.0	GoodResponse	1	0.233	146.199	3	14	Target	Win	True
147.199	0.3	Win2	0.9333	0.003	Yes	2.681	-0.003	2.0	GoodResponse	1	0.233	n/a	3	14	ButtonPress	Win	True
147.233	0.44	Win2	0.9333	n/a	Yes	2.681	n/a	n/a	GoodResponse	1	n/a	n/a	3	14	Blank	Win	True
147.668	1.45	Win2	0.9333	n/a	Yes	2.681	n/a	5.0	GoodResponse	1	0.013	146.681	3	14	Feedback	Win	True
149.122	2.681	Win2	0.9333	n/a	Yes	2.681	n/a	n/a	GoodResponse	1	0.0	n/a	3	14	ISIslide	Win	True
151.83	0.25	Control	0.9375	0.0	Yes	2.97	0.03	n/a	GoodResponse	0	n/a	n/a	3	15	Cue	Neutral	True
152.081	4.0	Control	0.9375	0.0	Yes	2.97	0.001	n/a	GoodResponse	0	n/a	n/a	3	15	Fixation	Neutral	True
156.076	0.25	Control	0.9375	0.004	Yes	2.97	-0.004	2.0	GoodResponse	0	0.242	155.318	3	15	Target	Neutral	True
156.318	0.3	Control	0.9375	0.004	Yes	2.97	-0.004	2.0	GoodResponse	0	0.242	n/a	3	15	ButtonPress	Neutral	True
156.327	0.45	Control	0.9375	n/a	Yes	2.97	n/a	n/a	GoodResponse	0	n/a	n/a	3	15	Blank	Neutral	True
156.778	1.45	Control	0.9375	n/a	Yes	2.97	n/a	5.0	GoodResponse	0	0.025	155.803	3	15	Feedback	Neutral	True
158.233	2.97	Control	0.9375	n/a	Yes	2.97	n/a	n/a	GoodResponse	0	0.0	n/a	3	15	ISIslide	Neutral	True
161.225	0.25	Win2	0.9412	0.0	Yes	2.875	0.025	n/a	GoodResponse	1	n/a	n/a	4	16	Cue	Win	True
161.476	4.0	Win2	0.9412	0.0	Yes	2.875	0.001	n/a	GoodResponse	1	n/a	n/a	4	16	Fixation	Win	True
165.471	0.24	Win2	0.9412	0.004	Yes	2.875	-0.004	2.0	GoodResponse	1	0.224	164.695	4	16	Target	Win	True
165.695	0.3	Win2	0.9412	0.004	Yes	2.875	-0.004	2.0	GoodResponse	1	0.224	n/a	4	16	ButtonPress	Win	True
165.722	0.46	Win2	0.9412	n/a	Yes	2.875	n/a	n/a	GoodResponse	1	n/a	n/a	4	16	Blank	Win	True
166.173	1.45	Win2	0.9412	n/a	Yes	2.875	n/a	5.0	GoodResponse	1	0.044	165.217	4	16	Feedback	Win	True
167.628	2.875	Win2	0.9412	n/a	Yes	2.875	n/a	n/a	GoodResponse	1	0.0	n/a	4	16	ISIslide	Win	True
170.52	0.25	Lose2	0.8889	0.0	No	2.73	0.02	n/a	NoResponse	-1	n/a	n/a	3	17	Cue	Loss	True
170.77	3.95	Lose2	0.8889	0.0	No	2.73	0.0	n/a	NoResponse	-1	n/a	n/a	3	17	Fixation	Loss	True
174.732	0.23	Lose2	0.8889	0.0	No	2.73	0.012	2.0	NoResponse	-1	0.251	173.983	3	17	Target	Loss	True
174.95	0.47	Lose2	0.8889	n/a	No	2.73	n/a	n/a	NoResponse	-1	n/a	n/a	3	17	Blank	Loss	True
174.983	0.3	Lose2	0.8889	0.0	No	2.73	0.012	2.0	NoResponse	-1	0.251	n/a	3	17	ButtonPress	Loss	True
175.418	1.45	Lose2	0.8889	n/a	No	2.73	n/a	5.0	NoResponse	-1	0.019	174.437	3	17	Feedback	Loss	True
176.872	2.73	Lose2	0.8889	n/a	No	2.73	n/a	n/a	NoResponse	-1	0.0	n/a	3	17	ISIslide	Loss	True
179.63	0.25	Lose2	0.8946999999999999	0.0	Yes	2.72	0.03	n/a	GoodResponse	0	n/a	n/a	3	18	Cue	AvoidedLoss	True
179.881	4.05	Lose2	0.8946999999999999	0.0	Yes	2.72	0.001	n/a	GoodResponse	0	n/a	n/a	3	18	Fixation	AvoidedLoss	True
183.926	0.22	Lose2	0.8946999999999999	0.004	Yes	2.72	-0.004	2.0	GoodResponse	0	0.118	183.044	3	18	Target	AvoidedLoss	True
184.044	0.3	Lose2	0.8946999999999999	0.004	Yes	2.72	-0.004	2.0	GoodResponse	0	0.118	n/a	3	18	ButtonPress	AvoidedLoss	True
184.16	0.48	Lose2	0.8946999999999999	n/a	Yes	2.72	n/a	n/a	GoodResponse	0	n/a	n/a	3	18	Blank	AvoidedLoss	True
184.629	1.45	Lose2	0.8946999999999999	n/a	Yes	2.72	n/a	5.0	GoodResponse	0	0.027	183.656	3	18	Feedback	AvoidedLoss	True
186.083	2.72	Lose2	0.8946999999999999	n/a	Yes	2.72	n/a	n/a	GoodResponse	0	0.0	n/a	3	18	ISIslide	AvoidedLoss	True
188.824	0.25	Control	0.85	0.001	No	2.926	0.024	n/a	NoResponse	0	n/a	n/a	3	19	Cue	Neutral	True
189.075	3.95	Control	0.85	0.0	No	2.926	0.001	n/a	NoResponse	0	n/a	n/a	3	19	Fixation	Neutral	True
193.02	0.21	Control	0.85	0.004	No	2.926	-0.004	2.0	NoResponse	0	0.257	192.277	3	19	Target	Neutral	True
193.238	0.49	Control	0.85	n/a	No	2.926	n/a	n/a	NoResponse	0	n/a	n/a	3	19	Blank	Neutral	True
193.277	0.3	Control	0.85	0.004	No	2.926	-0.004	2.0	NoResponse	0	0.257	n/a	3	19	ButtonPress	Neutral	True
193.722	1.45	Control	0.85	n/a	No	2.926	n/a	5.0	NoResponse	0	0.008	192.73	3	19	Feedback	Neutral	True
195.177	2.926	Control	0.85	n/a	No	2.926	n/a	n/a	NoResponse	0	0.0	n/a	3	19	ISIslide	Neutral	True
198.119	0.25	Control	0.8095	0.0	No	2.631	0.019	n/a	PrematurePress	0	n/a	n/a	3	20	Cue	Neutral	True
198.37	4.05	Control	0.8095	0.0	No	2.631	0.001	n/a	PrematurePress	0	n/a	n/a	3	20	Fixation	Neutral	True
202.415	0.2	Control	0.8095	0.004	No	2.631	-0.004	2.0	PrematurePress	0	0.058	201.473	3	20	Target	Neutral	True
202.473	0.3	Control	0.8095	0.004	No	2.631	-0.004	2.0	PrematurePress	0	0.058	n/a	3	20	ButtonPress	Neutral	True
202.616	0.5	Control	0.8095	n/a	No	2.631	n/a	n/a	PrematurePress	0	n/a	n/a	3	20	Blank	Neutral	True
203.117	1.45	Control	0.8095	n/a	No	2.631	n/a	5.0	PrematurePress	0	0.027	202.144	3	20	Feedback	Neutral	True
204.572	2.631	Control	0.8095	n/a	No	2.631	n/a	n/a	PrematurePress	0	0.0	n/a	3	20	ISIslide	Neutral	True
207.229	0.25	Control	0.7726999999999999	0.001	No	2.771	0.029	n/a	NoResponse	0	n/a	n/a	3	21	Cue	Neutral	True
207.48	4.1	Control	0.7726999999999999	0.0	No	2.771	0.001	n/a	NoResponse	0	n/a	n/a	3	21	Fixation	Neutral	True
211.576	0.19	Control	0.7726999999999999	0.003	No	2.771	-0.003	2.0	NoResponse	0	0.276	210.852	3	21	Target	Neutral	True
211.776	0.51	Control	0.7726999999999999	n/a	No	2.771	n/a	n/a	NoResponse	0	n/a	n/a	3	21	Blank	Neutral	True
211.852	0.3	Control	0.7726999999999999	0.003	No	2.771	-0.003	2.0	NoResponse	0	0.276	n/a	3	21	ButtonPress	Neutral	True
212.278	1.45	Control	0.7726999999999999	n/a	No	2.771	n/a	5.0	NoResponse	0	0.036	211.314	3	21	Feedback	Neutral	True
213.732	2.771	Control	0.7726999999999999	n/a	No	2.771	n/a	n/a	NoResponse	0	0.0	n/a	3	21	ISIslide	Neutral	True
216.524	0.25	Control	0.7391	0.0	No	2.776	0.024	n/a	NoResponse	0	n/a	n/a	3	22	Cue	Neutral	True
216.775	4.0	Control	0.7391	0.0	No	2.776	0.001	n/a	NoResponse	0	n/a	n/a	3	22	Fixation	Neutral	True
220.77	0.18	Control	0.7391	0.004	No	2.776	-0.004	2.0	NoResponse	0	0.192	219.962	3	22	Target	Neutral	True
220.954	0.52	Control	0.7391	n/a	No	2.776	n/a	n/a	NoResponse	0	n/a	n/a	3	22	Blank	Neutral	True
220.962	0.3	Control	0.7391	0.004	No	2.776	-0.004	2.0	NoResponse	0	0.192	n/a	3	22	ButtonPress	Neutral	True
221.472	1.45	Control	0.7391	n/a	No	2.776	n/a	5.0	NoResponse	0	0.013	220.485	3	22	Feedback	Neutral	True
222.926	2.776	Control	0.7391	n/a	No	2.776	n/a	n/a	NoResponse	0	0.0	n/a	3	22	ISIslide	Neutral	True
225.718	0.25	Control	0.7082999999999999	0.0	No	2.782	0.018	n/a	NoResponse	0	n/a	n/a	3	23	Cue	Neutral	True
225.969	3.9	Control	0.7082999999999999	0.0	No	2.782	0.001	n/a	NoResponse	0	n/a	n/a	3	23	Fixation	Neutral	True
229.864	0.17	Control	0.7082999999999999	0.004	No	2.782	-0.004	2.0	NoResponse	0	0.192	229.056	3	23	Target	Neutral	True
230.048	0.53	Control	0.7082999999999999	n/a	No	2.782	n/a	n/a	NoResponse	0	n/a	n/a	3	23	Blank	Neutral	True
230.056	0.3	Control	0.7082999999999999	0.004	No	2.782	-0.004	2.0	NoResponse	0	0.192	n/a	3	23	ButtonPress	Neutral	True
230.566	1.45	Control	0.7082999999999999	n/a	No	2.782	n/a	5.0	NoResponse	0	0.041	229.607	3	23	Feedback	Neutral	True
232.02	2.782	Control	0.7082999999999999	n/a	No	2.782	n/a	n/a	NoResponse	0	0.0	n/a	3	23	ISIslide	Neutral	True
234.829	0.25	Win2	0.68	0.0	No	3.121	0.029	n/a	NoResponse	0	n/a	n/a	3	24	Cue	MissedWin	True
235.08	3.95	Win2	0.68	0.0	No	3.121	0.001	n/a	NoResponse	0	n/a	n/a	3	24	Fixation	MissedWin	True
239.025	0.16	Win2	0.68	0.004	No	3.121	-0.004	2.0	NoResponse	0	0.187	238.212	3	24	Target	MissedWin	True
239.192	0.54	Win2	0.68	n/a	No	3.121	n/a	n/a	NoResponse	0	n/a	n/a	3	24	Blank	MissedWin	True
239.212	0.3	Win2	0.68	0.004	No	3.121	-0.004	2.0	NoResponse	0	0.187	n/a	3	24	ButtonPress	MissedWin	True
239.727	1.45	Win2	0.68	n/a	No	3.121	n/a	5.0	NoResponse	0	0.002	238.729	3	24	Feedback	MissedWin	True
241.181	3.121	Win2	0.68	n/a	No	3.121	n/a	n/a	NoResponse	0	0.0	n/a	3	24	ISIslide	MissedWin	True
244.324	0.25	Win2	0.6537999999999999	0.0	No	3.076	0.024	n/a	NoResponse	0	n/a	n/a	3	25	Cue	MissedWin	True
244.575	4.0	Win2	0.6537999999999999	0.0	No	3.076	0.001	n/a	NoResponse	0	n/a	n/a	3	25	Fixation	MissedWin	True
248.57	0.15	Win2	0.6537999999999999	0.004	No	3.076	-0.004	2.0	NoResponse	0	0.205	247.775	3	25	Target	MissedWin	True
248.72	0.55	Win2	0.6537999999999999	n/a	No	3.076	n/a	n/a	NoResponse	0	n/a	n/a	3	25	Blank	MissedWin	True
248.775	0.3	Win2	0.6537999999999999	0.004	No	3.076	-0.004	2.0	NoResponse	0	0.205	n/a	3	25	ButtonPress	MissedWin	True
249.272	1.45	Win2	0.6537999999999999	n/a	No	3.076	n/a	5.0	NoResponse	0	0.018	248.29	3	25	Feedback	MissedWin	True
250.726	3.076	Win2	0.6537999999999999	n/a	No	3.076	n/a	n/a	NoResponse	0	0.0	n/a	3	25	ISIslide	MissedWin	True
253.819	0.25	Win2	0.6296	0.0	No	2.931	0.019	n/a	PrematurePress	0	n/a	n/a	3	26	Cue	MissedWin	True
254.07	3.95	Win2	0.6296	0.0	No	2.931	0.001	n/a	PrematurePress	0	n/a	n/a	3	26	Fixation	MissedWin	True
258.015	0.16	Win2	0.6296	0.004	No	2.931	-0.004	2.0	PrematurePress	0	0.009	257.024	3	26	Target	MissedWin	True
258.024	0.3	Win2	0.6296	0.004	No	2.931	-0.004	2.0	PrematurePress	0	0.009	n/a	3	26	ButtonPress	MissedWin	True
258.182	0.54	Win2	0.6296	n/a	No	2.931	n/a	n/a	PrematurePress	0	n/a	n/a	3	26	Blank	MissedWin	True
258.717	1.45	Win2	0.6296	n/a	No	2.931	n/a	5.0	PrematurePress	0	0.037	257.754	3	26	Feedback	MissedWin	True
260.171	2.931	Win2	0.6296	n/a	No	2.931	n/a	n/a	PrematurePress	0	0.0	n/a	3	26	ISIslide	MissedWin	True
263.13	0.25	Lose2	0.6071	0.0	No	2.82	0.03	n/a	NoResponse	-1	n/a	n/a	2	27	Cue	Loss	True
263.381	4.05	Lose2	0.6071	0.0	No	2.82	0.001	2.0	NoResponse	-1	3.416	265.797	2	27	Fixation	Loss	True
266.797	0.3	Lose2	0.6071	0.0	No	2.82	0.001	2.0	NoResponse	-1	3.416	n/a	2	27	ButtonPress	Loss	True
267.426	0.17	Lose2	0.6071	0.004	No	2.82	-0.004	n/a	NoResponse	-1	n/a	n/a	2	27	Target	Loss	True
267.61	0.53	Lose2	0.6071	n/a	No	2.82	n/a	n/a	NoResponse	-1	n/a	n/a	2	27	Blank	Loss	True
268.128	1.45	Lose2	0.6071	n/a	No	2.82	n/a	5.0	NoResponse	-1	0.039	267.167	2	27	Feedback	Loss	True
269.583	2.82	Lose2	0.6071	n/a	No	2.82	n/a	n/a	NoResponse	-1	0.0	n/a	2	27	ISIslide	Loss	True
272.425	0.25	Control	0.5861999999999999	0.0	No	2.825	0.025	n/a	NoResponse	0	n/a	n/a	2	28	Cue	Neutral	True
272.675	4.05	Control	0.5861999999999999	0.0	No	2.825	0.0	n/a	NoResponse	0	n/a	n/a	2	28	Fixation	Neutral	True
276.721	0.18	Control	0.5861999999999999	0.004	No	2.825	-0.004	2.0	NoResponse	0	0.24	275.961	2	28	Target	Neutral	True
276.905	0.52	Control	0.5861999999999999	n/a	No	2.825	n/a	n/a	NoResponse	0	n/a	n/a	2	28	Blank	Neutral	True
276.961	0.3	Control	0.5861999999999999	0.004	No	2.825	-0.004	2.0	NoResponse	0	0.24	n/a	2	28	ButtonPress	Neutral	True
277.423	1.45	Control	0.5861999999999999	n/a	No	2.825	n/a	5.0	NoResponse	0	0.013	276.436	2	28	Feedback	Neutral	True
278.877	2.825	Control	0.5861999999999999	n/a	No	2.825	n/a	n/a	NoResponse	0	0.0	n/a	2	28	ISIslide	Neutral	True
281.719	0.25	Lose2	0.5667	0.0	No	2.831	0.019	n/a	PrematurePress	-1	n/a	n/a	1	29	Cue	Loss	False
281.97	3.95	Lose2	0.5667	0.0	No	2.831	0.001	2.0	PrematurePress	-1	3.489	284.459	1	29	Fixation	Loss	False
285.459	0.3	Lose2	0.5667	0.0	No	2.831	0.001	2.0	PrematurePress	-1	3.489	n/a	1	29	ButtonPress	Loss	False
285.915	0.19	Lose2	0.5667	0.004	No	2.831	-0.004	2.0	PrematurePress	-1	0.026	284.941	1	29	Target	Loss	False
285.941	0.3	Lose2	0.5667	0.004	No	2.831	-0.004	2.0	PrematurePress	-1	0.026	n/a	1	29	ButtonPress	Loss	False
286.116	0.51	Lose2	0.5667	n/a	No	2.831	n/a	n/a	PrematurePress	-1	n/a	n/a	1	29	Blank	Loss	False
286.617	1.45	Lose2	0.5667	n/a	No	2.831	n/a	5.0	PrematurePress	-1	0.038	285.655	1	29	Feedback	Loss	False
288.071	2.831	Lose2	0.5667	n/a	No	2.831	n/a	n/a	PrematurePress	-1	0.0	n/a	1	29	ISIslide	Loss	False
290.93	0.25	Win2	0.5484	0.0	No	2.77	0.03	n/a	NoResponse	0	n/a	n/a	1	30	Cue	MissedWin	True
291.181	3.9	Win2	0.5484	0.0	No	2.77	0.001	n/a	NoResponse	0	n/a	n/a	1	30	Fixation	MissedWin	True
295.076	0.2	Win2	0.5484	0.004	No	2.77	-0.004	2.0	NoResponse	0	0.226	294.302	1	30	Target	MissedWin	True
295.276	0.5	Win2	0.5484	n/a	No	2.77	n/a	n/a	NoResponse	0	n/a	n/a	1	30	Blank	MissedWin	True
295.302	0.3	Win2	0.5484	0.004	No	2.77	-0.004	2.0	NoResponse	0	0.226	n/a	1	30	ButtonPress	MissedWin	True
295.778	1.45	Win2	0.5484	n/a	No	2.77	n/a	5.0	NoResponse	0	0.048	294.826	1	30	Feedback	MissedWin	True
297.232	2.77	Win2	0.5484	n/a	No	2.77	n/a	n/a	NoResponse	0	0.0	n/a	1	30	ISIslide	MissedWin	True
300.024	0.25	Lose2	0.5625	0.0	Yes	2.826	0.024	n/a	GoodResponse	0	n/a	n/a	1	31	Cue	AvoidedLoss	True
300.275	4.05	Lose2	0.5625	0.0	Yes	2.826	0.001	n/a	GoodResponse	0	n/a	n/a	1	31	Fixation	AvoidedLoss	True
304.32	0.21	Lose2	0.5625	0.004	Yes	2.826	-0.004	2.0	GoodResponse	0	0.202	303.522	1	31	Target	AvoidedLoss	True
304.522	0.3	Lose2	0.5625	0.004	Yes	2.826	-0.004	2.0	GoodResponse	0	0.202	n/a	1	31	ButtonPress	AvoidedLoss	True
304.537	0.49	Lose2	0.5625	n/a	Yes	2.826	n/a	n/a	GoodResponse	0	n/a	n/a	1	31	Blank	AvoidedLoss	True
305.022	1.45	Lose2	0.5625	n/a	Yes	2.826	n/a	5.0	GoodResponse	0	0.024	304.046	1	31	Feedback	AvoidedLoss	True
306.477	2.826	Lose2	0.5625	n/a	Yes	2.826	n/a	n/a	GoodResponse	0	0.0	n/a	1	31	ISIslide	AvoidedLoss	True
309.318	0.25	Lose2	0.5758	0.0	Yes	2.632	0.018	n/a	GoodResponse	0	n/a	n/a	1	32	Cue	AvoidedLoss	True
309.569	4.15	Lose2	0.5758	0.0	Yes	2.632	0.001	n/a	GoodResponse	0	n/a	n/a	1	32	Fixation	AvoidedLoss	True
313.715	0.22	Lose2	0.5758	0.003	Yes	2.632	-0.003	2.0	GoodResponse	0	0.2	312.915	1	32	Target	AvoidedLoss	True
313.915	0.3	Lose2	0.5758	0.003	Yes	2.632	-0.003	2.0	GoodResponse	0	0.2	n/a	1	32	ButtonPress	AvoidedLoss	True
313.949	0.48	Lose2	0.5758	n/a	Yes	2.632	n/a	n/a	GoodResponse	0	n/a	n/a	1	32	Blank	AvoidedLoss	True
314.417	1.45	Lose2	0.5758	n/a	Yes	2.632	n/a	5.0	GoodResponse	0	0.043	313.46	1	32	Feedback	AvoidedLoss	True
315.871	2.632	Lose2	0.5758	n/a	Yes	2.632	n/a	n/a	GoodResponse	0	0.0	n/a	1	32	ISIslide	AvoidedLoss	True
318.529	0.25	Win2	0.5882000000000001	0.0	Yes	2.671	0.029	n/a	GoodResponse	1	n/a	n/a	2	33	Cue	Win	True
318.78	4.0	Win2	0.5882000000000001	0.0	Yes	2.671	0.001	n/a	GoodResponse	1	n/a	n/a	2	33	Fixation	Win	True
322.775	0.23	Win2	0.5882000000000001	0.004	Yes	2.671	-0.004	2.0	GoodResponse	1	0.206	321.981	2	33	Target	Win	True
322.981	0.3	Win2	0.5882000000000001	0.004	Yes	2.671	-0.004	2.0	GoodResponse	1	0.206	n/a	2	33	ButtonPress	Win	True
323.009	0.47	Win2	0.5882000000000001	n/a	Yes	2.671	n/a	n/a	GoodResponse	1	n/a	n/a	2	33	Blank	Win	True
323.477	1.45	Win2	0.5882000000000001	n/a	Yes	2.671	n/a	5.0	GoodResponse	1	0.007	322.484	2	33	Feedback	Win	True
324.932	2.671	Win2	0.5882000000000001	n/a	Yes	2.671	n/a	n/a	GoodResponse	1	0.0	n/a	2	33	ISIslide	Win	True
327.623	0.25	Lose2	0.6	0.0	Yes	2.627	0.023	n/a	GoodResponse	0	n/a	n/a	2	34	Cue	AvoidedLoss	True
327.874	4.05	Lose2	0.6	0.0	Yes	2.627	0.001	n/a	GoodResponse	0	n/a	n/a	2	34	Fixation	AvoidedLoss	True
331.919	0.24	Lose2	0.6	0.004	Yes	2.627	-0.004	2.0	GoodResponse	0	0.216	331.135	2	34	Target	AvoidedLoss	True
332.135	0.3	Lose2	0.6	0.004	Yes	2.627	-0.004	2.0	GoodResponse	0	0.216	n/a	2	34	ButtonPress	AvoidedLoss	True
332.17	0.46	Lose2	0.6	n/a	Yes	2.627	n/a	n/a	GoodResponse	0	n/a	n/a	2	34	Blank	AvoidedLoss	True
332.621	1.45	Lose2	0.6	n/a	Yes	2.627	n/a	5.0	GoodResponse	0	0.034	331.655	2	34	Feedback	AvoidedLoss	True
334.076	2.627	Lose2	0.6	n/a	Yes	2.627	n/a	n/a	GoodResponse	0	0.0	n/a	2	34	ISIslide	AvoidedLoss	True
336.717	0.25	Lose2	0.6111	0.0	Yes	2.683	0.017	n/a	GoodResponse	0	n/a	n/a	2	35	Cue	AvoidedLoss	True
336.968	4.0	Lose2	0.6111	0.0	Yes	2.683	0.001	n/a	GoodResponse	0	n/a	n/a	2	35	Fixation	AvoidedLoss	True
340.963	0.25	Lose2	0.6111	0.004	Yes	2.683	-0.004	2.0	GoodResponse	0	0.215	340.178	2	35	Target	AvoidedLoss	True
341.178	0.3	Lose2	0.6111	0.004	Yes	2.683	-0.004	2.0	GoodResponse	0	0.215	n/a	2	35	ButtonPress	AvoidedLoss	True
341.214	0.45	Lose2	0.6111	n/a	Yes	2.683	n/a	n/a	GoodResponse	0	n/a	n/a	2	35	Blank	AvoidedLoss	True
341.665	1.45	Lose2	0.6111	n/a	Yes	2.683	n/a	5.0	GoodResponse	0	0.014	340.679	2	35	Feedback	AvoidedLoss	True
343.12	2.683	Lose2	0.6111	n/a	Yes	2.683	n/a	n/a	GoodResponse	0	0.0	n/a	2	35	ISIslide	AvoidedLoss	True
345.828	0.25	Control	0.6215999999999999	0.0	Yes	2.672	0.028	n/a	GoodResponse	0	n/a	n/a	2	36	Cue	Neutral	True
346.078	4.0	Control	0.6215999999999999	0.001	Yes	2.672	0.0	n/a	GoodResponse	0	n/a	n/a	2	36	Fixation	Neutral	True
350.074	0.26	Control	0.6215999999999999	0.004	Yes	2.672	-0.004	2.0	GoodResponse	0	0.2	349.274	2	36	Target	Neutral	True
350.274	0.3	Control	0.6215999999999999	0.004	Yes	2.672	-0.004	2.0	GoodResponse	0	0.2	n/a	2	36	ButtonPress	Neutral	True
350.341	0.44	Control	0.6215999999999999	n/a	Yes	2.672	n/a	n/a	GoodResponse	0	n/a	n/a	2	36	Blank	Neutral	True
350.776	1.45	Control	0.6215999999999999	n/a	Yes	2.672	n/a	5.0	GoodResponse	0	0.025	349.801	2	36	Feedback	Neutral	True
352.23	2.672	Control	0.6215999999999999	n/a	Yes	2.672	n/a	n/a	GoodResponse	0	0.0	n/a	2	36	ISIslide	Neutral	True
354.922	0.25	Win2	0.6315999999999999	0.0	Yes	2.878	0.022	n/a	GoodResponse	1	n/a	n/a	3	37	Cue	Win	True
355.172	4.0	Win2	0.6315999999999999	0.0	Yes	2.878	0.0	n/a	GoodResponse	1	n/a	n/a	3	37	Fixation	Win	True
359.168	0.27	Win2	0.6315999999999999	0.004	Yes	2.878	-0.004	2.0	GoodResponse	1	0.192	358.36	3	37	Target	Win	True
359.36	0.3	Win2	0.6315999999999999	0.004	Yes	2.878	-0.004	2.0	GoodResponse	1	0.192	n/a	3	37	ButtonPress	Win	True
359.452	0.43	Win2	0.6315999999999999	n/a	Yes	2.878	n/a	n/a	GoodResponse	1	n/a	n/a	3	37	Blank	Win	True
359.87	1.45	Win2	0.6315999999999999	n/a	Yes	2.878	n/a	5.0	GoodResponse	1	0.006	358.876	3	37	Feedback	Win	True
361.324	2.878	Win2	0.6315999999999999	n/a	Yes	2.878	n/a	n/a	GoodResponse	1	0.0	n/a	3	37	ISIslide	Win	True
364.216	0.25	Lose2	0.6409999999999999	0.0	Yes	2.834	0.016	n/a	GoodResponse	0	n/a	n/a	3	38	Cue	AvoidedLoss	True
364.467	3.95	Lose2	0.6409999999999999	0.0	Yes	2.834	0.001	n/a	GoodResponse	0	n/a	n/a	3	38	Fixation	AvoidedLoss	True
368.412	0.28	Lose2	0.6409999999999999	0.004	Yes	2.834	-0.004	2.0	GoodResponse	0	0.196	367.608	3	38	Target	AvoidedLoss	True
368.608	0.3	Lose2	0.6409999999999999	0.004	Yes	2.834	-0.004	2.0	GoodResponse	0	0.196	n/a	3	38	ButtonPress	AvoidedLoss	True
368.696	0.42	Lose2	0.6409999999999999	n/a	Yes	2.834	n/a	n/a	GoodResponse	0	n/a	n/a	3	38	Blank	AvoidedLoss	True
369.114	1.45	Lose2	0.6409999999999999	n/a	Yes	2.834	n/a	5.0	GoodResponse	0	0.028	368.142	3	38	Feedback	AvoidedLoss	True
370.568	2.834	Lose2	0.6409999999999999	n/a	Yes	2.834	n/a	n/a	GoodResponse	0	0.0	n/a	3	38	ISIslide	AvoidedLoss	True
373.427	0.25	Win2	0.65	0.0	Yes	2.973	0.027	n/a	GoodResponse	1	n/a	n/a	4	39	Cue	Win	True
373.678	4.1	Win2	0.65	0.0	Yes	2.973	0.001	n/a	GoodResponse	1	n/a	n/a	4	39	Fixation	Win	True
377.773	0.29	Win2	0.65	0.004	Yes	2.973	-0.004	2.0	GoodResponse	1	0.197	376.97	4	39	Target	Win	True
377.97	0.3	Win2	0.65	0.004	Yes	2.973	-0.004	2.0	GoodResponse	1	0.197	n/a	4	39	ButtonPress	Win	True
378.074	0.41	Win2	0.65	n/a	Yes	2.973	n/a	n/a	GoodResponse	1	n/a	n/a	4	39	Blank	Win	True
378.475	1.45	Win2	0.65	n/a	Yes	2.973	n/a	5.0	GoodResponse	1	0.033	377.508	4	39	Feedback	Win	True
379.93	2.973	Win2	0.65	n/a	Yes	2.973	n/a	n/a	GoodResponse	1	0.0	n/a	4	39	ISIslide	Win	True
382.922	0.25	Win2	0.6585	0.0	Yes	2.728	0.022	n/a	GoodResponse	1	n/a	n/a	5	40	Cue	Win	True
383.173	3.95	Win2	0.6585	0.0	Yes	2.728	0.001	n/a	GoodResponse	1	n/a	n/a	5	40	Fixation	Win	True
387.118	0.3	Win2	0.6585	0.004	Yes	2.728	-0.004	2.0	GoodResponse	1	0.194	386.312	5	40	Target	Win	True
387.312	0.3	Win2	0.6585	0.004	Yes	2.728	-0.004	2.0	GoodResponse	1	0.194	n/a	5	40	ButtonPress	Win	True
387.419	0.4	Win2	0.6585	n/a	Yes	2.728	n/a	n/a	GoodResponse	1	n/a	n/a	5	40	Blank	Win	True
387.82	1.45	Win2	0.6585	n/a	Yes	2.728	n/a	5.0	GoodResponse	1	0.007	386.827	5	40	Feedback	Win	True
389.274	2.728	Win2	0.6585	n/a	Yes	2.728	n/a	n/a	GoodResponse	1	0.0	n/a	5	40	ISIslide	Win	True
392.016	0.25	Win2	0.6667000000000001	0.0	Yes	2.784	0.016	n/a	GoodResponse	1	n/a	n/a	6	41	Cue	Win	True
392.267	3.9	Win2	0.6667000000000001	0.0	Yes	2.784	0.001	n/a	GoodResponse	1	n/a	n/a	6	41	Fixation	Win	True
396.162	0.3	Win2	0.6667000000000001	0.004	Yes	2.784	-0.004	2.0	GoodResponse	1	0.215	395.377	6	41	Target	Win	True
396.377	0.3	Win2	0.6667000000000001	0.004	Yes	2.784	-0.004	2.0	GoodResponse	1	0.215	n/a	6	41	ButtonPress	Win	True
396.463	0.4	Win2	0.6667000000000001	n/a	Yes	2.784	n/a	n/a	GoodResponse	1	n/a	n/a	6	41	Blank	Win	True
396.864	1.45	Win2	0.6667000000000001	n/a	Yes	2.784	n/a	5.0	GoodResponse	1	0.034	395.898	6	41	Feedback	Win	True
398.318	2.784	Win2	0.6667000000000001	n/a	Yes	2.784	n/a	n/a	GoodResponse	1	0.0	n/a	6	41	ISIslide	Win	True
401.127	0.25	Control	0.6744	0.0	Yes	2.923	0.027	n/a	GoodResponse	0	n/a	n/a	6	42	Cue	Neutral	True
401.377	3.85	Control	0.6744	0.0	Yes	2.923	0.0	n/a	GoodResponse	0	n/a	n/a	6	42	Fixation	Neutral	True
405.239	0.29	Control	0.6744	0.0	Yes	2.923	0.012	2.0	GoodResponse	0	0.195	404.434	6	42	Target	Neutral	True
405.434	0.3	Control	0.6744	0.0	Yes	2.923	0.012	2.0	GoodResponse	0	0.195	n/a	6	42	ButtonPress	Neutral	True
405.523	0.41	Control	0.6744	n/a	Yes	2.923	n/a	n/a	GoodResponse	0	n/a	n/a	6	42	Blank	Neutral	True
405.924	1.45	Control	0.6744	n/a	Yes	2.923	n/a	5.0	GoodResponse	0	0.048	404.972	6	42	Feedback	Neutral	True
407.379	2.923	Control	0.6744	n/a	Yes	2.923	n/a	n/a	GoodResponse	0	0.0	n/a	6	42	ISIslide	Neutral	True
410.321	0.25	Win2	0.6818000000000001	0.0	Yes	3.179	0.021	n/a	GoodResponse	1	n/a	n/a	7	43	Cue	Win	True
410.571	4.0	Win2	0.6818000000000001	0.001	Yes	3.179	0.0	n/a	GoodResponse	1	n/a	n/a	7	43	Fixation	Win	True
414.567	0.28	Win2	0.6818000000000001	0.004	Yes	3.179	-0.004	2.0	GoodResponse	1	0.21	413.777	7	43	Target	Win	True
414.777	0.3	Win2	0.6818000000000001	0.004	Yes	3.179	-0.004	2.0	GoodResponse	1	0.21	n/a	7	43	ButtonPress	Win	True
414.851	0.42	Win2	0.6818000000000001	n/a	Yes	3.179	n/a	n/a	GoodResponse	1	n/a	n/a	7	43	Blank	Win	True
415.269	1.45	Win2	0.6818000000000001	n/a	Yes	3.179	n/a	5.0	GoodResponse	1	0.019	414.288	7	43	Feedback	Win	True
416.723	3.179	Win2	0.6818000000000001	n/a	Yes	3.179	n/a	n/a	GoodResponse	1	0.0	n/a	7	43	ISIslide	Win	True
419.916	0.25	Win2	0.6667000000000001	0.0	No	2.984	0.016	n/a	NoResponse	0	n/a	n/a	7	44	Cue	MissedWin	True
420.167	4.0	Win2	0.6667000000000001	0.0	No	2.984	0.001	n/a	NoResponse	0	n/a	n/a	7	44	Fixation	MissedWin	True
424.162	0.27	Win2	0.6667000000000001	0.004	No	2.984	-0.004	2.0	NoResponse	0	0.342	423.504	7	44	Target	MissedWin	True
424.446	0.43	Win2	0.6667000000000001	n/a	No	2.984	n/a	n/a	NoResponse	0	n/a	n/a	7	44	Blank	MissedWin	True
424.504	0.3	Win2	0.6667000000000001	0.004	No	2.984	-0.004	2.0	NoResponse	0	0.342	n/a	7	44	ButtonPress	MissedWin	True
424.864	1.45	Win2	0.6667000000000001	n/a	No	2.984	n/a	5.0	NoResponse	0	0.034	423.898	7	44	Feedback	MissedWin	True
426.319	2.984	Win2	0.6667000000000001	n/a	No	2.984	n/a	n/a	NoResponse	0	0.0	n/a	7	44	ISIslide	MissedWin	True
429.328	0.25	Control	0.6522	0.0	No	2.872	0.028	n/a	NoResponse	0	n/a	n/a	7	45	Cue	Neutral	False
429.578	4.1	Control	0.6522	0.0	No	2.872	0.0	2.0	NoResponse	0	3.92	432.498	7	45	Fixation	Neutral	False
433.498	0.3	Control	0.6522	0.0	No	2.872	0.0	2.0	NoResponse	0	3.92	n/a	7	45	ButtonPress	Neutral	False
433.674	0.26	Control	0.6522	0.004	No	2.872	-0.004	2.0	NoResponse	0	0.347	433.021	7	45	Target	Neutral	False
433.941	0.44	Control	0.6522	n/a	No	2.872	n/a	n/a	NoResponse	0	n/a	n/a	7	45	Blank	Neutral	False
434.021	0.3	Control	0.6522	0.004	No	2.872	-0.004	2.0	NoResponse	0	0.347	n/a	7	45	ButtonPress	Neutral	False
434.376	1.45	Control	0.6522	n/a	No	2.872	n/a	5.0	NoResponse	0	0.034	433.41	7	45	Feedback	Neutral	False
435.83	2.872	Control	0.6522	n/a	No	2.872	n/a	n/a	NoResponse	0	0.0	n/a	7	45	ISIslide	Neutral	False
438.722	0.25	Lose2	0.6596	0.0	Yes	3.378	0.022	n/a	GoodResponse	0	n/a	n/a	7	46	Cue	AvoidedLoss	True
438.973	4.0	Lose2	0.6596	0.0	Yes	3.378	0.001	n/a	GoodResponse	0	n/a	n/a	7	46	Fixation	AvoidedLoss	True
442.968	0.27	Lose2	0.6596	0.004	Yes	3.378	-0.004	2.0	GoodResponse	0	0.224	442.192	7	46	Target	AvoidedLoss	True
443.192	0.3	Lose2	0.6596	0.004	Yes	3.378	-0.004	2.0	GoodResponse	0	0.224	n/a	7	46	ButtonPress	AvoidedLoss	True
443.253	0.43	Lose2	0.6596	n/a	Yes	3.378	n/a	n/a	GoodResponse	0	n/a	n/a	7	46	Blank	AvoidedLoss	True
443.671	1.45	Lose2	0.6596	n/a	Yes	3.378	n/a	5.0	GoodResponse	0	0.008	442.679	7	46	Feedback	AvoidedLoss	True
445.125	3.378	Lose2	0.6596	n/a	Yes	3.378	n/a	n/a	GoodResponse	0	0.0	n/a	7	46	ISIslide	AvoidedLoss	True
448.518	0.25	Lose2	0.6667000000000001	0.0	Yes	2.682	0.018	n/a	GoodResponse	0	n/a	n/a	7	47	Cue	AvoidedLoss	True
448.769	4.0	Lose2	0.6667000000000001	0.0	Yes	2.682	0.001	n/a	GoodResponse	0	n/a	n/a	7	47	Fixation	AvoidedLoss	True
452.764	0.27	Lose2	0.6667000000000001	0.004	Yes	2.682	-0.004	2.0	GoodResponse	0	0.266	452.03	7	47	Target	AvoidedLoss	True
453.03	0.3	Lose2	0.6667000000000001	0.004	Yes	2.682	-0.004	2.0	GoodResponse	0	0.266	n/a	7	47	ButtonPress	AvoidedLoss	True
453.049	0.43	Lose2	0.6667000000000001	n/a	Yes	2.682	n/a	n/a	GoodResponse	0	n/a	n/a	7	47	Blank	AvoidedLoss	True
453.467	1.45	Lose2	0.6667000000000001	n/a	Yes	2.682	n/a	5.0	GoodResponse	0	0.017	452.484	7	47	Feedback	AvoidedLoss	True
454.921	2.682	Lose2	0.6667000000000001	n/a	Yes	2.682	n/a	n/a	GoodResponse	0	0.0	n/a	7	47	ISIslide	AvoidedLoss	True
457.629	0.25	Lose2	0.6531	0.0	No	3.021	0.029	n/a	NoResponse	-1	n/a	n/a	6	48	Cue	Loss	True
457.88	3.95	Lose2	0.6531	0.0	No	3.021	0.001	n/a	NoResponse	-1	n/a	n/a	6	48	Fixation	Loss	True
461.825	0.26	Lose2	0.6531	0.004	No	3.021	-0.004	2.0	NoResponse	-1	0.294	461.119	6	48	Target	Loss	True
462.092	0.44	Lose2	0.6531	n/a	No	3.021	n/a	n/a	NoResponse	-1	n/a	n/a	6	48	Blank	Loss	True
462.119	0.3	Lose2	0.6531	0.004	No	3.021	-0.004	2.0	NoResponse	-1	0.294	n/a	6	48	ButtonPress	Loss	True
462.527	1.45	Lose2	0.6531	n/a	No	3.021	n/a	5.0	NoResponse	-1	0.029	461.556	6	48	Feedback	Loss	True
463.981	3.021	Lose2	0.6531	n/a	No	3.021	n/a	n/a	NoResponse	-1	0.0	n/a	6	48	ISIslide	Loss	True
467.024	0.25	Control	0.64	0.0	No	2.876	0.024	n/a	LatePress	0	n/a	n/a	6	49	Cue	Neutral	True
467.275	4.0	Control	0.64	0.0	No	2.876	0.001	n/a	LatePress	0	n/a	n/a	6	49	Fixation	Neutral	True
471.27	0.27	Control	0.64	0.004	No	2.876	-0.004	2.0	LatePress	0	0.278	470.548	6	49	Target	Neutral	True
471.548	0.3	Control	0.64	0.004	No	2.876	-0.004	2.0	LatePress	0	0.278	n/a	6	49	ButtonPress	Neutral	True
471.554	0.43	Control	0.64	n/a	No	2.876	n/a	n/a	LatePress	0	n/a	n/a	6	49	Blank	Neutral	True
471.972	1.45	Control	0.64	n/a	No	2.876	n/a	5.0	LatePress	0	0.047	471.019	6	49	Feedback	Neutral	True
473.426	2.876	Control	0.64	n/a	No	2.876	n/a	n/a	LatePress	0	0.0	n/a	6	49	ISIslide	Neutral	True
476.318	0.25	Control	0.6470999999999999	0.0	Yes	2.782	0.018	n/a	GoodResponse	0	n/a	n/a	6	50	Cue	Neutral	True
476.569	4.0	Control	0.6470999999999999	0.0	Yes	2.782	0.001	n/a	GoodResponse	0	n/a	n/a	6	50	Fixation	Neutral	True
480.564	0.28	Control	0.6470999999999999	0.004	Yes	2.782	-0.004	2.0	GoodResponse	0	0.22	479.784	6	50	Target	Neutral	True
480.784	0.3	Control	0.6470999999999999	0.004	Yes	2.782	-0.004	2.0	GoodResponse	0	0.22	n/a	6	50	ButtonPress	Neutral	True
480.849	0.42	Control	0.6470999999999999	n/a	Yes	2.782	n/a	n/a	GoodResponse	0	n/a	n/a	6	50	Blank	Neutral	True
481.266	1.45	Control	0.6470999999999999	n/a	Yes	2.782	n/a	5.0	GoodResponse	0	0.022	480.288	6	50	Feedback	Neutral	True
482.721	2.782	Control	0.6470999999999999	n/a	Yes	2.782	n/a	n/a	GoodResponse	0	0.0	n/a	6	50	ISIslide	Neutral	True
485.529	0.25	Control	0.6537999999999999	0.0	Yes	2.721	0.029	n/a	GoodResponse	0	n/a	n/a	6	51	Cue	Neutral	True
485.78	3.95	Control	0.6537999999999999	0.0	Yes	2.721	0.001	n/a	GoodResponse	0	n/a	n/a	6	51	Fixation	Neutral	True
489.725	0.29	Control	0.6537999999999999	0.004	Yes	2.721	-0.004	2.0	GoodResponse	0	0.219	488.944	6	51	Target	Neutral	True
489.944	0.3	Control	0.6537999999999999	0.004	Yes	2.721	-0.004	2.0	GoodResponse	0	0.219	n/a	6	51	ButtonPress	Neutral	True
490.026	0.41	Control	0.6537999999999999	n/a	Yes	2.721	n/a	n/a	GoodResponse	0	n/a	n/a	6	51	Blank	Neutral	True
490.427	1.45	Control	0.6537999999999999	n/a	Yes	2.721	n/a	5.0	GoodResponse	0	0.032	489.459	6	51	Feedback	Neutral	True
491.882	2.721	Control	0.6537999999999999	n/a	Yes	2.721	n/a	n/a	GoodResponse	0	0.0	n/a	6	51	ISIslide	Neutral	True
494.623	0.25	Control	0.6604000000000001	0.0	Yes	2.627	0.023	n/a	GoodResponse	0	n/a	n/a	6	52	Cue	Neutral	True
494.874	4.05	Control	0.6604000000000001	0.0	Yes	2.627	0.001	n/a	GoodResponse	0	n/a	n/a	6	52	Fixation	Neutral	True
498.919	0.3	Control	0.6604000000000001	0.004	Yes	2.627	-0.004	2.0	GoodResponse	0	0.226	498.145	6	52	Target	Neutral	True
499.145	0.3	Control	0.6604000000000001	0.004	Yes	2.627	-0.004	2.0	GoodResponse	0	0.226	n/a	6	52	ButtonPress	Neutral	True
499.22	0.4	Control	0.6604000000000001	n/a	Yes	2.627	n/a	n/a	GoodResponse	0	n/a	n/a	6	52	Blank	Neutral	True
499.621	1.45	Control	0.6604000000000001	n/a	Yes	2.627	n/a	5.0	GoodResponse	0	0.008	498.629	6	52	Feedback	Neutral	True
501.076	2.627	Control	0.6604000000000001	n/a	Yes	2.627	n/a	n/a	GoodResponse	0	0.0	n/a	6	52	ISIslide	Neutral	True
503.717	0.25	Win2	0.6667000000000001	0.0	Yes	2.933	0.017	n/a	GoodResponse	1	n/a	n/a	7	53	Cue	Win	True
503.968	4.05	Win2	0.6667000000000001	0.0	Yes	2.933	0.001	n/a	GoodResponse	1	n/a	n/a	7	53	Fixation	Win	True
508.013	0.3	Win2	0.6667000000000001	0.004	Yes	2.933	-0.004	2.0	GoodResponse	1	0.204	507.217	7	53	Target	Win	True
508.217	0.3	Win2	0.6667000000000001	0.004	Yes	2.933	-0.004	2.0	GoodResponse	1	0.204	n/a	7	53	ButtonPress	Win	True
508.314	0.4	Win2	0.6667000000000001	n/a	Yes	2.933	n/a	n/a	GoodResponse	1	n/a	n/a	7	53	Blank	Win	True
508.715	1.45	Win2	0.6667000000000001	n/a	Yes	2.933	n/a	5.0	GoodResponse	1	0.036	507.751	7	53	Feedback	Win	True
510.17	2.933	Win2	0.6667000000000001	n/a	Yes	2.933	n/a	n/a	GoodResponse	1	0.0	n/a	7	53	ISIslide	Win	True
513.128	0.25	Win2	0.6727	0.001	Yes	2.722	0.028	n/a	GoodResponse	1	n/a	n/a	8	54	Cue	Win	True
513.379	3.95	Win2	0.6727	0.0	Yes	2.722	0.001	n/a	GoodResponse	1	n/a	n/a	8	54	Fixation	Win	True
517.324	0.29	Win2	0.6727	0.004	Yes	2.722	-0.004	2.0	GoodResponse	1	0.201	516.525	8	54	Target	Win	True
517.525	0.3	Win2	0.6727	0.004	Yes	2.722	-0.004	2.0	GoodResponse	1	0.201	n/a	8	54	ButtonPress	Win	True
517.625	0.41	Win2	0.6727	n/a	Yes	2.722	n/a	n/a	GoodResponse	1	n/a	n/a	8	54	Blank	Win	True
518.026	1.45	Win2	0.6727	n/a	Yes	2.722	n/a	5.0	GoodResponse	1	0.042	517.068	8	54	Feedback	Win	True
519.481	2.722	Win2	0.6727	n/a	Yes	2.722	n/a	n/a	GoodResponse	1	0.0	n/a	8	54	ISIslide	Win	True
522.222	0.25	Control	0.6786	0.0	Yes	3.028	0.022	n/a	GoodResponse	0	n/a	n/a	8	55	Cue	Neutral	True
522.473	3.95	Control	0.6786	0.0	Yes	3.028	0.001	n/a	GoodResponse	0	n/a	n/a	8	55	Fixation	Neutral	True
526.418	0.28	Control	0.6786	0.004	Yes	3.028	-0.004	2.0	GoodResponse	0	0.191	525.609	8	55	Target	Neutral	True
526.609	0.3	Control	0.6786	0.004	Yes	3.028	-0.004	2.0	GoodResponse	0	0.191	n/a	8	55	ButtonPress	Neutral	True
526.702	0.42	Control	0.6786	n/a	Yes	3.028	n/a	n/a	GoodResponse	0	n/a	n/a	8	55	Blank	Neutral	True
527.12	1.45	Control	0.6786	n/a	Yes	3.028	n/a	5.0	GoodResponse	0	0.021	526.141	8	55	Feedback	Neutral	True
528.575	3.028	Control	0.6786	n/a	Yes	3.028	n/a	n/a	GoodResponse	0	0.0	n/a	8	55	ISIslide	Neutral	True
531.617	0.25	Control	0.6842	0.0	Yes	2.833	0.017	n/a	GoodResponse	0	n/a	n/a	8	56	Cue	Neutral	True
531.868	3.95	Control	0.6842	0.0	Yes	2.833	0.001	n/a	GoodResponse	0	n/a	n/a	8	56	Fixation	Neutral	True
535.813	0.27	Control	0.6842	0.004	Yes	2.833	-0.004	2.0	GoodResponse	0	0.219	535.032	8	56	Target	Neutral	True
536.032	0.3	Control	0.6842	0.004	Yes	2.833	-0.004	2.0	GoodResponse	0	0.219	n/a	8	56	ButtonPress	Neutral	True
536.097	0.43	Control	0.6842	n/a	Yes	2.833	n/a	n/a	GoodResponse	0	n/a	n/a	8	56	Blank	Neutral	True
536.515	1.45	Control	0.6842	n/a	Yes	2.833	n/a	5.0	GoodResponse	0	0.041	535.556	8	56	Feedback	Neutral	True
537.969	2.833	Control	0.6842	n/a	Yes	2.833	n/a	n/a	GoodResponse	0	0.0	n/a	8	56	ISIslide	Neutral	True
540.828	0.25	Control	0.6897	0.0	Yes	3.472	0.028	n/a	GoodResponse	0	n/a	n/a	8	57	Cue	Neutral	True
541.079	4.0	Control	0.6897	0.0	Yes	3.472	0.001	n/a	GoodResponse	0	n/a	n/a	8	57	Fixation	Neutral	True
545.074	0.26	Control	0.6897	0.004	Yes	3.472	-0.004	2.0	GoodResponse	0	0.251	544.325	8	57	Target	Neutral	True
545.325	0.3	Control	0.6897	0.004	Yes	3.472	-0.004	2.0	GoodResponse	0	0.251	n/a	8	57	ButtonPress	Neutral	True
545.342	0.44	Control	0.6897	n/a	Yes	3.472	n/a	n/a	GoodResponse	0	n/a	n/a	8	57	Blank	Neutral	True
545.776	1.45	Control	0.6897	n/a	Yes	3.472	n/a	5.0	GoodResponse	0	0.048	544.824	8	57	Feedback	Neutral	True
547.231	3.472	Control	0.6897	n/a	Yes	3.472	n/a	n/a	GoodResponse	0	0.0	n/a	8	57	ISIslide	Neutral	True
550.724	0.25	Win2	0.6949	0.0	Yes	2.726	0.024	n/a	GoodResponse	1	n/a	n/a	9	58	Cue	Win	True
550.975	4.05	Win2	0.6949	0.0	Yes	2.726	0.001	n/a	GoodResponse	1	n/a	n/a	9	58	Fixation	Win	True
555.021	0.25	Win2	0.6949	0.003	Yes	2.726	-0.003	2.0	GoodResponse	1	0.216	554.237	9	58	Target	Win	True
555.237	0.3	Win2	0.6949	0.003	Yes	2.726	-0.003	2.0	GoodResponse	1	0.216	n/a	9	58	ButtonPress	Win	True
555.271	0.45	Win2	0.6949	n/a	Yes	2.726	n/a	n/a	GoodResponse	1	n/a	n/a	9	58	Blank	Win	True
555.723	1.45	Win2	0.6949	n/a	Yes	2.726	n/a	5.0	GoodResponse	1	0.005	554.728	9	58	Feedback	Win	True
557.177	2.726	Win2	0.6949	n/a	Yes	2.726	n/a	n/a	GoodResponse	1	0.0	n/a	9	58	ISIslide	Win	True
559.919	0.25	Lose2	0.6833	0.0	No	2.681	0.019	n/a	LatePress	-1	n/a	n/a	8	59	Cue	Loss	True
560.169	4.0	Lose2	0.6833	0.0	No	2.681	0.0	n/a	LatePress	-1	n/a	n/a	8	59	Fixation	Loss	True
564.165	0.24	Lose2	0.6833	0.004	No	2.681	-0.004	2.0	LatePress	-1	0.243	563.408	8	59	Target	Loss	True
564.408	0.3	Lose2	0.6833	0.004	No	2.681	-0.004	2.0	LatePress	-1	0.243	n/a	8	59	ButtonPress	Loss	True
564.415	0.46	Lose2	0.6833	n/a	No	2.681	n/a	n/a	LatePress	-1	n/a	n/a	8	59	Blank	Loss	True
564.867	1.45	Lose2	0.6833	n/a	No	2.681	n/a	5.0	LatePress	-1	0.029	563.896	8	59	Feedback	Loss	True
566.321	2.681	Lose2	0.6833	n/a	No	2.681	n/a	n/a	LatePress	-1	0.0	n/a	8	59	ISIslide	Loss	True
569.029	0.25	Control	0.6720999999999999	0.0	No	2.671	0.029	n/a	NoResponse	0	n/a	n/a	8	60	Cue	Neutral	True
569.28	4.0	Control	0.6720999999999999	0.0	No	2.671	0.001	n/a	NoResponse	0	n/a	n/a	8	60	Fixation	Neutral	True
573.275	0.23	Control	0.6720999999999999	0.004	No	2.671	-0.004	2.0	NoResponse	0	0.248	572.523	8	60	Target	Neutral	True
573.509	0.47	Control	0.6720999999999999	n/a	No	2.671	n/a	n/a	NoResponse	0	n/a	n/a	8	60	Blank	Neutral	True
573.523	0.3	Control	0.6720999999999999	0.004	No	2.671	-0.004	2.0	NoResponse	0	0.248	n/a	8	60	ButtonPress	Neutral	True
573.977	1.45	Control	0.6720999999999999	n/a	No	2.671	n/a	5.0	NoResponse	0	0.041	573.018	8	60	Feedback	Neutral	True
575.432	2.671	Control	0.6720999999999999	n/a	No	2.671	n/a	n/a	NoResponse	0	0.0	n/a	8	60	ISIslide	Neutral	True
578.123	0.25	Lose2	0.6774	0.0	Yes	2.977	0.023	n/a	GoodResponse	0	n/a	n/a	8	61	Cue	AvoidedLoss	False
578.374	4.0	Lose2	0.6774	0.0	Yes	2.977	0.001	2.0	GoodResponse	0	3.185	580.559	8	61	Fixation	AvoidedLoss	False
581.559	0.3	Lose2	0.6774	0.0	Yes	2.977	0.001	2.0	GoodResponse	0	3.185	n/a	8	61	ButtonPress	AvoidedLoss	False
582.369	0.22	Lose2	0.6774	0.004	Yes	2.977	-0.004	2.0	GoodResponse	0	0.212	581.581	8	61	Target	AvoidedLoss	False
582.581	0.3	Lose2	0.6774	0.004	Yes	2.977	-0.004	2.0	GoodResponse	0	0.212	n/a	8	61	ButtonPress	AvoidedLoss	False
582.603	0.48	Lose2	0.6774	n/a	Yes	2.977	n/a	n/a	GoodResponse	0	n/a	n/a	8	61	Blank	AvoidedLoss	False
583.071	1.45	Lose2	0.6774	n/a	Yes	2.977	n/a	5.0	GoodResponse	0	0.021	582.092	8	61	Feedback	AvoidedLoss	False
584.526	2.977	Lose2	0.6774	n/a	Yes	2.977	n/a	n/a	GoodResponse	0	0.0	n/a	8	61	ISIslide	AvoidedLoss	False
587.518	0.25	Lose2	0.6825	0.0	Yes	2.882	0.018	n/a	GoodResponse	0	n/a	n/a	8	62	Cue	AvoidedLoss	True
587.769	3.9	Lose2	0.6825	0.0	Yes	2.882	0.001	n/a	GoodResponse	0	n/a	n/a	8	62	Fixation	AvoidedLoss	True
591.664	0.21	Lose2	0.6825	0.004	Yes	2.882	-0.004	2.0	GoodResponse	0	0.205	590.869	8	62	Target	AvoidedLoss	True
591.869	0.3	Lose2	0.6825	0.004	Yes	2.882	-0.004	2.0	GoodResponse	0	0.205	n/a	8	62	ButtonPress	AvoidedLoss	True
591.881	0.49	Lose2	0.6825	n/a	Yes	2.882	n/a	n/a	GoodResponse	0	n/a	n/a	8	62	Blank	AvoidedLoss	True
592.366	1.45	Lose2	0.6825	n/a	Yes	2.882	n/a	5.0	GoodResponse	0	0.043	591.409	8	62	Feedback	AvoidedLoss	True
593.82	2.882	Lose2	0.6825	n/a	Yes	2.882	n/a	n/a	GoodResponse	0	0.0	n/a	8	62	ISIslide	AvoidedLoss	True
596.729	0.25	Lose2	0.6718999999999999	0.0	No	2.621	0.029	n/a	NoResponse	-1	n/a	n/a	7	63	Cue	Loss	True
596.979	4.05	Lose2	0.6718999999999999	0.001	No	2.621	0.0	n/a	NoResponse	-1	n/a	n/a	7	63	Fixation	Loss	True
601.025	0.2	Lose2	0.6718999999999999	0.004	No	2.621	-0.004	2.0	NoResponse	-1	0.212	600.237	7	63	Target	Loss	True
601.226	0.5	Lose2	0.6718999999999999	n/a	No	2.621	n/a	n/a	NoResponse	-1	n/a	n/a	7	63	Blank	Loss	True
601.237	0.3	Lose2	0.6718999999999999	0.004	No	2.621	-0.004	2.0	NoResponse	-1	0.212	n/a	7	63	ButtonPress	Loss	True
601.727	1.45	Lose2	0.6718999999999999	n/a	No	2.621	n/a	5.0	NoResponse	-1	0.048	600.775	7	63	Feedback	Loss	True
603.181	2.621	Lose2	0.6718999999999999	n/a	No	2.621	n/a	n/a	NoResponse	-1	0.0	n/a	7	63	ISIslide	Loss	True
605.823	0.25	Win2	0.6615000000000001	0.0	No	3.127	0.023	n/a	NoResponse	0	n/a	n/a	7	64	Cue	MissedWin	True
606.073	4.15	Win2	0.6615000000000001	0.0	No	3.127	0.0	n/a	NoResponse	0	n/a	n/a	7	64	Fixation	MissedWin	True
610.219	0.19	Win2	0.6615000000000001	0.004	No	3.127	-0.004	2.0	NoResponse	0	0.209	609.428	7	64	Target	MissedWin	True
610.42	0.51	Win2	0.6615000000000001	n/a	No	3.127	n/a	n/a	NoResponse	0	n/a	n/a	7	64	Blank	MissedWin	True
610.428	0.3	Win2	0.6615000000000001	0.004	No	3.127	-0.004	2.0	NoResponse	0	0.209	n/a	7	64	ButtonPress	MissedWin	True
610.921	1.45	Win2	0.6615000000000001	n/a	No	3.127	n/a	5.0	NoResponse	0	0.025	609.946	7	64	Feedback	MissedWin	True
612.376	3.127	Win2	0.6615000000000001	n/a	No	3.127	n/a	n/a	NoResponse	0	0.0	n/a	7	64	ISIslide	MissedWin	True
615.518	0.25	Control	0.6515000000000001	0.0	No	2.782	0.018	n/a	NoResponse	0	n/a	n/a	7	65	Cue	Neutral	True
615.769	4.0	Control	0.6515000000000001	0.0	No	2.782	0.001	n/a	NoResponse	0	n/a	n/a	7	65	Fixation	Neutral	True
619.764	0.19	Control	0.6515000000000001	0.004	No	2.782	-0.004	2.0	NoResponse	0	0.21	618.974	7	65	Target	Neutral	True
619.965	0.51	Control	0.6515000000000001	n/a	No	2.782	n/a	n/a	NoResponse	0	n/a	n/a	7	65	Blank	Neutral	True
619.974	0.3	Control	0.6515000000000001	0.004	No	2.782	-0.004	2.0	NoResponse	0	0.21	n/a	7	65	ButtonPress	Neutral	True
620.466	1.45	Control	0.6515000000000001	n/a	No	2.782	n/a	5.0	NoResponse	0	0.04	619.506	7	65	Feedback	Neutral	True
621.921	2.782	Control	0.6515000000000001	n/a	No	2.782	n/a	n/a	NoResponse	0	0.0	n/a	7	65	ISIslide	Neutral	True
624.729	0.25	Win2	0.6567000000000001	0.0	Yes	2.771	0.029	n/a	GoodResponse	1	n/a	n/a	8	66	Cue	Win	True
624.98	3.9	Win2	0.6567000000000001	0.0	Yes	2.771	0.001	n/a	GoodResponse	1	n/a	n/a	8	66	Fixation	Win	True
628.875	0.2	Win2	0.6567000000000001	0.004	Yes	2.771	-0.004	2.0	GoodResponse	1	0.19	628.065	8	66	Target	Win	True
629.065	0.3	Win2	0.6567000000000001	0.004	Yes	2.771	-0.004	2.0	GoodResponse	1	0.19	n/a	8	66	ButtonPress	Win	True
629.076	0.5	Win2	0.6567000000000001	n/a	Yes	2.771	n/a	n/a	GoodResponse	1	n/a	n/a	8	66	Blank	Win	True
629.577	1.45	Win2	0.6567000000000001	n/a	Yes	2.771	n/a	5.0	GoodResponse	1	0.008	628.585	8	66	Feedback	Win	True
631.031	2.771	Win2	0.6567000000000001	n/a	Yes	2.771	n/a	n/a	GoodResponse	1	0.0	n/a	8	66	ISIslide	Win	True
633.823	0.25	Control	0.6470999999999999	0.0	No	2.727	0.023	n/a	NoResponse	0	n/a	n/a	8	67	Cue	Neutral	True
634.074	3.95	Control	0.6470999999999999	0.0	No	2.727	0.001	n/a	NoResponse	0	n/a	n/a	8	67	Fixation	Neutral	True
638.019	0.2	Control	0.6470999999999999	0.004	No	2.727	-0.004	2.0	NoResponse	0	0.204	637.223	8	67	Target	Neutral	True
638.22	0.5	Control	0.6470999999999999	n/a	No	2.727	n/a	n/a	NoResponse	0	n/a	n/a	8	67	Blank	Neutral	True
638.223	0.3	Control	0.6470999999999999	0.004	No	2.727	-0.004	2.0	NoResponse	0	0.204	n/a	8	67	ButtonPress	Neutral	True
638.721	1.45	Control	0.6470999999999999	n/a	No	2.727	n/a	5.0	NoResponse	0	0.029	637.75	8	67	Feedback	Neutral	True
640.175	2.727	Control	0.6470999999999999	n/a	No	2.727	n/a	n/a	NoResponse	0	0.0	n/a	8	67	ISIslide	Neutral	True
642.917	0.25	Win2	0.6522	0.0	Yes	3.083	0.017	n/a	GoodResponse	1	n/a	n/a	9	68	Cue	Win	True
643.168	4.0	Win2	0.6522	0.0	Yes	3.083	0.001	n/a	GoodResponse	1	n/a	n/a	9	68	Fixation	Win	True
647.163	0.21	Win2	0.6522	0.004	Yes	3.083	-0.004	2.0	GoodResponse	1	0.206	646.369	9	68	Target	Win	True
647.369	0.3	Win2	0.6522	0.004	Yes	3.083	-0.004	2.0	GoodResponse	1	0.206	n/a	9	68	ButtonPress	Win	True
647.38	0.49	Win2	0.6522	n/a	Yes	3.083	n/a	n/a	GoodResponse	1	n/a	n/a	9	68	Blank	Win	True
647.865	1.45	Win2	0.6522	n/a	Yes	3.083	n/a	5.0	GoodResponse	1	0.007	646.872	9	68	Feedback	Win	True
649.319	3.083	Win2	0.6522	n/a	Yes	3.083	n/a	n/a	GoodResponse	1	0.0	n/a	9	68	ISIslide	Win	True
652.429	0.25	Win2	0.6570999999999999	0.0	Yes	3.221	0.029	n/a	GoodResponse	1	n/a	n/a	10	69	Cue	Win	True
652.68	3.95	Win2	0.6570999999999999	0.0	Yes	3.221	0.001	n/a	GoodResponse	1	n/a	n/a	10	69	Fixation	Win	True
656.625	0.22	Win2	0.6570999999999999	0.004	Yes	3.221	-0.004	2.0	GoodResponse	1	0.198	655.823	10	69	Target	Win	True
656.823	0.3	Win2	0.6570999999999999	0.004	Yes	3.221	-0.004	2.0	GoodResponse	1	0.198	n/a	10	69	ButtonPress	Win	True
656.859	0.48	Win2	0.6570999999999999	n/a	Yes	3.221	n/a	n/a	GoodResponse	1	n/a	n/a	10	69	Blank	Win	True
657.327	1.45	Win2	0.6570999999999999	n/a	Yes	3.221	n/a	5.0	GoodResponse	1	0.008	656.335	10	69	Feedback	Win	True
658.781	3.221	Win2	0.6570999999999999	n/a	Yes	3.221	n/a	n/a	GoodResponse	1	0.0	n/a	10	69	ISIslide	Win	True
662.024	0.25	Lose2	0.6479	0.0	No	3.026	0.024	n/a	LatePress	-1	n/a	n/a	9	70	Cue	Loss	True
662.275	4.05	Lose2	0.6479	0.0	No	3.026	0.001	n/a	LatePress	-1	n/a	n/a	9	70	Fixation	Loss	True
666.32	0.22	Lose2	0.6479	0.004	No	3.026	-0.004	2.0	LatePress	-1	0.222	665.542	9	70	Target	Loss	True
666.542	0.3	Lose2	0.6479	0.004	No	3.026	-0.004	2.0	LatePress	-1	0.222	n/a	9	70	ButtonPress	Loss	True
666.554	0.48	Lose2	0.6479	n/a	No	3.026	n/a	n/a	LatePress	-1	n/a	n/a	9	70	Blank	Loss	True
667.022	1.45	Lose2	0.6479	n/a	No	3.026	n/a	5.0	LatePress	-1	0.02	666.042	9	70	Feedback	Loss	True
668.477	3.026	Lose2	0.6479	n/a	No	3.026	n/a	n/a	LatePress	-1	0.0	n/a	9	70	ISIslide	Loss	True
671.519	0.25	Win2	0.6528	0.0	Yes	2.731	0.019	n/a	GoodResponse	1	n/a	n/a	10	71	Cue	Win	True
671.77	4.05	Win2	0.6528	0.0	Yes	2.731	0.001	n/a	GoodResponse	1	n/a	n/a	10	71	Fixation	Win	True
675.815	0.23	Win2	0.6528	0.004	Yes	2.731	-0.004	2.0	GoodResponse	1	0.195	675.01	10	71	Target	Win	True
676.01	0.3	Win2	0.6528	0.004	Yes	2.731	-0.004	2.0	GoodResponse	1	0.195	n/a	10	71	ButtonPress	Win	True
676.049	0.47	Win2	0.6528	n/a	Yes	2.731	n/a	n/a	GoodResponse	1	n/a	n/a	10	71	Blank	Win	True
676.518	1.45	Win2	0.6528	n/a	Yes	2.731	n/a	5.0	GoodResponse	1	0.036	675.554	10	71	Feedback	Win	True
677.972	2.731	Win2	0.6528	n/a	Yes	2.731	n/a	n/a	GoodResponse	1	0.0	n/a	10	71	ISIslide	Win	True
680.73	0.25	Win2	0.6575	0.0	Yes	2.77	0.03	n/a	GoodResponse	1	n/a	n/a	11	72	Cue	Win	True
680.981	4.1	Win2	0.6575	0.0	Yes	2.77	0.001	n/a	GoodResponse	1	n/a	n/a	11	72	Fixation	Win	True
685.076	0.24	Win2	0.6575	0.004	Yes	2.77	-0.004	2.0	GoodResponse	1	0.208	684.284	11	72	Target	Win	True
685.284	0.3	Win2	0.6575	0.004	Yes	2.77	-0.004	2.0	GoodResponse	1	0.208	n/a	11	72	ButtonPress	Win	True
685.327	0.46	Win2	0.6575	n/a	Yes	2.77	n/a	n/a	GoodResponse	1	n/a	n/a	11	72	Blank	Win	True
685.779	1.45	Win2	0.6575	n/a	Yes	2.77	n/a	5.0	GoodResponse	1	0.044	684.823	11	72	Feedback	Win	True
687.233	2.77	Win2	0.6575	n/a	Yes	2.77	n/a	n/a	GoodResponse	1	0.0	n/a	11	72	ISIslide	Win	True
690.025	0.25	Win2	0.6486	0.0	No	2.675	0.025	n/a	NoResponse	0	n/a	n/a	11	73	Cue	MissedWin	True
690.275	4.0	Win2	0.6486	0.0	No	2.675	0.0	n/a	NoResponse	0	n/a	n/a	11	73	Fixation	MissedWin	True
694.271	0.24	Win2	0.6486	0.004	No	2.675	-0.004	2.0	NoResponse	0	0.366	693.637	11	73	Target	MissedWin	True
694.521	0.46	Win2	0.6486	n/a	No	2.675	n/a	n/a	NoResponse	0	n/a	n/a	11	73	Blank	MissedWin	True
694.637	0.3	Win2	0.6486	0.004	No	2.675	-0.004	2.0	NoResponse	0	0.366	n/a	11	73	ButtonPress	MissedWin	True
694.973	1.45	Win2	0.6486	n/a	No	2.675	n/a	5.0	NoResponse	0	0.02	693.993	11	73	Feedback	MissedWin	True
696.427	2.675	Win2	0.6486	n/a	No	2.675	n/a	n/a	NoResponse	0	0.0	n/a	11	73	ISIslide	MissedWin	True
699.119	0.25	Lose2	0.6533	0.0	Yes	2.631	0.019	n/a	GoodResponse	0	n/a	n/a	11	74	Cue	AvoidedLoss	True
699.369	4.05	Lose2	0.6533	0.0	Yes	2.631	0.0	n/a	GoodResponse	0	n/a	n/a	11	74	Fixation	AvoidedLoss	True
703.415	0.25	Lose2	0.6533	0.004	Yes	2.631	-0.004	2.0	GoodResponse	0	0.197	702.612	11	74	Target	AvoidedLoss	True
703.612	0.3	Lose2	0.6533	0.004	Yes	2.631	-0.004	2.0	GoodResponse	0	0.197	n/a	11	74	ButtonPress	AvoidedLoss	True
703.665	0.45	Lose2	0.6533	n/a	Yes	2.631	n/a	n/a	GoodResponse	0	n/a	n/a	11	74	Blank	AvoidedLoss	True
704.117	1.45	Lose2	0.6533	n/a	Yes	2.631	n/a	5.0	GoodResponse	0	0.047	703.164	11	74	Feedback	AvoidedLoss	True
705.571	2.631	Lose2	0.6533	n/a	Yes	2.631	n/a	n/a	GoodResponse	0	0.0	n/a	11	74	ISIslide	AvoidedLoss	True
708.229	0.25	Lose2	0.6579	0.0	Yes	2.921	0.029	n/a	GoodResponse	0	n/a	n/a	11	75	Cue	AvoidedLoss	True
708.48	3.95	Lose2	0.6579	0.0	Yes	2.921	0.001	n/a	GoodResponse	0	n/a	n/a	11	75	Fixation	AvoidedLoss	True
712.425	0.26	Lose2	0.6579	0.004	Yes	2.921	-0.004	2.0	GoodResponse	0	0.249	711.674	11	75	Target	AvoidedLoss	True
712.674	0.3	Lose2	0.6579	0.004	Yes	2.921	-0.004	2.0	GoodResponse	0	0.249	n/a	11	75	ButtonPress	AvoidedLoss	True
712.693	0.44	Lose2	0.6579	n/a	Yes	2.921	n/a	n/a	GoodResponse	0	n/a	n/a	11	75	Blank	AvoidedLoss	True
713.127	1.45	Lose2	0.6579	n/a	Yes	2.921	n/a	5.0	GoodResponse	0	0.013	712.14	11	75	Feedback	AvoidedLoss	True
714.581	2.921	Lose2	0.6579	n/a	Yes	2.921	n/a	n/a	GoodResponse	0	0.0	n/a	11	75	ISIslide	AvoidedLoss	True
717.524	0.25	Control	0.6623	0.0	Yes	3.226	0.024	n/a	GoodResponse	0	n/a	n/a	11	76	Cue	Neutral	True
717.774	4.05	Control	0.6623	0.0	Yes	3.226	0.0	n/a	GoodResponse	0	n/a	n/a	11	76	Fixation	Neutral	True
721.82	0.26	Control	0.6623	0.004	Yes	3.226	-0.004	2.0	GoodResponse	0	0.188	721.008	11	76	Target	Neutral	True
722.008	0.3	Control	0.6623	0.004	Yes	3.226	-0.004	2.0	GoodResponse	0	0.188	n/a	11	76	ButtonPress	Neutral	True
722.087	0.44	Control	0.6623	n/a	Yes	3.226	n/a	n/a	GoodResponse	0	n/a	n/a	11	76	Blank	Neutral	True
722.522	1.45	Control	0.6623	n/a	Yes	3.226	n/a	5.0	GoodResponse	0	0.032	721.554	11	76	Feedback	Neutral	True
723.976	3.226	Control	0.6623	n/a	Yes	3.226	n/a	n/a	GoodResponse	0	0.0	n/a	11	76	ISIslide	Neutral	True
727.219	0.25	Lose2	0.6537999999999999	0.0	No	2.581	0.019	n/a	NoResponse	-1	n/a	n/a	10	77	Cue	Loss	True
727.47	3.95	Lose2	0.6537999999999999	0.0	No	2.581	0.001	n/a	NoResponse	-1	n/a	n/a	10	77	Fixation	Loss	True
731.415	0.26	Lose2	0.6537999999999999	0.004	No	2.581	-0.004	2.0	NoResponse	-1	0.333	730.748	10	77	Target	Loss	True
731.683	0.44	Lose2	0.6537999999999999	n/a	No	2.581	n/a	n/a	NoResponse	-1	n/a	n/a	10	77	Blank	Loss	True
731.748	0.3	Lose2	0.6537999999999999	0.004	No	2.581	-0.004	2.0	NoResponse	-1	0.333	n/a	10	77	ButtonPress	Loss	True
732.117	1.45	Lose2	0.6537999999999999	n/a	No	2.581	n/a	5.0	NoResponse	-1	0.047	731.164	10	77	Feedback	Loss	True
733.572	2.581	Lose2	0.6537999999999999	n/a	No	2.581	n/a	n/a	NoResponse	-1	0.0	n/a	10	77	ISIslide	Loss	True
