onset	duration	cue_type	current_mean_accuracy	duration_error	is_hit	isi_adjusted	onset_delay	response	response_type	reward	rt	rt_time	total_reward	trial_number	trial_phase	trial_type	one_press
11.104	0.25	Control	1.0	0.0	Yes	2.946	0.004	n/a	GoodResponse	0	n/a	n/a	0	0	Cue	Neutral	True
11.355	3.85	Control	1.0	0.0	Yes	2.946	0.001	n/a	GoodResponse	0	n/a	n/a	0	0	Fixation	Neutral	True
15.216	0.4	Control	1.0	0.0	Yes	2.946	0.012	4.0	GoodResponse	0	0.226	14.442	0	0	Target	Neutral	True
15.442	0.3	Control	1.0	0.0	Yes	2.946	0.012	4.0	GoodResponse	0	0.226	n/a	0	0	ButtonPress	Neutral	True
15.601	0.3	Control	1.0	n/a	Yes	2.946	n/a	n/a	GoodResponse	0	n/a	n/a	0	0	Blank	Neutral	True
15.901	1.45	Control	1.0	n/a	Yes	2.946	n/a	5.0	GoodResponse	0	0.025	14.926	0	0	Feedback	Neutral	True
17.356	2.946	Control	1.0	n/a	Yes	2.946	n/a	n/a	GoodResponse	0	0.0	n/a	0	0	ISIslide	Neutral	True
20.331	0.25	Lose2	1.0	0.0	Yes	2.769	0.031	n/a	GoodResponse	0	n/a	n/a	0	1	Cue	AvoidedLoss	True
20.582	4.0	Lose2	1.0	0.0	Yes	2.769	0.001	n/a	GoodResponse	0	n/a	n/a	0	1	Fixation	AvoidedLoss	True
24.577	0.39	Lose2	1.0	0.004	Yes	2.769	-0.004	4.0	GoodResponse	0	0.172	23.749	0	1	Target	AvoidedLoss	True
24.749	0.3	Lose2	1.0	0.004	Yes	2.769	-0.004	4.0	GoodResponse	0	0.172	n/a	0	1	ButtonPress	AvoidedLoss	True
24.979	0.31	Lose2	1.0	n/a	Yes	2.769	n/a	n/a	GoodResponse	0	n/a	n/a	0	1	Blank	AvoidedLoss	True
25.279	1.45	Lose2	1.0	n/a	Yes	2.769	n/a	5.0	GoodResponse	0	0.013	24.292	0	1	Feedback	AvoidedLoss	True
26.734	2.769	Lose2	1.0	n/a	Yes	2.769	n/a	n/a	GoodResponse	0	0.0	n/a	0	1	ISIslide	AvoidedLoss	True
29.525	0.25	Control	1.0	0.001	Yes	2.575	0.025	n/a	GoodResponse	0	n/a	n/a	0	2	Cue	Neutral	True
29.776	4.1	Control	1.0	0.0	Yes	2.575	0.001	n/a	GoodResponse	0	n/a	n/a	0	2	Fixation	Neutral	True
33.872	0.38	Control	1.0	0.003	Yes	2.575	-0.003	4.0	GoodResponse	0	0.275	33.147	0	2	Target	Neutral	True
34.147	0.3	Control	1.0	0.003	Yes	2.575	-0.003	4.0	GoodResponse	0	0.275	n/a	0	2	ButtonPress	Neutral	True
34.256	0.32	Control	1.0	n/a	Yes	2.575	n/a	n/a	GoodResponse	0	n/a	n/a	0	2	Blank	Neutral	True
34.574	1.45	Control	1.0	n/a	Yes	2.575	n/a	5.0	GoodResponse	0	0.035	33.609	0	2	Feedback	Neutral	True
36.028	2.575	Control	1.0	n/a	Yes	2.575	n/a	n/a	GoodResponse	0	0.0	n/a	0	2	ISIslide	Neutral	True
38.619	0.25	Win2	1.0	0.0	Yes	2.831	0.019	n/a	GoodResponse	1	n/a	n/a	1	3	Cue	Win	True
38.87	3.95	Win2	1.0	0.0	Yes	2.831	0.001	n/a	GoodResponse	1	n/a	n/a	1	3	Fixation	Win	True
42.815	0.37	Win2	1.0	0.004	Yes	2.831	-0.004	4.0	GoodResponse	1	0.249	42.064	1	3	Target	Win	True
43.064	0.3	Win2	1.0	0.004	Yes	2.831	-0.004	4.0	GoodResponse	1	0.249	n/a	1	3	ButtonPress	Win	True
43.2	0.33	Win2	1.0	n/a	Yes	2.831	n/a	n/a	GoodResponse	1	n/a	n/a	1	3	Blank	Win	True
43.517	1.45	Win2	1.0	n/a	Yes	2.831	n/a	5.0	GoodResponse	1	0.018	42.535	1	3	Feedback	Win	True
44.972	2.831	Win2	1.0	n/a	Yes	2.831	n/a	n/a	GoodResponse	1	0.0	n/a	1	3	ISIslide	Win	True
47.813	0.25	Win2	1.0	0.0	Yes	3.287	0.013	n/a	GoodResponse	1	n/a	n/a	2	4	Cue	Win	True
48.064	4.0	Win2	1.0	0.0	Yes	3.287	0.001	n/a	GoodResponse	1	n/a	n/a	2	4	Fixation	Win	True
52.059	0.36	Win2	1.0	0.004	Yes	3.287	-0.004	4.0	GoodResponse	1	0.243	51.302	2	4	Target	Win	True
52.302	0.3	Win2	1.0	0.004	Yes	3.287	-0.004	4.0	GoodResponse	1	0.243	n/a	2	4	ButtonPress	Win	True
52.427	0.34	Win2	1.0	n/a	Yes	3.287	n/a	n/a	GoodResponse	1	n/a	n/a	2	4	Blank	Win	True
52.762	1.45	Win2	1.0	n/a	Yes	3.287	n/a	5.0	GoodResponse	1	0.042	51.804	2	4	Feedback	Win	True
54.216	3.287	Win2	1.0	n/a	Yes	3.287	n/a	n/a	GoodResponse	1	0.0	n/a	2	4	ISIslide	Win	True
57.526	0.25	Win2	1.0	0.0	Yes	2.774	0.026	n/a	GoodResponse	1	n/a	n/a	3	5	Cue	Win	True
57.776	4.0	Win2	1.0	0.001	Yes	2.774	0.0	n/a	GoodResponse	1	n/a	n/a	3	5	Fixation	Win	True
61.772	0.35	Win2	1.0	0.004	Yes	2.774	-0.004	4.0	GoodResponse	1	0.222	60.994	3	5	Target	Win	True
61.994	0.3	Win2	1.0	0.004	Yes	2.774	-0.004	4.0	GoodResponse	1	0.222	n/a	3	5	ButtonPress	Win	True
62.123	0.35	Win2	1.0	n/a	Yes	2.774	n/a	n/a	GoodResponse	1	n/a	n/a	3	5	Blank	Win	True
62.474	1.45	Win2	1.0	n/a	Yes	2.774	n/a	5.0	GoodResponse	1	0.037	61.511	3	5	Feedback	Win	True
63.928	2.774	Win2	1.0	n/a	Yes	2.774	n/a	n/a	GoodResponse	1	0.0	n/a	3	5	ISIslide	Win	True
66.72	0.25	Lose2	0.8571	0.0	No	2.73	0.02	n/a	NoResponse	-1	n/a	n/a	2	6	Cue	Loss	False
66.971	3.95	Lose2	0.8571	0.0	No	2.73	0.001	n/a	NoResponse	-1	n/a	n/a	2	6	Fixation	Loss	False
70.916	0.34	Lose2	0.8571	0.004	No	2.73	-0.004	n/a	NoResponse	-1	n/a	n/a	2	6	Target	Loss	False
71.267	0.36	Lose2	0.8571	n/a	No	2.73	n/a	n/a	NoResponse	-1	n/a	n/a	2	6	Blank	Loss	False
71.618	1.45	Lose2	0.8571	n/a	No	2.73	n/a	5.0	NoResponse	-1	0.015	70.633	2	6	Feedback	Loss	False
73.072	2.73	Lose2	0.8571	n/a	No	2.73	n/a	n/a	NoResponse	-1	0.0	n/a	2	6	ISIslide	Loss	False
75.814	0.25	Lose2	0.875	0.0	Yes	4.036	0.014	n/a	GoodResponse	0	n/a	n/a	2	7	Cue	AvoidedLoss	True
76.064	4.05	Lose2	0.875	0.001	Yes	4.036	0.0	n/a	GoodResponse	0	n/a	n/a	2	7	Fixation	AvoidedLoss	True
80.11	0.33	Lose2	0.875	0.004	Yes	4.036	-0.004	4.0	GoodResponse	0	0.248	79.358	2	7	Target	AvoidedLoss	True
80.358	0.3	Lose2	0.875	0.004	Yes	4.036	-0.004	4.0	GoodResponse	0	0.248	n/a	2	7	ButtonPress	AvoidedLoss	True
80.444	0.37	Lose2	0.875	n/a	Yes	4.036	n/a	n/a	GoodResponse	0	n/a	n/a	2	7	Blank	AvoidedLoss	True
80.812	1.45	Lose2	0.875	n/a	Yes	4.036	n/a	5.0	GoodResponse	0	0.04	79.852	2	7	Feedback	AvoidedLoss	True
82.266	4.036	Lose2	0.875	n/a	Yes	4.036	n/a	n/a	GoodResponse	0	0.0	n/a	2	7	ISIslide	AvoidedLoss	True
86.328	0.25	Lose2	0.8889	0.001	Yes	3.022	0.028	n/a	GoodResponse	0	n/a	n/a	2	8	Cue	AvoidedLoss	True
86.579	3.95	Lose2	0.8889	0.0	Yes	3.022	0.001	n/a	GoodResponse	0	n/a	n/a	2	8	Fixation	AvoidedLoss	True
90.524	0.32	Lose2	0.8889	0.004	Yes	3.022	-0.004	4.0	GoodResponse	0	0.201	89.725	2	8	Target	AvoidedLoss	True
90.725	0.3	Lose2	0.8889	0.004	Yes	3.022	-0.004	4.0	GoodResponse	0	0.201	n/a	2	8	ButtonPress	AvoidedLoss	True
90.859	0.38	Lose2	0.8889	n/a	Yes	3.022	n/a	n/a	GoodResponse	0	n/a	n/a	2	8	Blank	AvoidedLoss	True
91.226	1.45	Lose2	0.8889	n/a	Yes	3.022	n/a	5.0	GoodResponse	0	0.016	90.242	2	8	Feedback	AvoidedLoss	True
92.681	3.022	Lose2	0.8889	n/a	Yes	3.022	n/a	n/a	GoodResponse	0	0.0	n/a	2	8	ISIslide	AvoidedLoss	True
95.723	0.25	Lose2	0.9	0.0	Yes	3.127	0.023	n/a	GoodResponse	0	n/a	n/a	2	9	Cue	AvoidedLoss	True
95.974	3.95	Lose2	0.9	0.0	Yes	3.127	0.001	n/a	GoodResponse	0	n/a	n/a	2	9	Fixation	AvoidedLoss	True
99.919	0.31	Lose2	0.9	0.004	Yes	3.127	-0.004	4.0	GoodResponse	0	0.221	99.14	2	9	Target	AvoidedLoss	True
100.14	0.3	Lose2	0.9	0.004	Yes	3.127	-0.004	4.0	GoodResponse	0	0.221	n/a	2	9	ButtonPress	AvoidedLoss	True
100.237	0.39	Lose2	0.9	n/a	Yes	3.127	n/a	n/a	GoodResponse	0	n/a	n/a	2	9	Blank	AvoidedLoss	True
100.621	1.45	Lose2	0.9	n/a	Yes	3.127	n/a	5.0	GoodResponse	0	0.036	99.657	2	9	Feedback	AvoidedLoss	True
102.075	3.127	Lose2	0.9	n/a	Yes	3.127	n/a	n/a	GoodResponse	0	0.0	n/a	2	9	ISIslide	AvoidedLoss	True
105.218	0.25	Control	0.9091	0.0	Yes	3.282	0.018	n/a	GoodResponse	0	n/a	n/a	2	10	Cue	Neutral	True
105.469	4.0	Control	0.9091	0.0	Yes	3.282	0.001	n/a	GoodResponse	0	n/a	n/a	2	10	Fixation	Neutral	True
109.464	0.3	Control	0.9091	0.004	Yes	3.282	-0.004	4.0	GoodResponse	0	0.21	108.674	2	10	Target	Neutral	True
109.674	0.3	Control	0.9091	0.004	Yes	3.282	-0.004	4.0	GoodResponse	0	0.21	n/a	2	10	ButtonPress	Neutral	True
109.765	0.4	Control	0.9091	n/a	Yes	3.282	n/a	n/a	GoodResponse	0	n/a	n/a	2	10	Blank	Neutral	True
110.166	1.45	Control	0.9091	n/a	Yes	3.282	n/a	5.0	GoodResponse	0	0.004	109.17	2	10	Feedback	Neutral	True
111.621	3.282	Control	0.9091	n/a	Yes	3.282	n/a	n/a	GoodResponse	0	0.0	n/a	2	10	ISIslide	Neutral	True
114.914	0.25	Lose2	0.9167000000000001	0.0	Yes	2.736	0.014	n/a	GoodResponse	0	n/a	n/a	2	11	Cue	AvoidedLoss	True
115.165	4.05	Lose2	0.9167000000000001	0.0	Yes	2.736	0.001	n/a	GoodResponse	0	n/a	n/a	2	11	Fixation	AvoidedLoss	True
119.21	0.29	Lose2	0.9167000000000001	0.004	Yes	2.736	-0.004	4.0	GoodResponse	0	0.206	118.416	2	11	Target	AvoidedLoss	True
119.416	0.3	Lose2	0.9167000000000001	0.004	Yes	2.736	-0.004	4.0	GoodResponse	0	0.206	n/a	2	11	ButtonPress	AvoidedLoss	True
119.511	0.41	Lose2	0.9167000000000001	n/a	Yes	2.736	n/a	n/a	GoodResponse	0	n/a	n/a	2	11	Blank	AvoidedLoss	True
119.912	1.45	Lose2	0.9167000000000001	n/a	Yes	2.736	n/a	5.0	GoodResponse	0	0.012	118.924	2	11	Feedback	AvoidedLoss	True
121.366	2.736	Lose2	0.9167000000000001	n/a	Yes	2.736	n/a	n/a	GoodResponse	0	0.0	n/a	2	11	ISIslide	AvoidedLoss	True
124.125	0.25	Control	0.8462000000000001	0.0	No	2.975	0.025	n/a	NoResponse	0	n/a	n/a	2	12	Cue	Neutral	True
124.375	3.9	Control	0.8462000000000001	0.0	No	2.975	0.0	n/a	NoResponse	0	n/a	n/a	2	12	Fixation	Neutral	True
128.287	0.28	Control	0.8462000000000001	0.0	No	2.975	0.012	4.0	NoResponse	0	0.287	127.574	2	12	Target	Neutral	True
128.555	0.42	Control	0.8462000000000001	n/a	No	2.975	n/a	n/a	NoResponse	0	n/a	n/a	2	12	Blank	Neutral	True
128.574	0.3	Control	0.8462000000000001	0.0	No	2.975	0.012	4.0	NoResponse	0	0.287	n/a	2	12	ButtonPress	Neutral	True
128.972	1.45	Control	0.8462000000000001	n/a	No	2.975	n/a	5.0	NoResponse	0	0.025	127.997	2	12	Feedback	Neutral	True
130.427	2.975	Control	0.8462000000000001	n/a	No	2.975	n/a	n/a	NoResponse	0	0.0	n/a	2	12	ISIslide	Neutral	True
133.419	0.25	Control	0.7857	0.0	No	2.781	0.019	n/a	NoResponse	0	n/a	n/a	2	13	Cue	Neutral	True
133.67	4.0	Control	0.7857	0.0	No	2.781	0.001	n/a	NoResponse	0	n/a	n/a	2	13	Fixation	Neutral	True
137.665	0.27	Control	0.7857	0.004	No	2.781	-0.004	4.0	NoResponse	0	0.36	137.025	2	13	Target	Neutral	True
137.949	0.43	Control	0.7857	n/a	No	2.781	n/a	n/a	NoResponse	0	n/a	n/a	2	13	Blank	Neutral	True
138.025	0.3	Control	0.7857	0.004	No	2.781	-0.004	4.0	NoResponse	0	0.36	n/a	2	13	ButtonPress	Neutral	True
138.367	1.45	Control	0.7857	n/a	No	2.781	n/a	5.0	NoResponse	0	0.045	137.412	2	13	Feedback	Neutral	True
139.822	2.781	Control	0.7857	n/a	No	2.781	n/a	n/a	NoResponse	0	0.0	n/a	2	13	ISIslide	Neutral	True
142.63	0.25	Win2	0.8	0.0	Yes	2.67	0.03	n/a	GoodResponse	1	n/a	n/a	3	14	Cue	Win	True
142.881	4.1	Win2	0.8	0.0	Yes	2.67	0.001	n/a	GoodResponse	1	n/a	n/a	3	14	Fixation	Win	True
146.976	0.26	Win2	0.8	0.004	Yes	2.67	-0.004	4.0	GoodResponse	1	0.218	146.194	3	14	Target	Win	True
147.194	0.3	Win2	0.8	0.004	Yes	2.67	-0.004	4.0	GoodResponse	1	0.218	n/a	3	14	ButtonPress	Win	True
147.244	0.44	Win2	0.8	n/a	Yes	2.67	n/a	n/a	GoodResponse	1	n/a	n/a	3	14	Blank	Win	True
147.678	1.45	Win2	0.8	n/a	Yes	2.67	n/a	5.0	GoodResponse	1	0.005	146.683	3	14	Feedback	Win	True
149.133	2.67	Win2	0.8	n/a	Yes	2.67	n/a	n/a	GoodResponse	1	0.0	n/a	3	14	ISIslide	Win	True
151.824	0.25	Control	0.75	0.0	No	2.976	0.024	n/a	NoResponse	0	n/a	n/a	3	15	Cue	Neutral	True
152.075	4.0	Control	0.75	0.0	No	2.976	0.001	n/a	NoResponse	0	n/a	n/a	3	15	Fixation	Neutral	True
156.07	0.25	Control	0.75	0.004	No	2.976	-0.004	4.0	NoResponse	0	0.466	155.536	3	15	Target	Neutral	True
156.321	0.45	Control	0.75	n/a	No	2.976	n/a	n/a	NoResponse	0	n/a	n/a	3	15	Blank	Neutral	True
156.536	0.3	Control	0.75	0.004	No	2.976	-0.004	4.0	NoResponse	0	0.466	n/a	3	15	ButtonPress	Neutral	True
156.772	1.45	Control	0.75	n/a	No	2.976	n/a	5.0	NoResponse	0	0.03	155.802	3	15	Feedback	Neutral	True
158.226	2.976	Control	0.75	n/a	No	2.976	n/a	n/a	NoResponse	0	0.0	n/a	3	15	ISIslide	Neutral	True
161.219	0.25	Win2	0.7059000000000001	0.0	No	2.881	0.019	n/a	NoResponse	0	n/a	n/a	3	16	Cue	MissedWin	True
161.47	4.0	Win2	0.7059000000000001	0.0	No	2.881	0.001	n/a	NoResponse	0	n/a	n/a	3	16	Fixation	MissedWin	True
165.465	0.24	Win2	0.7059000000000001	0.004	No	2.881	-0.004	4.0	NoResponse	0	0.297	164.762	3	16	Target	MissedWin	True
165.716	0.46	Win2	0.7059000000000001	n/a	No	2.881	n/a	n/a	NoResponse	0	n/a	n/a	3	16	Blank	MissedWin	True
165.762	0.3	Win2	0.7059000000000001	0.004	No	2.881	-0.004	4.0	NoResponse	0	0.297	n/a	3	16	ButtonPress	MissedWin	True
166.167	1.45	Win2	0.7059000000000001	n/a	No	2.881	n/a	5.0	NoResponse	0	0.001	165.168	3	16	Feedback	MissedWin	True
167.621	2.881	Win2	0.7059000000000001	n/a	No	2.881	n/a	n/a	NoResponse	0	0.0	n/a	3	16	ISIslide	MissedWin	True
170.513	0.25	Lose2	0.6667000000000001	0.0	No	2.737	0.013	n/a	NoResponse	-1	n/a	n/a	2	17	Cue	Loss	True
170.764	3.95	Lose2	0.6667000000000001	0.0	No	2.737	0.001	n/a	NoResponse	-1	n/a	n/a	2	17	Fixation	Loss	True
174.709	0.23	Lose2	0.6667000000000001	0.004	No	2.737	-0.004	4.0	NoResponse	-1	0.254	173.963	2	17	Target	Loss	True
174.943	0.47	Lose2	0.6667000000000001	n/a	No	2.737	n/a	n/a	NoResponse	-1	n/a	n/a	2	17	Blank	Loss	True
174.963	0.3	Lose2	0.6667000000000001	0.004	No	2.737	-0.004	4.0	NoResponse	-1	0.254	n/a	2	17	ButtonPress	Loss	True
175.411	1.45	Lose2	0.6667000000000001	n/a	No	2.737	n/a	5.0	NoResponse	-1	0.025	174.436	2	17	Feedback	Loss	True
176.865	2.737	Lose2	0.6667000000000001	n/a	No	2.737	n/a	n/a	NoResponse	-1	0.0	n/a	2	17	ISIslide	Loss	True
179.624	0.25	Lose2	0.6315999999999999	0.0	No	2.726	0.024	n/a	NoResponse	-1	n/a	n/a	1	18	Cue	Loss	True
179.874	4.05	Lose2	0.6315999999999999	0.001	No	2.726	0.0	n/a	NoResponse	-1	n/a	n/a	1	18	Fixation	Loss	True
183.92	0.22	Lose2	0.6315999999999999	0.004	No	2.726	-0.004	4.0	NoResponse	-1	0.355	183.275	1	18	Target	Loss	True
184.154	0.48	Lose2	0.6315999999999999	n/a	No	2.726	n/a	n/a	NoResponse	-1	n/a	n/a	1	18	Blank	Loss	True
184.275	0.3	Lose2	0.6315999999999999	0.004	No	2.726	-0.004	4.0	NoResponse	-1	0.355	n/a	1	18	ButtonPress	Loss	True
184.622	1.45	Lose2	0.6315999999999999	n/a	No	2.726	n/a	5.0	NoResponse	-1	0.034	183.656	1	18	Feedback	Loss	True
186.076	2.726	Lose2	0.6315999999999999	n/a	No	2.726	n/a	n/a	NoResponse	-1	0.0	n/a	1	18	ISIslide	Loss	True
188.818	0.25	Control	0.6	0.0	No	2.932	0.018	n/a	NoResponse	0	n/a	n/a	1	19	Cue	Neutral	True
189.069	3.95	Control	0.6	0.0	No	2.932	0.001	n/a	NoResponse	0	n/a	n/a	1	19	Fixation	Neutral	True
193.014	0.23	Control	0.6	0.004	No	2.932	-0.004	4.0	NoResponse	0	0.279	192.293	1	19	Target	Neutral	True
193.248	0.47	Control	0.6	n/a	No	2.932	n/a	n/a	NoResponse	0	n/a	n/a	1	19	Blank	Neutral	True
193.293	0.3	Control	0.6	0.004	No	2.932	-0.004	4.0	NoResponse	0	0.279	n/a	1	19	ButtonPress	Neutral	True
193.716	1.45	Control	0.6	n/a	No	2.932	n/a	5.0	NoResponse	0	0.012	192.728	1	19	Feedback	Neutral	True
195.17	2.932	Control	0.6	n/a	No	2.932	n/a	n/a	NoResponse	0	0.0	n/a	1	19	ISIslide	Neutral	True
198.112	0.25	Control	0.619	0.0	Yes	2.638	0.012	n/a	GoodResponse	0	n/a	n/a	1	20	Cue	Neutral	True
198.363	4.05	Control	0.619	0.0	Yes	2.638	0.001	n/a	GoodResponse	0	n/a	n/a	1	20	Fixation	Neutral	True
202.408	0.24	Control	0.619	0.004	Yes	2.638	-0.004	4.0	GoodResponse	0	0.19	201.598	1	20	Target	Neutral	True
202.598	0.3	Control	0.619	0.004	Yes	2.638	-0.004	4.0	GoodResponse	0	0.19	n/a	1	20	ButtonPress	Neutral	True
202.659	0.46	Control	0.619	n/a	Yes	2.638	n/a	n/a	GoodResponse	0	n/a	n/a	1	20	Blank	Neutral	True
203.111	1.45	Control	0.619	n/a	Yes	2.638	n/a	5.0	GoodResponse	0	0.032	202.143	1	20	Feedback	Neutral	True
204.565	2.638	Control	0.619	n/a	Yes	2.638	n/a	n/a	GoodResponse	0	0.0	n/a	1	20	ISIslide	Neutral	True
207.223	0.25	Control	0.6364	0.0	Yes	2.777	0.023	n/a	GoodResponse	0	n/a	n/a	1	21	Cue	Neutral	True
207.474	4.1	Control	0.6364	0.0	Yes	2.777	0.001	n/a	GoodResponse	0	n/a	n/a	1	21	Fixation	Neutral	True
211.569	0.25	Control	0.6364	0.004	Yes	2.777	-0.004	4.0	GoodResponse	0	0.249	210.818	1	21	Target	Neutral	True
211.818	0.3	Control	0.6364	0.004	Yes	2.777	-0.004	4.0	GoodResponse	0	0.249	n/a	1	21	ButtonPress	Neutral	True
211.82	0.45	Control	0.6364	n/a	Yes	2.777	n/a	n/a	GoodResponse	0	n/a	n/a	1	21	Blank	Neutral	True
212.271	1.45	Control	0.6364	n/a	Yes	2.777	n/a	5.0	GoodResponse	0	0.042	211.313	1	21	Feedback	Neutral	True
213.726	2.777	Control	0.6364	n/a	Yes	2.777	n/a	n/a	GoodResponse	0	0.0	n/a	1	21	ISIslide	Neutral	True
216.517	0.25	Control	0.6522	0.0	Yes	2.783	0.017	n/a	GoodResponse	0	n/a	n/a	1	22	Cue	Neutral	True
216.768	4.0	Control	0.6522	0.0	Yes	2.783	0.001	n/a	GoodResponse	0	n/a	n/a	1	22	Fixation	Neutral	True
220.763	0.26	Control	0.6522	0.004	Yes	2.783	-0.004	4.0	GoodResponse	0	0.197	219.96	1	22	Target	Neutral	True
220.96	0.3	Control	0.6522	0.004	Yes	2.783	-0.004	4.0	GoodResponse	0	0.197	n/a	1	22	ButtonPress	Neutral	True
221.031	0.44	Control	0.6522	n/a	Yes	2.783	n/a	n/a	GoodResponse	0	n/a	n/a	1	22	Blank	Neutral	True
221.465	1.45	Control	0.6522	n/a	Yes	2.783	n/a	5.0	GoodResponse	0	0.019	220.484	1	22	Feedback	Neutral	True
222.92	2.783	Control	0.6522	n/a	Yes	2.783	n/a	n/a	GoodResponse	0	0.0	n/a	1	22	ISIslide	Neutral	True
225.728	0.25	Control	0.625	0.0	No	2.772	0.028	n/a	NoResponse	0	n/a	n/a	1	23	Cue	Neutral	True
225.979	3.9	Control	0.625	0.0	No	2.772	0.001	n/a	NoResponse	0	n/a	n/a	1	23	Fixation	Neutral	True
229.874	0.27	Control	0.625	0.004	No	2.772	-0.004	4.0	NoResponse	0	0.451	229.325	1	23	Target	Neutral	True
230.158	0.43	Control	0.625	n/a	No	2.772	n/a	n/a	NoResponse	0	n/a	n/a	1	23	Blank	Neutral	True
230.325	0.3	Control	0.625	0.004	No	2.772	-0.004	4.0	NoResponse	0	0.451	n/a	1	23	ButtonPress	Neutral	True
230.576	1.45	Control	0.625	n/a	No	2.772	n/a	5.0	NoResponse	0	0.029	229.605	1	23	Feedback	Neutral	True
232.03	2.772	Control	0.625	n/a	No	2.772	n/a	n/a	NoResponse	0	0.0	n/a	1	23	ISIslide	Neutral	True
234.822	0.25	Win2	0.6	0.0	No	3.128	0.022	n/a	NoResponse	0	n/a	n/a	1	24	Cue	MissedWin	True
235.073	3.95	Win2	0.6	0.0	No	3.128	0.001	n/a	NoResponse	0	n/a	n/a	1	24	Fixation	MissedWin	True
239.018	0.28	Win2	0.6	0.004	No	3.128	-0.004	4.0	NoResponse	0	0.436	238.454	1	24	Target	MissedWin	True
239.302	0.42	Win2	0.6	n/a	No	3.128	n/a	n/a	NoResponse	0	n/a	n/a	1	24	Blank	MissedWin	True
239.454	0.3	Win2	0.6	0.004	No	3.128	-0.004	4.0	NoResponse	0	0.436	n/a	1	24	ButtonPress	MissedWin	True
239.72	1.45	Win2	0.6	n/a	No	3.128	n/a	5.0	NoResponse	0	0.007	238.727	1	24	Feedback	MissedWin	True
241.174	3.128	Win2	0.6	n/a	No	3.128	n/a	n/a	NoResponse	0	0.0	n/a	1	24	ISIslide	MissedWin	True
244.317	0.25	Win2	0.6154	0.0	Yes	3.083	0.017	n/a	GoodResponse	1	n/a	n/a	2	25	Cue	Win	True
244.568	4.0	Win2	0.6154	0.0	Yes	3.083	0.001	n/a	GoodResponse	1	n/a	n/a	2	25	Fixation	Win	True
248.563	0.29	Win2	0.6154	0.004	Yes	3.083	-0.004	4.0	GoodResponse	1	0.212	247.775	2	25	Target	Win	True
248.775	0.3	Win2	0.6154	0.004	Yes	3.083	-0.004	4.0	GoodResponse	1	0.212	n/a	2	25	ButtonPress	Win	True
248.864	0.41	Win2	0.6154	n/a	Yes	3.083	n/a	n/a	GoodResponse	1	n/a	n/a	2	25	Blank	Win	True
249.265	1.45	Win2	0.6154	n/a	Yes	3.083	n/a	5.0	GoodResponse	1	0.023	248.288	2	25	Feedback	Win	True
250.719	3.083	Win2	0.6154	n/a	Yes	3.083	n/a	n/a	GoodResponse	1	0.0	n/a	2	25	ISIslide	Win	True
253.829	0.25	Win2	0.6296	0.0	Yes	2.921	0.029	n/a	GoodResponse	1	n/a	n/a	3	26	Cue	Win	True
254.079	3.95	Win2	0.6296	0.0	Yes	2.921	0.0	n/a	GoodResponse	1	n/a	n/a	3	26	Fixation	Win	True
258.025	0.3	Win2	0.6296	0.004	Yes	2.921	-0.004	4.0	GoodResponse	1	0.2	257.225	3	26	Target	Win	True
258.225	0.3	Win2	0.6296	0.004	Yes	2.921	-0.004	4.0	GoodResponse	1	0.2	n/a	3	26	ButtonPress	Win	True
258.325	0.4	Win2	0.6296	n/a	Yes	2.921	n/a	n/a	GoodResponse	1	n/a	n/a	3	26	Blank	Win	True
258.727	1.45	Win2	0.6296	n/a	Yes	2.921	n/a	5.0	GoodResponse	1	0.025	257.752	3	26	Feedback	Win	True
260.181	2.921	Win2	0.6296	n/a	Yes	2.921	n/a	n/a	GoodResponse	1	0.0	n/a	3	26	ISIslide	Win	True
263.123	0.25	Lose2	0.6429	0.0	Yes	2.827	0.023	n/a	GoodResponse	0	n/a	n/a	3	27	Cue	AvoidedLoss	True
263.374	4.05	Lose2	0.6429	0.0	Yes	2.827	0.001	n/a	GoodResponse	0	n/a	n/a	3	27	Fixation	AvoidedLoss	True
267.419	0.31	Lose2	0.6429	0.004	Yes	2.827	-0.004	4.0	GoodResponse	0	0.202	266.621	3	27	Target	AvoidedLoss	True
267.621	0.3	Lose2	0.6429	0.004	Yes	2.827	-0.004	4.0	GoodResponse	0	0.202	n/a	3	27	ButtonPress	AvoidedLoss	True
267.737	0.39	Lose2	0.6429	n/a	Yes	2.827	n/a	n/a	GoodResponse	0	n/a	n/a	3	27	Blank	AvoidedLoss	True
268.121	1.45	Lose2	0.6429	n/a	Yes	2.827	n/a	5.0	GoodResponse	0	0.045	267.166	3	27	Feedback	AvoidedLoss	True
269.576	2.827	Lose2	0.6429	n/a	Yes	2.827	n/a	n/a	GoodResponse	0	0.0	n/a	3	27	ISIslide	AvoidedLoss	True
272.418	0.25	Control	0.6207	0.0	No	2.832	0.018	n/a	NoResponse	0	n/a	n/a	3	28	Cue	Neutral	True
272.668	4.05	Control	0.6207	0.0	No	2.832	0.0	n/a	NoResponse	0	n/a	n/a	3	28	Fixation	Neutral	True
276.714	0.32	Control	0.6207	0.004	No	2.832	-0.004	4.0	NoResponse	0	0.505	276.219	3	28	Target	Neutral	True
277.048	0.38	Control	0.6207	n/a	No	2.832	n/a	n/a	NoResponse	0	n/a	n/a	3	28	Blank	Neutral	True
277.219	0.3	Control	0.6207	0.004	No	2.832	-0.004	4.0	NoResponse	0	0.505	n/a	3	28	ButtonPress	Neutral	True
277.416	1.45	Control	0.6207	n/a	No	2.832	n/a	5.0	NoResponse	0	0.018	276.434	3	28	Feedback	Neutral	True
278.87	2.832	Control	0.6207	n/a	No	2.832	n/a	n/a	NoResponse	0	0.0	n/a	3	28	ISIslide	Neutral	True
281.729	0.25	Lose2	0.6333	0.0	Yes	2.821	0.029	n/a	GoodResponse	0	n/a	n/a	3	29	Cue	AvoidedLoss	True
281.979	3.95	Lose2	0.6333	0.0	Yes	2.821	0.0	n/a	GoodResponse	0	n/a	n/a	3	29	Fixation	AvoidedLoss	True
285.925	0.33	Lose2	0.6333	0.004	Yes	2.821	-0.004	4.0	GoodResponse	0	0.239	285.164	3	29	Target	AvoidedLoss	True
286.164	0.3	Lose2	0.6333	0.004	Yes	2.821	-0.004	4.0	GoodResponse	0	0.239	n/a	3	29	ButtonPress	AvoidedLoss	True
286.259	0.37	Lose2	0.6333	n/a	Yes	2.821	n/a	n/a	GoodResponse	0	n/a	n/a	3	29	Blank	AvoidedLoss	True
286.627	1.45	Lose2	0.6333	n/a	Yes	2.821	n/a	5.0	GoodResponse	0	0.027	285.654	3	29	Feedback	AvoidedLoss	True
288.081	2.821	Lose2	0.6333	n/a	Yes	2.821	n/a	n/a	GoodResponse	0	0.0	n/a	3	29	ISIslide	AvoidedLoss	True
290.923	0.25	Win2	0.6452	0.0	Yes	2.777	0.023	n/a	GoodResponse	1	n/a	n/a	4	30	Cue	Win	True
291.174	3.9	Win2	0.6452	0.0	Yes	2.777	0.001	n/a	GoodResponse	1	n/a	n/a	4	30	Fixation	Win	True
295.068	0.34	Win2	0.6452	0.005	Yes	2.777	-0.005	4.0	GoodResponse	1	0.225	294.293	4	30	Target	Win	True
295.293	0.3	Win2	0.6452	0.005	Yes	2.777	-0.005	4.0	GoodResponse	1	0.225	n/a	4	30	ButtonPress	Win	True
295.42	0.36	Win2	0.6452	n/a	Yes	2.777	n/a	n/a	GoodResponse	1	n/a	n/a	4	30	Blank	Win	True
295.771	1.45	Win2	0.6452	n/a	Yes	2.777	n/a	5.0	GoodResponse	1	0.005	294.776	4	30	Feedback	Win	True
297.225	2.777	Win2	0.6452	n/a	Yes	2.777	n/a	n/a	GoodResponse	1	0.0	n/a	4	30	ISIslide	Win	True
300.017	0.25	Lose2	0.6562	0.0	Yes	2.833	0.017	n/a	GoodResponse	0	n/a	n/a	4	31	Cue	AvoidedLoss	True
300.267	4.05	Lose2	0.6562	0.0	Yes	2.833	0.0	n/a	GoodResponse	0	n/a	n/a	4	31	Fixation	AvoidedLoss	True
304.313	0.35	Lose2	0.6562	0.004	Yes	2.833	-0.004	4.0	GoodResponse	0	0.318	303.631	4	31	Target	AvoidedLoss	True
304.631	0.3	Lose2	0.6562	0.004	Yes	2.833	-0.004	4.0	GoodResponse	0	0.318	n/a	4	31	ButtonPress	AvoidedLoss	True
304.664	0.35	Lose2	0.6562	n/a	Yes	2.833	n/a	n/a	GoodResponse	0	n/a	n/a	4	31	Blank	AvoidedLoss	True
305.015	1.45	Lose2	0.6562	n/a	Yes	2.833	n/a	5.0	GoodResponse	0	0.028	304.043	4	31	Feedback	AvoidedLoss	True
306.469	2.833	Lose2	0.6562	n/a	Yes	2.833	n/a	n/a	GoodResponse	0	0.0	n/a	4	31	ISIslide	AvoidedLoss	True
309.328	0.25	Lose2	0.6364	0.0	No	2.622	0.028	n/a	NoResponse	-1	n/a	n/a	3	32	Cue	Loss	True
309.578	4.15	Lose2	0.6364	0.001	No	2.622	0.0	n/a	NoResponse	-1	n/a	n/a	3	32	Fixation	Loss	True
313.724	0.35	Lose2	0.6364	0.004	No	2.622	-0.004	4.0	NoResponse	-1	0.422	313.146	3	32	Target	Loss	True
314.075	0.35	Lose2	0.6364	n/a	No	2.622	n/a	n/a	NoResponse	-1	n/a	n/a	3	32	Blank	Loss	True
314.146	0.3	Lose2	0.6364	0.004	No	2.622	-0.004	4.0	NoResponse	-1	0.422	n/a	3	32	ButtonPress	Loss	True
314.426	1.45	Lose2	0.6364	n/a	No	2.622	n/a	5.0	NoResponse	-1	0.032	313.458	3	32	Feedback	Loss	True
315.881	2.622	Lose2	0.6364	n/a	No	2.622	n/a	n/a	NoResponse	-1	0.0	n/a	3	32	ISIslide	Loss	True
318.522	0.25	Win2	0.6470999999999999	0.0	Yes	2.678	0.022	n/a	GoodResponse	1	n/a	n/a	4	33	Cue	Win	True
318.773	4.0	Win2	0.6470999999999999	0.0	Yes	2.678	0.001	n/a	GoodResponse	1	n/a	n/a	4	33	Fixation	Win	True
322.768	0.36	Win2	0.6470999999999999	0.004	Yes	2.678	-0.004	4.0	GoodResponse	1	0.332	322.1	4	33	Target	Win	True
323.1	0.3	Win2	0.6470999999999999	0.004	Yes	2.678	-0.004	4.0	GoodResponse	1	0.332	n/a	4	33	ButtonPress	Win	True
323.136	0.34	Win2	0.6470999999999999	n/a	Yes	2.678	n/a	n/a	GoodResponse	1	n/a	n/a	4	33	Blank	Win	True
323.47	1.45	Win2	0.6470999999999999	n/a	Yes	2.678	n/a	5.0	GoodResponse	1	0.012	322.482	4	33	Feedback	Win	True
324.924	2.678	Win2	0.6470999999999999	n/a	Yes	2.678	n/a	n/a	GoodResponse	1	0.0	n/a	4	33	ISIslide	Win	True
327.616	0.25	Lose2	0.6570999999999999	0.0	Yes	2.634	0.016	n/a	GoodResponse	0	n/a	n/a	4	34	Cue	AvoidedLoss	True
327.866	4.05	Lose2	0.6570999999999999	0.001	Yes	2.634	0.0	n/a	GoodResponse	0	n/a	n/a	4	34	Fixation	AvoidedLoss	True
331.912	0.37	Lose2	0.6570999999999999	0.004	Yes	2.634	-0.004	4.0	GoodResponse	0	0.25	331.162	4	34	Target	AvoidedLoss	True
332.162	0.3	Lose2	0.6570999999999999	0.004	Yes	2.634	-0.004	4.0	GoodResponse	0	0.25	n/a	4	34	ButtonPress	AvoidedLoss	True
332.296	0.33	Lose2	0.6570999999999999	n/a	Yes	2.634	n/a	n/a	GoodResponse	0	n/a	n/a	4	34	Blank	AvoidedLoss	True
332.614	1.45	Lose2	0.6570999999999999	n/a	Yes	2.634	n/a	5.0	GoodResponse	0	0.039	331.653	4	34	Feedback	AvoidedLoss	True
334.068	2.634	Lose2	0.6570999999999999	n/a	Yes	2.634	n/a	n/a	GoodResponse	0	0.0	n/a	4	34	ISIslide	AvoidedLoss	True
336.726	0.25	Lose2	0.6389	0.0	No	2.674	0.026	n/a	NoResponse	-1	n/a	n/a	3	35	Cue	Loss	True
336.977	4.0	Lose2	0.6389	0.0	No	2.674	0.001	n/a	NoResponse	-1	n/a	n/a	3	35	Fixation	Loss	True
340.972	0.37	Lose2	0.6389	0.004	No	2.674	-0.004	4.0	NoResponse	-1	0.545	340.517	3	35	Target	Loss	True
341.357	0.33	Lose2	0.6389	n/a	No	2.674	n/a	n/a	NoResponse	-1	n/a	n/a	3	35	Blank	Loss	True
341.517	0.3	Lose2	0.6389	0.004	No	2.674	-0.004	4.0	NoResponse	-1	0.545	n/a	3	35	ButtonPress	Loss	True
341.674	1.45	Lose2	0.6389	n/a	No	2.674	n/a	5.0	NoResponse	-1	0.004	340.678	3	35	Feedback	Loss	True
343.129	2.674	Lose2	0.6389	n/a	No	2.674	n/a	n/a	NoResponse	-1	0.0	n/a	3	35	ISIslide	Loss	True
345.82	0.25	Control	0.6215999999999999	0.0	No	2.68	0.02	n/a	NoResponse	0	n/a	n/a	3	36	Cue	Neutral	True
346.071	4.0	Control	0.6215999999999999	0.0	No	2.68	0.001	n/a	NoResponse	0	n/a	n/a	3	36	Fixation	Neutral	True
350.066	0.38	Control	0.6215999999999999	0.004	No	2.68	-0.004	4.0	NoResponse	0	0.398	349.464	3	36	Target	Neutral	True
350.451	0.32	Control	0.6215999999999999	n/a	No	2.68	n/a	n/a	NoResponse	0	n/a	n/a	3	36	Blank	Neutral	True
350.464	0.3	Control	0.6215999999999999	0.004	No	2.68	-0.004	4.0	NoResponse	0	0.398	n/a	3	36	ButtonPress	Neutral	True
350.768	1.45	Control	0.6215999999999999	n/a	No	2.68	n/a	5.0	NoResponse	0	0.031	349.799	3	36	Feedback	Neutral	True
352.223	2.68	Control	0.6215999999999999	n/a	No	2.68	n/a	n/a	NoResponse	0	0.0	n/a	3	36	ISIslide	Neutral	True
354.914	0.25	Win2	0.6315999999999999	0.0	Yes	2.886	0.014	n/a	GoodResponse	1	n/a	n/a	4	37	Cue	Win	True
355.165	4.0	Win2	0.6315999999999999	0.0	Yes	2.886	0.001	n/a	GoodResponse	1	n/a	n/a	4	37	Fixation	Win	True
359.16	0.39	Win2	0.6315999999999999	0.004	Yes	2.886	-0.004	4.0	GoodResponse	1	0.274	358.434	4	37	Target	Win	True
359.434	0.3	Win2	0.6315999999999999	0.004	Yes	2.886	-0.004	4.0	GoodResponse	1	0.274	n/a	4	37	ButtonPress	Win	True
359.561	0.31	Win2	0.6315999999999999	n/a	Yes	2.886	n/a	n/a	GoodResponse	1	n/a	n/a	4	37	Blank	Win	True
359.862	1.45	Win2	0.6315999999999999	n/a	Yes	2.886	n/a	5.0	GoodResponse	1	0.01	358.872	4	37	Feedback	Win	True
361.316	2.886	Win2	0.6315999999999999	n/a	Yes	2.886	n/a	n/a	GoodResponse	1	0.0	n/a	4	37	ISIslide	Win	True
364.225	0.25	Lose2	0.6409999999999999	0.0	Yes	2.825	0.025	n/a	GoodResponse	0	n/a	n/a	4	38	Cue	AvoidedLoss	True
364.476	3.95	Lose2	0.6409999999999999	0.0	Yes	2.825	0.001	n/a	GoodResponse	0	n/a	n/a	4	38	Fixation	AvoidedLoss	True
368.421	0.4	Lose2	0.6409999999999999	0.004	Yes	2.825	-0.004	4.0	GoodResponse	0	0.367	367.788	4	38	Target	AvoidedLoss	True
368.788	0.3	Lose2	0.6409999999999999	0.004	Yes	2.825	-0.004	4.0	GoodResponse	0	0.367	n/a	4	38	ButtonPress	AvoidedLoss	True
368.822	0.3	Lose2	0.6409999999999999	n/a	Yes	2.825	n/a	n/a	GoodResponse	0	n/a	n/a	4	38	Blank	AvoidedLoss	True
369.123	1.45	Lose2	0.6409999999999999	n/a	Yes	2.825	n/a	5.0	GoodResponse	0	0.017	368.14	4	38	Feedback	AvoidedLoss	True
370.577	2.825	Lose2	0.6409999999999999	n/a	Yes	2.825	n/a	n/a	GoodResponse	0	0.0	n/a	4	38	ISIslide	AvoidedLoss	True
373.419	0.25	Win2	0.65	0.0	Yes	2.981	0.019	n/a	GoodResponse	1	n/a	n/a	5	39	Cue	Win	False
373.67	4.1	Win2	0.65	0.0	Yes	2.981	0.001	4.0	GoodResponse	1	0.189	372.859	5	39	Fixation	Win	False
373.859	0.3	Win2	0.65	0.0	Yes	2.981	0.001	4.0	GoodResponse	1	0.189	n/a	5	39	ButtonPress	Win	False
377.765	0.41	Win2	0.65	0.004	Yes	2.981	-0.004	4.0	GoodResponse	1	0.198	376.963	5	39	Target	Win	False
377.963	0.3	Win2	0.65	0.004	Yes	2.981	-0.004	4.0	GoodResponse	1	0.198	n/a	5	39	ButtonPress	Win	False
378.183	0.29	Win2	0.65	n/a	Yes	2.981	n/a	n/a	GoodResponse	1	n/a	n/a	5	39	Blank	Win	False
378.468	1.45	Win2	0.65	n/a	Yes	2.981	n/a	5.0	GoodResponse	1	0.037	377.505	5	39	Feedback	Win	False
379.922	2.981	Win2	0.65	n/a	Yes	2.981	n/a	n/a	GoodResponse	1	0.0	n/a	5	39	ISIslide	Win	False
382.914	0.25	Win2	0.6585	0.0	Yes	2.736	0.014	n/a	GoodResponse	1	n/a	n/a	6	40	Cue	Win	True
383.165	3.95	Win2	0.6585	0.0	Yes	2.736	0.001	n/a	GoodResponse	1	n/a	n/a	6	40	Fixation	Win	True
387.11	0.42	Win2	0.6585	0.004	Yes	2.736	-0.004	4.0	GoodResponse	1	0.317	386.427	6	40	Target	Win	True
387.427	0.3	Win2	0.6585	0.004	Yes	2.736	-0.004	4.0	GoodResponse	1	0.317	n/a	6	40	ButtonPress	Win	True
387.545	0.28	Win2	0.6585	n/a	Yes	2.736	n/a	n/a	GoodResponse	1	n/a	n/a	6	40	Blank	Win	True
387.812	1.45	Win2	0.6585	n/a	Yes	2.736	n/a	5.0	GoodResponse	1	0.01	386.822	6	40	Feedback	Win	True
389.266	2.736	Win2	0.6585	n/a	Yes	2.736	n/a	n/a	GoodResponse	1	0.0	n/a	6	40	ISIslide	Win	True
392.025	0.25	Win2	0.6667000000000001	0.0	Yes	2.775	0.025	n/a	GoodResponse	1	n/a	n/a	7	41	Cue	Win	True
392.275	3.9	Win2	0.6667000000000001	0.001	Yes	2.775	0.0	n/a	GoodResponse	1	n/a	n/a	7	41	Fixation	Win	True
396.187	0.42	Win2	0.6667000000000001	0.0	Yes	2.775	0.012	4.0	GoodResponse	1	0.247	395.434	7	41	Target	Win	True
396.434	0.3	Win2	0.6667000000000001	0.0	Yes	2.775	0.012	4.0	GoodResponse	1	0.247	n/a	7	41	ButtonPress	Win	True
396.605	0.28	Win2	0.6667000000000001	n/a	Yes	2.775	n/a	n/a	GoodResponse	1	n/a	n/a	7	41	Blank	Win	True
396.873	1.45	Win2	0.6667000000000001	n/a	Yes	2.775	n/a	5.0	GoodResponse	1	0.023	395.896	7	41	Feedback	Win	True
398.327	2.775	Win2	0.6667000000000001	n/a	Yes	2.775	n/a	n/a	GoodResponse	1	0.0	n/a	7	41	ISIslide	Win	True
401.119	0.25	Control	0.6744	0.0	Yes	2.931	0.019	n/a	GoodResponse	0	n/a	n/a	7	42	Cue	Neutral	True
401.369	3.85	Control	0.6744	0.0	Yes	2.931	0.0	n/a	GoodResponse	0	n/a	n/a	7	42	Fixation	Neutral	True
405.231	0.41	Control	0.6744	0.0	Yes	2.931	0.012	4.0	GoodResponse	0	0.358	404.589	7	42	Target	Neutral	True
405.589	0.3	Control	0.6744	0.0	Yes	2.931	0.012	4.0	GoodResponse	0	0.358	n/a	7	42	ButtonPress	Neutral	True
405.632	0.29	Control	0.6744	n/a	Yes	2.931	n/a	n/a	GoodResponse	0	n/a	n/a	7	42	Blank	Neutral	True
405.916	1.45	Control	0.6744	n/a	Yes	2.931	n/a	5.0	GoodResponse	0	0.005	404.921	7	42	Feedback	Neutral	True
407.371	2.931	Control	0.6744	n/a	Yes	2.931	n/a	n/a	GoodResponse	0	0.0	n/a	7	42	ISIslide	Neutral	True
410.329	0.25	Win2	0.6818000000000001	0.0	Yes	3.171	0.029	n/a	GoodResponse	1	n/a	n/a	8	43	Cue	Win	True
410.58	4.0	Win2	0.6818000000000001	0.0	Yes	3.171	0.001	n/a	GoodResponse	1	n/a	n/a	8	43	Fixation	Win	True
414.575	0.4	Win2	0.6818000000000001	0.004	Yes	3.171	-0.004	4.0	GoodResponse	1	0.255	413.83	8	43	Target	Win	True
414.83	0.3	Win2	0.6818000000000001	0.004	Yes	3.171	-0.004	4.0	GoodResponse	1	0.255	n/a	8	43	ButtonPress	Win	True
414.977	0.3	Win2	0.6818000000000001	n/a	Yes	3.171	n/a	n/a	GoodResponse	1	n/a	n/a	8	43	Blank	Win	True
415.277	1.45	Win2	0.6818000000000001	n/a	Yes	3.171	n/a	5.0	GoodResponse	1	0.008	414.285	8	43	Feedback	Win	True
416.732	3.171	Win2	0.6818000000000001	n/a	Yes	3.171	n/a	n/a	GoodResponse	1	0.0	n/a	8	43	ISIslide	Win	True
419.925	0.25	Win2	0.6667000000000001	0.0	No	2.975	0.025	n/a	NoResponse	0	n/a	n/a	8	44	Cue	MissedWin	True
420.175	4.0	Win2	0.6667000000000001	0.001	No	2.975	0.0	n/a	NoResponse	0	n/a	n/a	8	44	Fixation	MissedWin	True
424.171	0.39	Win2	0.6667000000000001	0.004	No	2.975	-0.004	4.0	NoResponse	0	0.524	423.695	8	44	Target	MissedWin	True
424.572	0.31	Win2	0.6667000000000001	n/a	No	2.975	n/a	n/a	NoResponse	0	n/a	n/a	8	44	Blank	MissedWin	True
424.695	0.3	Win2	0.6667000000000001	0.004	No	2.975	-0.004	4.0	NoResponse	0	0.524	n/a	8	44	ButtonPress	MissedWin	True
424.873	1.45	Win2	0.6667000000000001	n/a	No	2.975	n/a	5.0	NoResponse	0	0.022	423.895	8	44	Feedback	MissedWin	True
426.327	2.975	Win2	0.6667000000000001	n/a	No	2.975	n/a	n/a	NoResponse	0	0.0	n/a	8	44	ISIslide	MissedWin	True
429.319	0.25	Control	0.6739	0.001	Yes	2.881	0.019	n/a	GoodResponse	0	n/a	n/a	8	45	Cue	Neutral	True
429.57	4.1	Control	0.6739	0.0	Yes	2.881	0.001	n/a	GoodResponse	0	n/a	n/a	8	45	Fixation	Neutral	True
433.666	0.38	Control	0.6739	0.003	Yes	2.881	-0.003	4.0	GoodResponse	0	0.224	432.89	8	45	Target	Neutral	True
433.89	0.3	Control	0.6739	0.003	Yes	2.881	-0.003	4.0	GoodResponse	0	0.224	n/a	8	45	ButtonPress	Neutral	True
434.05	0.32	Control	0.6739	n/a	Yes	2.881	n/a	n/a	GoodResponse	0	n/a	n/a	8	45	Blank	Neutral	True
434.368	1.45	Control	0.6739	n/a	Yes	2.881	n/a	5.0	GoodResponse	0	0.039	433.407	8	45	Feedback	Neutral	True
435.822	2.881	Control	0.6739	n/a	Yes	2.881	n/a	n/a	GoodResponse	0	0.0	n/a	8	45	ISIslide	Neutral	True
438.714	0.25	Lose2	0.6809000000000001	0.0	Yes	3.386	0.014	n/a	GoodResponse	0	n/a	n/a	8	46	Cue	AvoidedLoss	True
438.965	4.0	Lose2	0.6809000000000001	0.0	Yes	3.386	0.001	n/a	GoodResponse	0	n/a	n/a	8	46	Fixation	AvoidedLoss	True
442.96	0.37	Lose2	0.6809000000000001	0.004	Yes	3.386	-0.004	4.0	GoodResponse	0	0.287	442.247	8	46	Target	AvoidedLoss	True
443.247	0.3	Lose2	0.6809000000000001	0.004	Yes	3.386	-0.004	4.0	GoodResponse	0	0.287	n/a	8	46	ButtonPress	AvoidedLoss	True
443.345	0.33	Lose2	0.6809000000000001	n/a	Yes	3.386	n/a	n/a	GoodResponse	0	n/a	n/a	8	46	Blank	AvoidedLoss	True
443.662	1.45	Lose2	0.6809000000000001	n/a	Yes	3.386	n/a	5.0	GoodResponse	0	0.014	442.676	8	46	Feedback	AvoidedLoss	True
445.117	3.386	Lose2	0.6809000000000001	n/a	Yes	3.386	n/a	n/a	GoodResponse	0	0.0	n/a	8	46	ISIslide	AvoidedLoss	True
448.527	0.25	Lose2	0.6875	0.0	Yes	2.673	0.027	n/a	GoodResponse	0	n/a	n/a	8	47	Cue	AvoidedLoss	True
448.778	4.0	Lose2	0.6875	0.0	Yes	2.673	0.001	n/a	GoodResponse	0	n/a	n/a	8	47	Fixation	AvoidedLoss	True
452.773	0.36	Lose2	0.6875	0.004	Yes	2.673	-0.004	4.0	GoodResponse	0	0.264	452.037	8	47	Target	AvoidedLoss	True
453.037	0.3	Lose2	0.6875	0.004	Yes	2.673	-0.004	4.0	GoodResponse	0	0.264	n/a	8	47	ButtonPress	AvoidedLoss	True
453.141	0.34	Lose2	0.6875	n/a	Yes	2.673	n/a	n/a	GoodResponse	0	n/a	n/a	8	47	Blank	AvoidedLoss	True
453.475	1.45	Lose2	0.6875	n/a	Yes	2.673	n/a	5.0	GoodResponse	0	0.005	452.48	8	47	Feedback	AvoidedLoss	True
454.929	2.673	Lose2	0.6875	n/a	Yes	2.673	n/a	n/a	GoodResponse	0	0.0	n/a	8	47	ISIslide	AvoidedLoss	True
457.621	0.25	Lose2	0.6939	0.0	Yes	3.029	0.021	n/a	GoodResponse	0	n/a	n/a	8	48	Cue	AvoidedLoss	True
457.871	3.95	Lose2	0.6939	0.0	Yes	3.029	0.0	n/a	GoodResponse	0	n/a	n/a	8	48	Fixation	AvoidedLoss	True
461.817	0.35	Lose2	0.6939	0.004	Yes	3.029	-0.004	4.0	GoodResponse	0	0.302	461.119	8	48	Target	AvoidedLoss	True
462.119	0.3	Lose2	0.6939	0.004	Yes	3.029	-0.004	4.0	GoodResponse	0	0.302	n/a	8	48	ButtonPress	AvoidedLoss	True
462.168	0.35	Lose2	0.6939	n/a	Yes	3.029	n/a	n/a	GoodResponse	0	n/a	n/a	8	48	Blank	AvoidedLoss	True
462.519	1.45	Lose2	0.6939	n/a	Yes	3.029	n/a	5.0	GoodResponse	0	0.034	461.553	8	48	Feedback	AvoidedLoss	True
463.973	3.029	Lose2	0.6939	n/a	Yes	3.029	n/a	n/a	GoodResponse	0	0.0	n/a	8	48	ISIslide	AvoidedLoss	True
467.015	0.25	Control	0.68	0.0	No	2.885	0.015	n/a	NoResponse	0	n/a	n/a	8	49	Cue	Neutral	True
467.266	4.0	Control	0.68	0.0	No	2.885	0.001	4.0	NoResponse	0	3.992	470.258	8	49	Fixation	Neutral	True
471.258	0.3	Control	0.68	0.0	No	2.885	0.001	4.0	NoResponse	0	3.992	n/a	8	49	ButtonPress	Neutral	True
471.261	0.34	Control	0.68	0.004	No	2.885	-0.004	n/a	NoResponse	0	n/a	n/a	8	49	Target	Neutral	True
471.612	0.36	Control	0.68	n/a	No	2.885	n/a	n/a	NoResponse	0	n/a	n/a	8	49	Blank	Neutral	True
471.963	1.45	Control	0.68	n/a	No	2.885	n/a	5.0	NoResponse	0	0.005	470.968	8	49	Feedback	Neutral	True
473.418	2.885	Control	0.68	n/a	No	2.885	n/a	n/a	NoResponse	0	0.0	n/a	8	49	ISIslide	Neutral	True
476.327	0.25	Control	0.6667000000000001	0.0	No	2.773	0.027	n/a	NoResponse	0	n/a	n/a	8	50	Cue	Neutral	True
476.577	4.0	Control	0.6667000000000001	0.0	No	2.773	0.0	n/a	NoResponse	0	n/a	n/a	8	50	Fixation	Neutral	True
480.573	0.33	Control	0.6667000000000001	0.004	No	2.773	-0.004	4.0	NoResponse	0	0.361	479.934	8	50	Target	Neutral	True
480.907	0.37	Control	0.6667000000000001	n/a	No	2.773	n/a	n/a	NoResponse	0	n/a	n/a	8	50	Blank	Neutral	True
480.934	0.3	Control	0.6667000000000001	0.004	No	2.773	-0.004	4.0	NoResponse	0	0.361	n/a	8	50	ButtonPress	Neutral	True
481.275	1.45	Control	0.6667000000000001	n/a	No	2.773	n/a	5.0	NoResponse	0	0.01	480.285	8	50	Feedback	Neutral	True
482.729	2.773	Control	0.6667000000000001	n/a	No	2.773	n/a	n/a	NoResponse	0	0.0	n/a	8	50	ISIslide	Neutral	True
485.521	0.25	Control	0.6731	0.0	Yes	2.729	0.021	n/a	GoodResponse	0	n/a	n/a	8	51	Cue	Neutral	True
485.771	3.95	Control	0.6731	0.0	Yes	2.729	0.0	n/a	GoodResponse	0	n/a	n/a	8	51	Fixation	Neutral	True
489.716	0.32	Control	0.6731	0.005	Yes	2.729	-0.005	4.0	GoodResponse	0	0.252	488.968	8	51	Target	Neutral	True
489.968	0.3	Control	0.6731	0.005	Yes	2.729	-0.005	4.0	GoodResponse	0	0.252	n/a	8	51	ButtonPress	Neutral	True
490.051	0.38	Control	0.6731	n/a	Yes	2.729	n/a	n/a	GoodResponse	0	n/a	n/a	8	51	Blank	Neutral	True
490.419	1.45	Control	0.6731	n/a	Yes	2.729	n/a	5.0	GoodResponse	0	0.036	489.455	8	51	Feedback	Neutral	True
491.873	2.729	Control	0.6731	n/a	Yes	2.729	n/a	n/a	GoodResponse	0	0.0	n/a	8	51	ISIslide	Neutral	True
494.614	0.25	Control	0.6604000000000001	0.001	No	2.636	0.014	n/a	NoResponse	0	n/a	n/a	8	52	Cue	Neutral	True
494.865	4.05	Control	0.6604000000000001	0.0	No	2.636	0.001	n/a	NoResponse	0	n/a	n/a	8	52	Fixation	Neutral	True
498.911	0.31	Control	0.6604000000000001	0.003	No	2.636	-0.003	4.0	NoResponse	0	0.443	498.354	8	52	Target	Neutral	True
499.228	0.39	Control	0.6604000000000001	n/a	No	2.636	n/a	n/a	NoResponse	0	n/a	n/a	8	52	Blank	Neutral	True
499.354	0.3	Control	0.6604000000000001	0.003	No	2.636	-0.003	4.0	NoResponse	0	0.443	n/a	8	52	ButtonPress	Neutral	True
499.613	1.45	Control	0.6604000000000001	n/a	No	2.636	n/a	5.0	NoResponse	0	0.013	498.626	8	52	Feedback	Neutral	True
501.067	2.636	Control	0.6604000000000001	n/a	No	2.636	n/a	n/a	NoResponse	0	0.0	n/a	8	52	ISIslide	Neutral	True
503.725	0.25	Win2	0.6481	0.0	No	2.925	0.025	n/a	NoResponse	0	n/a	n/a	8	53	Cue	MissedWin	True
503.976	4.05	Win2	0.6481	0.0	No	2.925	0.001	n/a	NoResponse	0	n/a	n/a	8	53	Fixation	MissedWin	True
508.021	0.31	Win2	0.6481	0.004	No	2.925	-0.004	4.0	NoResponse	0	0.346	507.367	8	53	Target	MissedWin	True
508.339	0.39	Win2	0.6481	n/a	No	2.925	n/a	n/a	NoResponse	0	n/a	n/a	8	53	Blank	MissedWin	True
508.367	0.3	Win2	0.6481	0.004	No	2.925	-0.004	4.0	NoResponse	0	0.346	n/a	8	53	ButtonPress	MissedWin	True
508.723	1.45	Win2	0.6481	n/a	No	2.925	n/a	5.0	NoResponse	0	0.025	507.748	8	53	Feedback	MissedWin	True
510.178	2.925	Win2	0.6481	n/a	No	2.925	n/a	n/a	NoResponse	0	0.0	n/a	8	53	ISIslide	MissedWin	True
513.12	0.25	Win2	0.6364	0.0	No	2.73	0.02	n/a	NoResponse	0	n/a	n/a	8	54	Cue	MissedWin	True
513.37	3.95	Win2	0.6364	0.001	No	2.73	0.0	n/a	NoResponse	0	n/a	n/a	8	54	Fixation	MissedWin	True
517.316	0.32	Win2	0.6364	0.004	No	2.73	-0.004	4.0	NoResponse	0	0.421	516.737	8	54	Target	MissedWin	True
517.65	0.38	Win2	0.6364	n/a	No	2.73	n/a	n/a	NoResponse	0	n/a	n/a	8	54	Blank	MissedWin	True
517.737	0.3	Win2	0.6364	0.004	No	2.73	-0.004	4.0	NoResponse	0	0.421	n/a	8	54	ButtonPress	MissedWin	True
518.018	1.45	Win2	0.6364	n/a	No	2.73	n/a	5.0	NoResponse	0	0.047	517.065	8	54	Feedback	MissedWin	True
519.472	2.73	Win2	0.6364	n/a	No	2.73	n/a	n/a	NoResponse	0	0.0	n/a	8	54	ISIslide	MissedWin	True
522.214	0.25	Control	0.625	0.0	No	3.036	0.014	n/a	NoResponse	0	n/a	n/a	8	55	Cue	Neutral	True
522.464	3.95	Control	0.625	0.0	No	3.036	0.0	n/a	NoResponse	0	n/a	n/a	8	55	Fixation	Neutral	True
526.426	0.33	Control	0.625	0.0	No	3.036	0.012	4.0	NoResponse	0	0.455	525.881	8	55	Target	Neutral	True
526.744	0.37	Control	0.625	n/a	No	3.036	n/a	n/a	NoResponse	0	n/a	n/a	8	55	Blank	Neutral	True
526.881	0.3	Control	0.625	0.0	No	3.036	0.012	4.0	NoResponse	0	0.455	n/a	8	55	ButtonPress	Neutral	True
527.111	1.45	Control	0.625	n/a	No	3.036	n/a	5.0	NoResponse	0	0.026	526.137	8	55	Feedback	Neutral	True
528.566	3.036	Control	0.625	n/a	No	3.036	n/a	n/a	NoResponse	0	0.0	n/a	8	55	ISIslide	Neutral	True
531.625	0.25	Control	0.6315999999999999	0.0	Yes	2.825	0.025	n/a	GoodResponse	0	n/a	n/a	8	56	Cue	Neutral	True
531.876	3.95	Control	0.6315999999999999	0.0	Yes	2.825	0.001	n/a	GoodResponse	0	n/a	n/a	8	56	Fixation	Neutral	True
535.821	0.34	Control	0.6315999999999999	0.004	Yes	2.825	-0.004	4.0	GoodResponse	0	0.23	535.051	8	56	Target	Neutral	True
536.051	0.3	Control	0.6315999999999999	0.004	Yes	2.825	-0.004	4.0	GoodResponse	0	0.23	n/a	8	56	ButtonPress	Neutral	True
536.172	0.36	Control	0.6315999999999999	n/a	Yes	2.825	n/a	n/a	GoodResponse	0	n/a	n/a	8	56	Blank	Neutral	True
536.523	1.45	Control	0.6315999999999999	n/a	Yes	2.825	n/a	5.0	GoodResponse	0	0.029	535.552	8	56	Feedback	Neutral	True
537.977	2.825	Control	0.6315999999999999	n/a	Yes	2.825	n/a	n/a	GoodResponse	0	0.0	n/a	8	56	ISIslide	Neutral	True
540.819	0.25	Control	0.6379	0.0	Yes	3.481	0.019	n/a	GoodResponse	0	n/a	n/a	8	57	Cue	Neutral	True
541.07	4.0	Control	0.6379	0.0	Yes	3.481	0.001	n/a	GoodResponse	0	n/a	n/a	8	57	Fixation	Neutral	True
545.065	0.35	Control	0.6379	0.004	Yes	3.481	-0.004	4.0	GoodResponse	0	0.329	544.394	8	57	Target	Neutral	True
545.394	0.3	Control	0.6379	0.004	Yes	3.481	-0.004	4.0	GoodResponse	0	0.329	n/a	8	57	ButtonPress	Neutral	True
545.416	0.35	Control	0.6379	n/a	Yes	3.481	n/a	n/a	GoodResponse	0	n/a	n/a	8	57	Blank	Neutral	True
545.767	1.45	Control	0.6379	n/a	Yes	3.481	n/a	5.0	GoodResponse	0	0.004	544.771	8	57	Feedback	Neutral	True
547.222	3.481	Control	0.6379	n/a	Yes	3.481	n/a	n/a	GoodResponse	0	0.0	n/a	8	57	ISIslide	Neutral	True
550.715	0.25	Win2	0.6441	0.0	Yes	2.735	0.015	n/a	GoodResponse	1	n/a	n/a	9	58	Cue	Win	True
550.966	4.05	Win2	0.6441	0.0	Yes	2.735	0.001	n/a	GoodResponse	1	n/a	n/a	9	58	Fixation	Win	True
555.011	0.36	Win2	0.6441	0.004	Yes	2.735	-0.004	4.0	GoodResponse	1	0.318	554.329	9	58	Target	Win	True
555.329	0.3	Win2	0.6441	0.004	Yes	2.735	-0.004	4.0	GoodResponse	1	0.318	n/a	9	58	ButtonPress	Win	True
555.379	0.34	Win2	0.6441	n/a	Yes	2.735	n/a	n/a	GoodResponse	1	n/a	n/a	9	58	Blank	Win	True
555.714	1.45	Win2	0.6441	n/a	Yes	2.735	n/a	5.0	GoodResponse	1	0.009	554.723	9	58	Feedback	Win	True
557.168	2.735	Win2	0.6441	n/a	Yes	2.735	n/a	n/a	GoodResponse	1	0.0	n/a	9	58	ISIslide	Win	True
559.926	0.25	Lose2	0.6333	0.0	No	2.674	0.026	n/a	NoResponse	-1	n/a	n/a	8	59	Cue	Loss	False
560.177	4.0	Lose2	0.6333	0.0	No	2.674	0.001	n/a	NoResponse	-1	n/a	n/a	8	59	Fixation	Loss	False
564.172	0.37	Lose2	0.6333	0.004	No	2.674	-0.004	n/a	NoResponse	-1	n/a	n/a	8	59	Target	Loss	False
564.557	0.33	Lose2	0.6333	n/a	No	2.674	n/a	n/a	NoResponse	-1	n/a	n/a	8	59	Blank	Loss	False
564.874	1.45	Lose2	0.6333	n/a	No	2.674	n/a	5.0	NoResponse	-1	0.018	563.892	8	59	Feedback	Loss	False
566.329	2.674	Lose2	0.6333	n/a	No	2.674	n/a	n/a	NoResponse	-1	0.0	n/a	8	59	ISIslide	Loss	False
569.02	0.25	Control	0.6393	0.0	Yes	2.68	0.02	n/a	GoodResponse	0	n/a	n/a	8	60	Cue	Neutral	True
569.271	4.0	Control	0.6393	0.0	Yes	2.68	0.001	n/a	GoodResponse	0	n/a	n/a	8	60	Fixation	Neutral	True
573.266	0.38	Control	0.6393	0.004	Yes	2.68	-0.004	4.0	GoodResponse	0	0.198	572.464	8	60	Target	Neutral	True
573.464	0.3	Control	0.6393	0.004	Yes	2.68	-0.004	4.0	GoodResponse	0	0.198	n/a	8	60	ButtonPress	Neutral	True
573.65	0.32	Control	0.6393	n/a	Yes	2.68	n/a	n/a	GoodResponse	0	n/a	n/a	8	60	Blank	Neutral	True
573.968	1.45	Control	0.6393	n/a	Yes	2.68	n/a	5.0	GoodResponse	0	0.047	573.015	8	60	Feedback	Neutral	True
575.422	2.68	Control	0.6393	n/a	Yes	2.68	n/a	n/a	GoodResponse	0	0.0	n/a	8	60	ISIslide	Neutral	True
578.114	0.25	Lose2	0.6452	0.0	Yes	2.986	0.014	n/a	GoodResponse	0	n/a	n/a	8	61	Cue	AvoidedLoss	True
578.365	4.0	Lose2	0.6452	0.0	Yes	2.986	0.001	n/a	GoodResponse	0	n/a	n/a	8	61	Fixation	AvoidedLoss	True
582.36	0.39	Lose2	0.6452	0.004	Yes	2.986	-0.004	4.0	GoodResponse	0	0.204	581.564	8	61	Target	AvoidedLoss	True
582.564	0.3	Lose2	0.6452	0.004	Yes	2.986	-0.004	4.0	GoodResponse	0	0.204	n/a	8	61	ButtonPress	AvoidedLoss	True
582.761	0.31	Lose2	0.6452	n/a	Yes	2.986	n/a	n/a	GoodResponse	0	n/a	n/a	8	61	Blank	AvoidedLoss	True
583.062	1.45	Lose2	0.6452	n/a	Yes	2.986	n/a	5.0	GoodResponse	0	0.026	582.088	8	61	Feedback	AvoidedLoss	True
584.516	2.986	Lose2	0.6452	n/a	Yes	2.986	n/a	n/a	GoodResponse	0	0.0	n/a	8	61	ISIslide	AvoidedLoss	True
587.525	0.25	Lose2	0.6507999999999999	0.0	Yes	2.875	0.025	n/a	GoodResponse	0	n/a	n/a	8	62	Cue	AvoidedLoss	True
587.776	3.9	Lose2	0.6507999999999999	0.0	Yes	2.875	0.001	n/a	GoodResponse	0	n/a	n/a	8	62	Fixation	AvoidedLoss	True
591.671	0.4	Lose2	0.6507999999999999	0.004	Yes	2.875	-0.004	4.0	GoodResponse	0	0.249	590.92	8	62	Target	AvoidedLoss	True
591.92	0.3	Lose2	0.6507999999999999	0.004	Yes	2.875	-0.004	4.0	GoodResponse	0	0.249	n/a	8	62	ButtonPress	AvoidedLoss	True
592.072	0.3	Lose2	0.6507999999999999	n/a	Yes	2.875	n/a	n/a	GoodResponse	0	n/a	n/a	8	62	Blank	AvoidedLoss	True
592.373	1.45	Lose2	0.6507999999999999	n/a	Yes	2.875	n/a	5.0	GoodResponse	0	0.032	591.405	8	62	Feedback	AvoidedLoss	True
593.827	2.875	Lose2	0.6507999999999999	n/a	Yes	2.875	n/a	n/a	GoodResponse	0	0.0	n/a	8	62	ISIslide	AvoidedLoss	True
596.719	0.25	Lose2	0.6562	0.0	Yes	2.631	0.019	n/a	GoodResponse	0	n/a	n/a	8	63	Cue	AvoidedLoss	True
596.97	4.05	Lose2	0.6562	0.0	Yes	2.631	0.001	n/a	GoodResponse	0	n/a	n/a	8	63	Fixation	AvoidedLoss	True
601.016	0.41	Lose2	0.6562	0.003	Yes	2.631	-0.003	4.0	GoodResponse	0	0.326	600.342	8	63	Target	AvoidedLoss	True
601.342	0.3	Lose2	0.6562	0.003	Yes	2.631	-0.003	4.0	GoodResponse	0	0.326	n/a	8	63	ButtonPress	AvoidedLoss	True
601.433	0.29	Lose2	0.6562	n/a	Yes	2.631	n/a	n/a	GoodResponse	0	n/a	n/a	8	63	Blank	AvoidedLoss	True
601.718	1.45	Lose2	0.6562	n/a	Yes	2.631	n/a	5.0	GoodResponse	0	0.004	600.722	8	63	Feedback	AvoidedLoss	True
603.172	2.631	Lose2	0.6562	n/a	Yes	2.631	n/a	n/a	GoodResponse	0	0.0	n/a	8	63	ISIslide	AvoidedLoss	True
605.813	0.25	Win2	0.6615000000000001	0.0	Yes	3.137	0.013	n/a	GoodResponse	1	n/a	n/a	9	64	Cue	Win	True
606.064	4.15	Win2	0.6615000000000001	0.0	Yes	3.137	0.001	n/a	GoodResponse	1	n/a	n/a	9	64	Fixation	Win	True
610.21	0.41	Win2	0.6615000000000001	0.003	Yes	3.137	-0.003	4.0	GoodResponse	1	0.296	609.506	9	64	Target	Win	True
610.506	0.3	Win2	0.6615000000000001	0.003	Yes	3.137	-0.003	4.0	GoodResponse	1	0.296	n/a	9	64	ButtonPress	Win	True
610.628	0.29	Win2	0.6615000000000001	n/a	Yes	3.137	n/a	n/a	GoodResponse	1	n/a	n/a	9	64	Blank	Win	True
610.912	1.45	Win2	0.6615000000000001	n/a	Yes	3.137	n/a	5.0	GoodResponse	1	0.029	609.941	9	64	Feedback	Win	True
612.366	3.137	Win2	0.6615000000000001	n/a	Yes	3.137	n/a	n/a	GoodResponse	1	0.0	n/a	9	64	ISIslide	Win	True
615.526	0.25	Control	0.6667000000000001	0.0	Yes	2.774	0.026	n/a	GoodResponse	0	n/a	n/a	9	65	Cue	Neutral	True
615.776	4.0	Control	0.6667000000000001	0.0	Yes	2.774	0.0	n/a	GoodResponse	0	n/a	n/a	9	65	Fixation	Neutral	True
619.772	0.41	Control	0.6667000000000001	0.004	Yes	2.774	-0.004	4.0	GoodResponse	0	0.263	619.035	9	65	Target	Neutral	True
620.035	0.3	Control	0.6667000000000001	0.004	Yes	2.774	-0.004	4.0	GoodResponse	0	0.263	n/a	9	65	ButtonPress	Neutral	True
620.189	0.29	Control	0.6667000000000001	n/a	Yes	2.774	n/a	n/a	GoodResponse	0	n/a	n/a	9	65	Blank	Neutral	True
620.474	1.45	Control	0.6667000000000001	n/a	Yes	2.774	n/a	5.0	GoodResponse	0	0.028	619.502	9	65	Feedback	Neutral	True
621.928	2.774	Control	0.6667000000000001	n/a	Yes	2.774	n/a	n/a	GoodResponse	0	0.0	n/a	9	65	ISIslide	Neutral	True
624.72	0.25	Win2	0.6716	0.0	Yes	2.78	0.02	n/a	GoodResponse	1	n/a	n/a	10	66	Cue	Win	True
624.97	3.9	Win2	0.6716	0.0	Yes	2.78	0.0	n/a	GoodResponse	1	n/a	n/a	10	66	Fixation	Win	True
628.882	0.4	Win2	0.6716	0.0	Yes	2.78	0.012	4.0	GoodResponse	1	0.243	628.125	10	66	Target	Win	True
629.125	0.3	Win2	0.6716	0.0	Yes	2.78	0.012	4.0	GoodResponse	1	0.243	n/a	10	66	ButtonPress	Win	True
629.267	0.3	Win2	0.6716	n/a	Yes	2.78	n/a	n/a	GoodResponse	1	n/a	n/a	10	66	Blank	Win	True
629.567	1.45	Win2	0.6716	n/a	Yes	2.78	n/a	5.0	GoodResponse	1	0.008	628.575	10	66	Feedback	Win	True
631.022	2.78	Win2	0.6716	n/a	Yes	2.78	n/a	n/a	GoodResponse	1	0.0	n/a	10	66	ISIslide	Win	True
633.813	0.25	Control	0.6765000000000001	0.001	Yes	2.737	0.013	n/a	GoodResponse	0	n/a	n/a	10	67	Cue	Neutral	True
634.064	3.95	Control	0.6765000000000001	0.0	Yes	2.737	0.001	n/a	GoodResponse	0	n/a	n/a	10	67	Fixation	Neutral	True
638.009	0.39	Control	0.6765000000000001	0.004	Yes	2.737	-0.004	4.0	GoodResponse	0	0.257	637.266	10	67	Target	Neutral	True
638.266	0.3	Control	0.6765000000000001	0.004	Yes	2.737	-0.004	4.0	GoodResponse	0	0.257	n/a	10	67	ButtonPress	Neutral	True
638.411	0.31	Control	0.6765000000000001	n/a	Yes	2.737	n/a	n/a	GoodResponse	0	n/a	n/a	10	67	Blank	Neutral	True
638.711	1.45	Control	0.6765000000000001	n/a	Yes	2.737	n/a	5.0	GoodResponse	0	0.034	637.745	10	67	Feedback	Neutral	True
640.166	2.737	Control	0.6765000000000001	n/a	Yes	2.737	n/a	n/a	GoodResponse	0	0.0	n/a	10	67	ISIslide	Neutral	True
642.924	0.25	Win2	0.6812	0.0	Yes	3.076	0.024	n/a	GoodResponse	1	n/a	n/a	11	68	Cue	Win	True
643.175	4.0	Win2	0.6812	0.0	Yes	3.076	0.001	n/a	GoodResponse	1	n/a	n/a	11	68	Fixation	Win	True
647.17	0.38	Win2	0.6812	0.004	Yes	3.076	-0.004	4.0	GoodResponse	1	0.349	646.519	11	68	Target	Win	True
647.519	0.3	Win2	0.6812	0.004	Yes	3.076	-0.004	4.0	GoodResponse	1	0.349	n/a	11	68	ButtonPress	Win	True
647.555	0.32	Win2	0.6812	n/a	Yes	3.076	n/a	n/a	GoodResponse	1	n/a	n/a	11	68	Blank	Win	True
647.872	1.45	Win2	0.6812	n/a	Yes	3.076	n/a	5.0	GoodResponse	1	0.044	646.916	11	68	Feedback	Win	True
649.326	3.076	Win2	0.6812	n/a	Yes	3.076	n/a	n/a	GoodResponse	1	0.0	n/a	11	68	ISIslide	Win	True
652.419	0.25	Win2	0.6857	0.0	Yes	3.231	0.019	n/a	GoodResponse	1	n/a	n/a	12	69	Cue	Win	True
652.67	3.95	Win2	0.6857	0.0	Yes	3.231	0.001	n/a	GoodResponse	1	n/a	n/a	12	69	Fixation	Win	True
656.615	0.37	Win2	0.6857	0.004	Yes	3.231	-0.004	4.0	GoodResponse	1	0.269	655.884	12	69	Target	Win	True
656.884	0.3	Win2	0.6857	0.004	Yes	3.231	-0.004	4.0	GoodResponse	1	0.269	n/a	12	69	ButtonPress	Win	True
656.999	0.33	Win2	0.6857	n/a	Yes	3.231	n/a	n/a	GoodResponse	1	n/a	n/a	12	69	Blank	Win	True
657.317	1.45	Win2	0.6857	n/a	Yes	3.231	n/a	5.0	GoodResponse	1	0.014	656.331	12	69	Feedback	Win	True
658.771	3.231	Win2	0.6857	n/a	Yes	3.231	n/a	n/a	GoodResponse	1	0.0	n/a	12	69	ISIslide	Win	True
662.014	0.25	Lose2	0.6901	0.0	Yes	3.036	0.014	n/a	GoodResponse	0	n/a	n/a	12	70	Cue	AvoidedLoss	True
662.265	4.05	Lose2	0.6901	0.0	Yes	3.036	0.001	n/a	GoodResponse	0	n/a	n/a	12	70	Fixation	AvoidedLoss	True
666.311	0.36	Lose2	0.6901	0.003	Yes	3.036	-0.003	4.0	GoodResponse	0	0.108	665.419	12	70	Target	AvoidedLoss	True
666.419	0.3	Lose2	0.6901	0.003	Yes	3.036	-0.003	4.0	GoodResponse	0	0.108	n/a	12	70	ButtonPress	AvoidedLoss	True
666.678	0.34	Lose2	0.6901	n/a	Yes	3.036	n/a	n/a	GoodResponse	0	n/a	n/a	12	70	Blank	AvoidedLoss	True
667.013	1.45	Lose2	0.6901	n/a	Yes	3.036	n/a	5.0	GoodResponse	0	0.025	666.038	12	70	Feedback	AvoidedLoss	True
668.467	3.036	Lose2	0.6901	n/a	Yes	3.036	n/a	n/a	GoodResponse	0	0.0	n/a	12	70	ISIslide	AvoidedLoss	True
671.526	0.25	Win2	0.6944	0.0	Yes	2.724	0.026	n/a	GoodResponse	1	n/a	n/a	13	71	Cue	Win	True
671.777	4.05	Win2	0.6944	0.0	Yes	2.724	0.001	n/a	GoodResponse	1	n/a	n/a	13	71	Fixation	Win	True
675.822	0.35	Win2	0.6944	0.004	Yes	2.724	-0.004	4.0	GoodResponse	1	0.201	675.023	13	71	Target	Win	True
676.023	0.3	Win2	0.6944	0.004	Yes	2.724	-0.004	4.0	GoodResponse	1	0.201	n/a	13	71	ButtonPress	Win	True
676.173	0.35	Win2	0.6944	n/a	Yes	2.724	n/a	n/a	GoodResponse	1	n/a	n/a	13	71	Blank	Win	True
676.524	1.45	Win2	0.6944	n/a	Yes	2.724	n/a	5.0	GoodResponse	1	0.025	675.549	13	71	Feedback	Win	True
677.979	2.724	Win2	0.6944	n/a	Yes	2.724	n/a	n/a	GoodResponse	1	0.0	n/a	13	71	ISIslide	Win	True
680.72	0.25	Win2	0.6986	0.0	Yes	2.78	0.02	n/a	GoodResponse	1	n/a	n/a	14	72	Cue	Win	True
680.971	4.1	Win2	0.6986	0.0	Yes	2.78	0.001	n/a	GoodResponse	1	n/a	n/a	14	72	Fixation	Win	True
685.067	0.34	Win2	0.6986	0.003	Yes	2.78	-0.003	4.0	GoodResponse	1	0.258	684.325	14	72	Target	Win	True
685.325	0.3	Win2	0.6986	0.003	Yes	2.78	-0.003	4.0	GoodResponse	1	0.258	n/a	14	72	ButtonPress	Win	True
685.418	0.36	Win2	0.6986	n/a	Yes	2.78	n/a	n/a	GoodResponse	1	n/a	n/a	14	72	Blank	Win	True
685.769	1.45	Win2	0.6986	n/a	Yes	2.78	n/a	5.0	GoodResponse	1	0.0	684.769	14	72	Feedback	Win	True
687.223	2.78	Win2	0.6986	n/a	Yes	2.78	n/a	n/a	GoodResponse	1	0.0	n/a	14	72	ISIslide	Win	True
690.015	0.25	Win2	0.6892	0.0	No	2.685	0.015	n/a	NoResponse	0	n/a	n/a	14	73	Cue	MissedWin	True
690.265	4.0	Win2	0.6892	0.001	No	2.685	0.0	n/a	NoResponse	0	n/a	n/a	14	73	Fixation	MissedWin	True
694.261	0.33	Win2	0.6892	0.004	No	2.685	-0.004	4.0	NoResponse	0	0.401	693.662	14	73	Target	MissedWin	True
694.595	0.37	Win2	0.6892	n/a	No	2.685	n/a	n/a	NoResponse	0	n/a	n/a	14	73	Blank	MissedWin	True
694.662	0.3	Win2	0.6892	0.004	No	2.685	-0.004	4.0	NoResponse	0	0.401	n/a	14	73	ButtonPress	MissedWin	True
694.963	1.45	Win2	0.6892	n/a	No	2.685	n/a	5.0	NoResponse	0	0.025	693.988	14	73	Feedback	MissedWin	True
696.417	2.685	Win2	0.6892	n/a	No	2.685	n/a	n/a	NoResponse	0	0.0	n/a	14	73	ISIslide	MissedWin	True
699.125	0.25	Lose2	0.6933	0.0	Yes	2.625	0.025	n/a	GoodResponse	0	n/a	n/a	14	74	Cue	AvoidedLoss	True
699.376	4.05	Lose2	0.6933	0.0	Yes	2.625	0.001	n/a	GoodResponse	0	n/a	n/a	14	74	Fixation	AvoidedLoss	True
703.421	0.32	Lose2	0.6933	0.004	Yes	2.625	-0.004	4.0	GoodResponse	0	0.224	702.645	14	74	Target	AvoidedLoss	True
703.645	0.3	Lose2	0.6933	0.004	Yes	2.625	-0.004	4.0	GoodResponse	0	0.224	n/a	14	74	ButtonPress	AvoidedLoss	True
703.756	0.38	Lose2	0.6933	n/a	Yes	2.625	n/a	n/a	GoodResponse	0	n/a	n/a	14	74	Blank	AvoidedLoss	True
704.123	1.45	Lose2	0.6933	n/a	Yes	2.625	n/a	5.0	GoodResponse	0	0.036	703.159	14	74	Feedback	AvoidedLoss	True
705.578	2.625	Lose2	0.6933	n/a	Yes	2.625	n/a	n/a	GoodResponse	0	0.0	n/a	14	74	ISIslide	AvoidedLoss	True
708.219	0.25	Lose2	0.6973999999999999	0.0	Yes	2.931	0.019	n/a	GoodResponse	0	n/a	n/a	14	75	Cue	AvoidedLoss	True
708.47	3.95	Lose2	0.6973999999999999	0.0	Yes	2.931	0.001	n/a	GoodResponse	0	n/a	n/a	14	75	Fixation	AvoidedLoss	True
712.415	0.31	Lose2	0.6973999999999999	0.004	Yes	2.931	-0.004	4.0	GoodResponse	0	0.303	711.718	14	75	Target	AvoidedLoss	True
712.718	0.3	Lose2	0.6973999999999999	0.004	Yes	2.931	-0.004	4.0	GoodResponse	0	0.303	n/a	14	75	ButtonPress	AvoidedLoss	True
712.733	0.39	Lose2	0.6973999999999999	n/a	Yes	2.931	n/a	n/a	GoodResponse	0	n/a	n/a	14	75	Blank	AvoidedLoss	True
713.117	1.45	Lose2	0.6973999999999999	n/a	Yes	2.931	n/a	5.0	GoodResponse	0	0.018	712.135	14	75	Feedback	AvoidedLoss	True
714.571	2.931	Lose2	0.6973999999999999	n/a	Yes	2.931	n/a	n/a	GoodResponse	0	0.0	n/a	14	75	ISIslide	AvoidedLoss	True
717.513	0.25	Control	0.7012999999999999	0.001	Yes	3.237	0.013	n/a	GoodResponse	0	n/a	n/a	14	76	Cue	Neutral	True
717.764	4.05	Control	0.7012999999999999	0.0	Yes	3.237	0.001	n/a	GoodResponse	0	n/a	n/a	14	76	Fixation	Neutral	True
721.81	0.3	Control	0.7012999999999999	0.003	Yes	3.237	-0.003	4.0	GoodResponse	0	0.25	721.06	14	76	Target	Neutral	True
722.06	0.3	Control	0.7012999999999999	0.003	Yes	3.237	-0.003	4.0	GoodResponse	0	0.25	n/a	14	76	ButtonPress	Neutral	True
722.111	0.4	Control	0.7012999999999999	n/a	Yes	3.237	n/a	n/a	GoodResponse	0	n/a	n/a	14	76	Blank	Neutral	True
722.512	1.45	Control	0.7012999999999999	n/a	Yes	3.237	n/a	5.0	GoodResponse	0	0.037	721.549	14	76	Feedback	Neutral	True
723.966	3.237	Control	0.7012999999999999	n/a	Yes	3.237	n/a	n/a	GoodResponse	0	0.0	n/a	14	76	ISIslide	Neutral	True
727.226	0.25	Lose2	0.7051000000000001	0.0	Yes	2.574	0.026	n/a	GoodResponse	0	n/a	n/a	14	77	Cue	AvoidedLoss	True
727.477	3.95	Lose2	0.7051000000000001	0.0	Yes	2.574	0.001	n/a	GoodResponse	0	n/a	n/a	14	77	Fixation	AvoidedLoss	True
731.422	0.29	Lose2	0.7051000000000001	0.004	Yes	2.574	-0.004	4.0	GoodResponse	0	0.207	730.629	14	77	Target	AvoidedLoss	True
731.629	0.3	Lose2	0.7051000000000001	0.004	Yes	2.574	-0.004	4.0	GoodResponse	0	0.207	n/a	14	77	ButtonPress	AvoidedLoss	True
731.723	0.41	Lose2	0.7051000000000001	n/a	Yes	2.574	n/a	n/a	GoodResponse	0	n/a	n/a	14	77	Blank	AvoidedLoss	True
732.124	1.45	Lose2	0.7051000000000001	n/a	Yes	2.574	n/a	5.0	GoodResponse	0	0.035	731.159	14	77	Feedback	AvoidedLoss	True
733.578	2.574	Lose2	0.7051000000000001	n/a	Yes	2.574	n/a	n/a	GoodResponse	0	0.0	n/a	14	77	ISIslide	AvoidedLoss	True
