onset	duration	cue_type	current_mean_accuracy	duration_error	is_hit	isi_adjusted	onset_delay	response	response_type	reward	rt	rt_time	total_reward	trial_number	trial_phase	trial_type	one_press
11.098	0.25	Control	1.0	0.0	Yes	2.952	-0.002	n/a	GoodResponse	0	n/a	n/a	0	0	Cue	Neutral	True
11.348	3.85	Control	1.0	0.001	Yes	2.952	0.0	n/a	GoodResponse	0	n/a	n/a	0	0	Fixation	Neutral	True
15.21	0.4	Control	1.0	0.0	Yes	2.952	0.012	4.0	GoodResponse	0	0.22	14.43	0	0	Target	Neutral	True
15.43	0.3	Control	1.0	0.0	Yes	2.952	0.012	4.0	GoodResponse	0	0.22	n/a	0	0	ButtonPress	Neutral	True
15.595	0.3	Control	1.0	n/a	Yes	2.952	n/a	n/a	GoodResponse	0	n/a	n/a	0	0	Blank	Neutral	True
15.895	1.45	Control	1.0	n/a	Yes	2.952	n/a	5.0	GoodResponse	0	0.03	14.925	0	0	Feedback	Neutral	True
17.35	2.952	Control	1.0	n/a	Yes	2.952	n/a	n/a	GoodResponse	0	0.0	n/a	0	0	ISIslide	Neutral	True
20.325	0.25	Lose2	1.0	0.0	Yes	2.775	0.025	n/a	GoodResponse	0	n/a	n/a	0	1	Cue	AvoidedLoss	True
20.576	4.0	Lose2	1.0	0.0	Yes	2.775	0.001	n/a	GoodResponse	0	n/a	n/a	0	1	Fixation	AvoidedLoss	True
24.571	0.39	Lose2	1.0	0.004	Yes	2.775	-0.004	4.0	GoodResponse	0	0.196	23.767	0	1	Target	AvoidedLoss	True
24.767	0.3	Lose2	1.0	0.004	Yes	2.775	-0.004	4.0	GoodResponse	0	0.196	n/a	0	1	ButtonPress	AvoidedLoss	True
24.973	0.31	Lose2	1.0	n/a	Yes	2.775	n/a	n/a	GoodResponse	0	n/a	n/a	0	1	Blank	AvoidedLoss	True
25.274	1.45	Lose2	1.0	n/a	Yes	2.775	n/a	5.0	GoodResponse	0	0.017	24.291	0	1	Feedback	AvoidedLoss	True
26.728	2.775	Lose2	1.0	n/a	Yes	2.775	n/a	n/a	GoodResponse	0	0.0	n/a	0	1	ISIslide	AvoidedLoss	True
29.52	0.25	Control	1.0	0.0	Yes	2.58	0.02	n/a	GoodResponse	0	n/a	n/a	0	2	Cue	Neutral	True
29.77	4.1	Control	1.0	0.0	Yes	2.58	0.0	n/a	GoodResponse	0	n/a	n/a	0	2	Fixation	Neutral	True
33.866	0.38	Control	1.0	0.004	Yes	2.58	-0.004	4.0	GoodResponse	0	0.175	33.041	0	2	Target	Neutral	True
34.041	0.3	Control	1.0	0.004	Yes	2.58	-0.004	4.0	GoodResponse	0	0.175	n/a	0	2	ButtonPress	Neutral	True
34.251	0.32	Control	1.0	n/a	Yes	2.58	n/a	n/a	GoodResponse	0	n/a	n/a	0	2	Blank	Neutral	True
34.568	1.45	Control	1.0	n/a	Yes	2.58	n/a	5.0	GoodResponse	0	0.04	33.608	0	2	Feedback	Neutral	True
36.022	2.58	Control	1.0	n/a	Yes	2.58	n/a	n/a	GoodResponse	0	0.0	n/a	0	2	ISIslide	Neutral	True
38.63	0.25	Win2	1.0	0.0	Yes	2.82	0.03	n/a	GoodResponse	1	n/a	n/a	1	3	Cue	Win	True
38.881	3.95	Win2	1.0	0.0	Yes	2.82	0.001	n/a	GoodResponse	1	n/a	n/a	1	3	Fixation	Win	True
42.826	0.37	Win2	1.0	0.004	Yes	2.82	-0.004	4.0	GoodResponse	1	0.218	42.044	1	3	Target	Win	True
43.044	0.3	Win2	1.0	0.004	Yes	2.82	-0.004	4.0	GoodResponse	1	0.218	n/a	1	3	ButtonPress	Win	True
43.211	0.33	Win2	1.0	n/a	Yes	2.82	n/a	n/a	GoodResponse	1	n/a	n/a	1	3	Blank	Win	True
43.528	1.45	Win2	1.0	n/a	Yes	2.82	n/a	5.0	GoodResponse	1	0.008	42.536	1	3	Feedback	Win	True
44.983	2.82	Win2	1.0	n/a	Yes	2.82	n/a	n/a	GoodResponse	1	0.0	n/a	1	3	ISIslide	Win	True
47.825	0.25	Win2	1.0	0.0	Yes	3.275	0.025	n/a	GoodResponse	1	n/a	n/a	2	4	Cue	Win	True
48.075	4.0	Win2	1.0	0.0	Yes	3.275	0.0	n/a	GoodResponse	1	n/a	n/a	2	4	Fixation	Win	True
52.071	0.36	Win2	1.0	0.004	Yes	3.275	-0.004	4.0	GoodResponse	1	0.199	51.27	2	4	Target	Win	True
52.27	0.3	Win2	1.0	0.004	Yes	3.275	-0.004	4.0	GoodResponse	1	0.199	n/a	2	4	ButtonPress	Win	True
52.438	0.34	Win2	1.0	n/a	Yes	3.275	n/a	n/a	GoodResponse	1	n/a	n/a	2	4	Blank	Win	True
52.773	1.45	Win2	1.0	n/a	Yes	3.275	n/a	5.0	GoodResponse	1	0.031	51.804	2	4	Feedback	Win	True
54.227	3.275	Win2	1.0	n/a	Yes	3.275	n/a	n/a	GoodResponse	1	0.0	n/a	2	4	ISIslide	Win	True
57.52	0.25	Win2	1.0	0.0	Yes	2.78	0.02	n/a	GoodResponse	1	n/a	n/a	3	5	Cue	Win	True
57.771	4.0	Win2	1.0	0.0	Yes	2.78	0.001	n/a	GoodResponse	1	n/a	n/a	3	5	Fixation	Win	True
61.766	0.35	Win2	1.0	0.004	Yes	2.78	-0.004	4.0	GoodResponse	1	0.197	60.963	3	5	Target	Win	True
61.963	0.3	Win2	1.0	0.004	Yes	2.78	-0.004	4.0	GoodResponse	1	0.197	n/a	3	5	ButtonPress	Win	True
62.117	0.35	Win2	1.0	n/a	Yes	2.78	n/a	n/a	GoodResponse	1	n/a	n/a	3	5	Blank	Win	True
62.468	1.45	Win2	1.0	n/a	Yes	2.78	n/a	5.0	GoodResponse	1	0.043	61.511	3	5	Feedback	Win	True
63.923	2.78	Win2	1.0	n/a	Yes	2.78	n/a	n/a	GoodResponse	1	0.0	n/a	3	5	ISIslide	Win	True
66.731	0.25	Lose2	0.8571	0.0	No	2.719	0.031	n/a	NoResponse	-1	n/a	n/a	2	6	Cue	Loss	True
66.982	3.95	Lose2	0.8571	0.0	No	2.719	0.001	4.0	NoResponse	-1	3.482	69.464	2	6	Fixation	Loss	True
70.464	0.3	Lose2	0.8571	0.0	No	2.719	0.001	4.0	NoResponse	-1	3.482	n/a	2	6	ButtonPress	Loss	True
70.927	0.34	Lose2	0.8571	0.004	No	2.719	-0.004	n/a	NoResponse	-1	n/a	n/a	2	6	Target	Loss	True
71.278	0.36	Lose2	0.8571	n/a	No	2.719	n/a	n/a	NoResponse	-1	n/a	n/a	2	6	Blank	Loss	True
71.629	1.45	Lose2	0.8571	n/a	No	2.719	n/a	5.0	NoResponse	-1	0.007	70.636	2	6	Feedback	Loss	True
73.084	2.719	Lose2	0.8571	n/a	No	2.719	n/a	n/a	NoResponse	-1	0.0	n/a	2	6	ISIslide	Loss	True
75.825	0.25	Lose2	0.875	0.0	Yes	4.025	0.025	n/a	GoodResponse	0	n/a	n/a	2	7	Cue	AvoidedLoss	False
76.076	4.05	Lose2	0.875	0.0	Yes	4.025	0.001	4.0	GoodResponse	0	2.277	77.353	2	7	Fixation	AvoidedLoss	False
78.353	0.3	Lose2	0.875	0.0	Yes	4.025	0.001	4.0	GoodResponse	0	2.277	n/a	2	7	ButtonPress	AvoidedLoss	False
80.121	0.33	Lose2	0.875	0.004	Yes	4.025	-0.004	4.0	GoodResponse	0	0.144	79.265	2	7	Target	AvoidedLoss	False
80.265	0.3	Lose2	0.875	0.004	Yes	4.025	-0.004	4.0	GoodResponse	0	0.144	n/a	2	7	ButtonPress	AvoidedLoss	False
80.456	0.37	Lose2	0.875	n/a	Yes	4.025	n/a	n/a	GoodResponse	0	n/a	n/a	2	7	Blank	AvoidedLoss	False
80.824	1.45	Lose2	0.875	n/a	Yes	4.025	n/a	5.0	GoodResponse	0	0.029	79.853	2	7	Feedback	AvoidedLoss	False
82.278	4.025	Lose2	0.875	n/a	Yes	4.025	n/a	n/a	GoodResponse	0	0.0	n/a	2	7	ISIslide	AvoidedLoss	False
86.323	0.25	Lose2	0.8889	0.001	Yes	3.027	0.023	n/a	GoodResponse	0	n/a	n/a	2	8	Cue	AvoidedLoss	True
86.574	3.95	Lose2	0.8889	0.0	Yes	3.027	0.001	n/a	GoodResponse	0	n/a	n/a	2	8	Fixation	AvoidedLoss	True
90.519	0.32	Lose2	0.8889	0.004	Yes	3.027	-0.004	4.0	GoodResponse	0	0.199	89.718	2	8	Target	AvoidedLoss	True
90.718	0.3	Lose2	0.8889	0.004	Yes	3.027	-0.004	4.0	GoodResponse	0	0.199	n/a	2	8	ButtonPress	AvoidedLoss	True
90.854	0.38	Lose2	0.8889	n/a	Yes	3.027	n/a	n/a	GoodResponse	0	n/a	n/a	2	8	Blank	AvoidedLoss	True
91.221	1.45	Lose2	0.8889	n/a	Yes	3.027	n/a	5.0	GoodResponse	0	0.021	90.242	2	8	Feedback	AvoidedLoss	True
92.676	3.027	Lose2	0.8889	n/a	Yes	3.027	n/a	n/a	GoodResponse	0	0.0	n/a	2	8	ISIslide	AvoidedLoss	True
95.718	0.25	Lose2	0.9	0.0	Yes	3.132	0.018	n/a	GoodResponse	0	n/a	n/a	2	9	Cue	AvoidedLoss	True
95.969	3.95	Lose2	0.9	0.0	Yes	3.132	0.001	n/a	GoodResponse	0	n/a	n/a	2	9	Fixation	AvoidedLoss	True
99.914	0.31	Lose2	0.9	0.004	Yes	3.132	-0.004	4.0	GoodResponse	0	0.202	99.116	2	9	Target	AvoidedLoss	True
100.116	0.3	Lose2	0.9	0.004	Yes	3.132	-0.004	4.0	GoodResponse	0	0.202	n/a	2	9	ButtonPress	AvoidedLoss	True
100.232	0.39	Lose2	0.9	n/a	Yes	3.132	n/a	n/a	GoodResponse	0	n/a	n/a	2	9	Blank	AvoidedLoss	True
100.616	1.45	Lose2	0.9	n/a	Yes	3.132	n/a	5.0	GoodResponse	0	0.041	99.657	2	9	Feedback	AvoidedLoss	True
102.071	3.132	Lose2	0.9	n/a	Yes	3.132	n/a	n/a	GoodResponse	0	0.0	n/a	2	9	ISIslide	AvoidedLoss	True
105.23	0.25	Control	0.9091	0.0	Yes	3.27	0.03	n/a	GoodResponse	0	n/a	n/a	2	10	Cue	Neutral	True
105.481	4.0	Control	0.9091	0.0	Yes	3.27	0.001	n/a	GoodResponse	0	n/a	n/a	2	10	Fixation	Neutral	True
109.476	0.3	Control	0.9091	0.004	Yes	3.27	-0.004	4.0	GoodResponse	0	0.216	108.692	2	10	Target	Neutral	True
109.692	0.3	Control	0.9091	0.004	Yes	3.27	-0.004	4.0	GoodResponse	0	0.216	n/a	2	10	ButtonPress	Neutral	True
109.777	0.4	Control	0.9091	n/a	Yes	3.27	n/a	n/a	GoodResponse	0	n/a	n/a	2	10	Blank	Neutral	True
110.178	1.45	Control	0.9091	n/a	Yes	3.27	n/a	5.0	GoodResponse	0	0.04	109.218	2	10	Feedback	Neutral	True
111.633	3.27	Control	0.9091	n/a	Yes	3.27	n/a	n/a	GoodResponse	0	0.0	n/a	2	10	ISIslide	Neutral	True
114.926	0.25	Lose2	0.8332999999999999	0.0	No	2.724	0.026	n/a	NoResponse	-1	n/a	n/a	1	11	Cue	Loss	False
115.177	4.05	Lose2	0.8332999999999999	0.0	No	2.724	0.001	4.0	NoResponse	-1	3.938	118.115	1	11	Fixation	Loss	False
119.115	0.3	Lose2	0.8332999999999999	0.0	No	2.724	0.001	4.0	NoResponse	-1	3.938	n/a	1	11	ButtonPress	Loss	False
119.222	0.29	Lose2	0.8332999999999999	0.004	No	2.724	-0.004	4.0	NoResponse	-1	0.392	118.614	1	11	Target	Loss	False
119.523	0.41	Lose2	0.8332999999999999	n/a	No	2.724	n/a	n/a	NoResponse	-1	n/a	n/a	1	11	Blank	Loss	False
119.614	0.3	Lose2	0.8332999999999999	0.004	No	2.724	-0.004	4.0	NoResponse	-1	0.392	n/a	1	11	ButtonPress	Loss	False
119.924	1.45	Lose2	0.8332999999999999	n/a	No	2.724	n/a	5.0	NoResponse	-1	0.002	118.926	1	11	Feedback	Loss	False
121.379	2.724	Lose2	0.8332999999999999	n/a	No	2.724	n/a	n/a	NoResponse	-1	0.0	n/a	1	11	ISIslide	Loss	False
124.12	0.25	Control	0.8462000000000001	0.0	Yes	2.98	0.02	n/a	GoodResponse	0	n/a	n/a	1	12	Cue	Neutral	True
124.371	3.9	Control	0.8462000000000001	0.0	Yes	2.98	0.001	n/a	GoodResponse	0	n/a	n/a	1	12	Fixation	Neutral	True
128.266	0.28	Control	0.8462000000000001	0.004	Yes	2.98	-0.004	4.0	GoodResponse	0	0.217	127.483	1	12	Target	Neutral	True
128.483	0.3	Control	0.8462000000000001	0.004	Yes	2.98	-0.004	4.0	GoodResponse	0	0.217	n/a	1	12	ButtonPress	Neutral	True
128.55	0.42	Control	0.8462000000000001	n/a	Yes	2.98	n/a	n/a	GoodResponse	0	n/a	n/a	1	12	Blank	Neutral	True
128.968	1.45	Control	0.8462000000000001	n/a	Yes	2.98	n/a	5.0	GoodResponse	0	0.031	127.999	1	12	Feedback	Neutral	True
130.422	2.98	Control	0.8462000000000001	n/a	Yes	2.98	n/a	n/a	GoodResponse	0	0.0	n/a	1	12	ISIslide	Neutral	True
133.431	0.25	Control	0.8571	0.0	Yes	2.769	0.031	n/a	GoodResponse	0	n/a	n/a	1	13	Cue	Neutral	True
133.682	4.0	Control	0.8571	0.0	Yes	2.769	0.001	n/a	GoodResponse	0	n/a	n/a	1	13	Fixation	Neutral	True
137.677	0.27	Control	0.8571	0.004	Yes	2.769	-0.004	4.0	GoodResponse	0	0.211	136.888	1	13	Target	Neutral	True
137.888	0.3	Control	0.8571	0.004	Yes	2.769	-0.004	4.0	GoodResponse	0	0.211	n/a	1	13	ButtonPress	Neutral	True
137.962	0.43	Control	0.8571	n/a	Yes	2.769	n/a	n/a	GoodResponse	0	n/a	n/a	1	13	Blank	Neutral	True
138.38	1.45	Control	0.8571	n/a	Yes	2.769	n/a	5.0	GoodResponse	0	0.034	137.414	1	13	Feedback	Neutral	True
139.834	2.769	Control	0.8571	n/a	Yes	2.769	n/a	n/a	GoodResponse	0	0.0	n/a	1	13	ISIslide	Neutral	True
142.626	0.25	Win2	0.8667	0.0	Yes	2.674	0.026	n/a	GoodResponse	1	n/a	n/a	2	14	Cue	Win	True
142.876	4.1	Win2	0.8667	0.0	Yes	2.674	0.0	n/a	GoodResponse	1	n/a	n/a	2	14	Fixation	Win	True
146.972	0.26	Win2	0.8667	0.004	Yes	2.674	-0.004	4.0	GoodResponse	1	0.19	146.162	2	14	Target	Win	True
147.162	0.3	Win2	0.8667	0.004	Yes	2.674	-0.004	4.0	GoodResponse	1	0.19	n/a	2	14	ButtonPress	Win	True
147.239	0.44	Win2	0.8667	n/a	Yes	2.674	n/a	n/a	GoodResponse	1	n/a	n/a	2	14	Blank	Win	True
147.674	1.45	Win2	0.8667	n/a	Yes	2.674	n/a	5.0	GoodResponse	1	0.008	146.682	2	14	Feedback	Win	True
149.128	2.674	Win2	0.8667	n/a	Yes	2.674	n/a	n/a	GoodResponse	1	0.0	n/a	2	14	ISIslide	Win	True
151.82	0.25	Control	0.875	0.0	Yes	2.98	0.02	n/a	GoodResponse	0	n/a	n/a	2	15	Cue	Neutral	True
152.071	4.0	Control	0.875	0.0	Yes	2.98	0.001	n/a	GoodResponse	0	n/a	n/a	2	15	Fixation	Neutral	True
156.066	0.25	Control	0.875	0.004	Yes	2.98	-0.004	4.0	GoodResponse	0	0.201	155.267	2	15	Target	Neutral	True
156.267	0.3	Control	0.875	0.004	Yes	2.98	-0.004	4.0	GoodResponse	0	0.201	n/a	2	15	ButtonPress	Neutral	True
156.317	0.45	Control	0.875	n/a	Yes	2.98	n/a	n/a	GoodResponse	0	n/a	n/a	2	15	Blank	Neutral	True
156.768	1.45	Control	0.875	n/a	Yes	2.98	n/a	5.0	GoodResponse	0	0.036	155.804	2	15	Feedback	Neutral	True
158.222	2.98	Control	0.875	n/a	Yes	2.98	n/a	n/a	GoodResponse	0	0.0	n/a	2	15	ISIslide	Neutral	True
161.231	0.25	Win2	0.8234999999999999	0.001	No	2.869	0.031	n/a	NoResponse	0	n/a	n/a	2	16	Cue	MissedWin	False
161.482	4.0	Win2	0.8234999999999999	0.0	No	2.869	0.001	4.0	NoResponse	0	3.245	163.727	2	16	Fixation	MissedWin	False
164.727	0.3	Win2	0.8234999999999999	0.0	No	2.869	0.001	4.0	NoResponse	0	3.245	n/a	2	16	ButtonPress	MissedWin	False
165.478	0.24	Win2	0.8234999999999999	0.003	No	2.869	-0.003	4.0	NoResponse	0	0.328	164.806	2	16	Target	MissedWin	False
165.728	0.46	Win2	0.8234999999999999	n/a	No	2.869	n/a	n/a	NoResponse	0	n/a	n/a	2	16	Blank	MissedWin	False
165.806	0.3	Win2	0.8234999999999999	0.003	No	2.869	-0.003	4.0	NoResponse	0	0.328	n/a	2	16	ButtonPress	MissedWin	False
166.18	1.45	Win2	0.8234999999999999	n/a	No	2.869	n/a	5.0	NoResponse	0	0.038	165.218	2	16	Feedback	MissedWin	False
167.634	2.869	Win2	0.8234999999999999	n/a	No	2.869	n/a	n/a	NoResponse	0	0.0	n/a	2	16	ISIslide	MissedWin	False
170.526	0.25	Lose2	0.7778	0.0	No	2.724	0.026	n/a	NoResponse	-1	n/a	n/a	1	17	Cue	Loss	False
170.777	3.95	Lose2	0.7778	0.0	No	2.724	0.001	4.0	NoResponse	-1	1.495	171.272	1	17	Fixation	Loss	False
172.272	0.3	Lose2	0.7778	0.0	No	2.724	0.001	4.0	NoResponse	-1	1.495	n/a	1	17	ButtonPress	Loss	False
174.722	0.23	Lose2	0.7778	0.004	No	2.724	-0.004	4.0	NoResponse	-1	0.25	173.972	1	17	Target	Loss	False
174.956	0.47	Lose2	0.7778	n/a	No	2.724	n/a	n/a	NoResponse	-1	n/a	n/a	1	17	Blank	Loss	False
174.972	0.3	Lose2	0.7778	0.004	No	2.724	-0.004	4.0	NoResponse	-1	0.25	n/a	1	17	ButtonPress	Loss	False
175.424	1.45	Lose2	0.7778	n/a	No	2.724	n/a	5.0	NoResponse	-1	0.014	174.438	1	17	Feedback	Loss	False
176.878	2.724	Lose2	0.7778	n/a	No	2.724	n/a	n/a	NoResponse	-1	0.0	n/a	1	17	ISIslide	Loss	False
179.62	0.25	Lose2	0.7895	0.0	Yes	2.73	0.02	n/a	GoodResponse	0	n/a	n/a	1	18	Cue	AvoidedLoss	True
179.871	4.05	Lose2	0.7895	0.0	Yes	2.73	0.001	n/a	GoodResponse	0	n/a	n/a	1	18	Fixation	AvoidedLoss	True
183.916	0.22	Lose2	0.7895	0.004	Yes	2.73	-0.004	4.0	GoodResponse	0	0.191	183.107	1	18	Target	AvoidedLoss	True
184.107	0.3	Lose2	0.7895	0.004	Yes	2.73	-0.004	4.0	GoodResponse	0	0.191	n/a	1	18	ButtonPress	AvoidedLoss	True
184.15	0.48	Lose2	0.7895	n/a	Yes	2.73	n/a	n/a	GoodResponse	0	n/a	n/a	1	18	Blank	AvoidedLoss	True
184.618	1.45	Lose2	0.7895	n/a	Yes	2.73	n/a	5.0	GoodResponse	0	0.039	183.657	1	18	Feedback	AvoidedLoss	True
186.073	2.73	Lose2	0.7895	n/a	Yes	2.73	n/a	n/a	GoodResponse	0	0.0	n/a	1	18	ISIslide	AvoidedLoss	True
188.831	0.25	Control	0.75	0.0	No	2.919	0.031	n/a	LatePress	0	n/a	n/a	1	19	Cue	Neutral	True
189.082	3.95	Control	0.75	0.0	No	2.919	0.001	n/a	LatePress	0	n/a	n/a	1	19	Fixation	Neutral	True
193.027	0.21	Control	0.75	0.004	No	2.919	-0.004	4.0	LatePress	0	0.212	192.239	1	19	Target	Neutral	True
193.239	0.3	Control	0.75	0.004	No	2.919	-0.004	4.0	LatePress	0	0.212	n/a	1	19	ButtonPress	Neutral	True
193.244	0.49	Control	0.75	n/a	No	2.919	n/a	n/a	LatePress	0	n/a	n/a	1	19	Blank	Neutral	True
193.729	1.45	Control	0.75	n/a	No	2.919	n/a	5.0	LatePress	0	0.002	192.731	1	19	Feedback	Neutral	True
195.183	2.919	Control	0.75	n/a	No	2.919	n/a	n/a	LatePress	0	0.0	n/a	1	19	ISIslide	Neutral	True
198.125	0.25	Control	0.7619	0.001	Yes	2.625	0.025	n/a	GoodResponse	0	n/a	n/a	1	20	Cue	Neutral	True
198.376	4.05	Control	0.7619	0.0	Yes	2.625	0.001	n/a	GoodResponse	0	n/a	n/a	1	20	Fixation	Neutral	True
202.422	0.2	Control	0.7619	0.003	Yes	2.625	-0.003	4.0	GoodResponse	0	0.198	201.62	1	20	Target	Neutral	True
202.62	0.3	Control	0.7619	0.003	Yes	2.625	-0.003	4.0	GoodResponse	0	0.198	n/a	1	20	ButtonPress	Neutral	True
202.622	0.5	Control	0.7619	n/a	Yes	2.625	n/a	n/a	GoodResponse	0	n/a	n/a	1	20	Blank	Neutral	True
203.124	1.45	Control	0.7619	n/a	Yes	2.625	n/a	5.0	GoodResponse	0	0.021	202.145	1	20	Feedback	Neutral	True
204.578	2.625	Control	0.7619	n/a	Yes	2.625	n/a	n/a	GoodResponse	0	0.0	n/a	1	20	ISIslide	Neutral	True
207.219	0.25	Control	0.7726999999999999	0.001	Yes	2.781	0.019	n/a	GoodResponse	0	n/a	n/a	1	21	Cue	Neutral	True
207.47	4.1	Control	0.7726999999999999	0.0	Yes	2.781	0.001	n/a	GoodResponse	0	n/a	n/a	1	21	Fixation	Neutral	True
211.566	0.19	Control	0.7726999999999999	0.003	Yes	2.781	-0.003	4.0	GoodResponse	0	0.189	210.755	1	21	Target	Neutral	True
211.755	0.3	Control	0.7726999999999999	0.003	Yes	2.781	-0.003	4.0	GoodResponse	0	0.189	n/a	1	21	ButtonPress	Neutral	True
211.766	0.51	Control	0.7726999999999999	n/a	Yes	2.781	n/a	n/a	GoodResponse	0	n/a	n/a	1	21	Blank	Neutral	True
212.268	1.45	Control	0.7726999999999999	n/a	Yes	2.781	n/a	5.0	GoodResponse	0	0.048	211.316	1	21	Feedback	Neutral	True
213.722	2.781	Control	0.7726999999999999	n/a	Yes	2.781	n/a	n/a	GoodResponse	0	0.0	n/a	1	21	ISIslide	Neutral	True
216.531	0.25	Control	0.7391	0.0	No	2.769	0.031	n/a	NoResponse	0	n/a	n/a	1	22	Cue	Neutral	True
216.781	4.0	Control	0.7391	0.001	No	2.769	0.0	n/a	NoResponse	0	n/a	n/a	1	22	Fixation	Neutral	True
220.777	0.18	Control	0.7391	0.004	No	2.769	-0.004	4.0	NoResponse	0	0.208	219.985	1	22	Target	Neutral	True
220.961	0.52	Control	0.7391	n/a	No	2.769	n/a	n/a	NoResponse	0	n/a	n/a	1	22	Blank	Neutral	True
220.985	0.3	Control	0.7391	0.004	No	2.769	-0.004	4.0	NoResponse	0	0.208	n/a	1	22	ButtonPress	Neutral	True
221.479	1.45	Control	0.7391	n/a	No	2.769	n/a	5.0	NoResponse	0	0.008	220.487	1	22	Feedback	Neutral	True
222.933	2.769	Control	0.7391	n/a	No	2.769	n/a	n/a	NoResponse	0	0.0	n/a	1	22	ISIslide	Neutral	True
225.725	0.25	Control	0.7082999999999999	0.0	No	2.775	0.025	n/a	NoResponse	0	n/a	n/a	1	23	Cue	Neutral	True
225.976	3.9	Control	0.7082999999999999	0.0	No	2.775	0.001	n/a	NoResponse	0	n/a	n/a	1	23	Fixation	Neutral	True
229.871	0.17	Control	0.7082999999999999	0.004	No	2.775	-0.004	4.0	NoResponse	0	0.197	229.068	1	23	Target	Neutral	True
230.055	0.53	Control	0.7082999999999999	n/a	No	2.775	n/a	n/a	NoResponse	0	n/a	n/a	1	23	Blank	Neutral	True
230.068	0.3	Control	0.7082999999999999	0.004	No	2.775	-0.004	4.0	NoResponse	0	0.197	n/a	1	23	ButtonPress	Neutral	True
230.573	1.45	Control	0.7082999999999999	n/a	No	2.775	n/a	5.0	NoResponse	0	0.036	229.609	1	23	Feedback	Neutral	True
232.027	2.775	Control	0.7082999999999999	n/a	No	2.775	n/a	n/a	NoResponse	0	0.0	n/a	1	23	ISIslide	Neutral	True
234.819	0.25	Win2	0.68	0.0	No	3.131	0.019	n/a	NoResponse	0	n/a	n/a	1	24	Cue	MissedWin	True
235.07	3.95	Win2	0.68	0.0	No	3.131	0.001	n/a	NoResponse	0	n/a	n/a	1	24	Fixation	MissedWin	True
239.015	0.16	Win2	0.68	0.004	No	3.131	-0.004	4.0	NoResponse	0	0.207	238.222	1	24	Target	MissedWin	True
239.182	0.54	Win2	0.68	n/a	No	3.131	n/a	n/a	NoResponse	0	n/a	n/a	1	24	Blank	MissedWin	True
239.222	0.3	Win2	0.68	0.004	No	3.131	-0.004	4.0	NoResponse	0	0.207	n/a	1	24	ButtonPress	MissedWin	True
239.717	1.45	Win2	0.68	n/a	No	3.131	n/a	5.0	NoResponse	0	0.013	238.73	1	24	Feedback	MissedWin	True
241.171	3.131	Win2	0.68	n/a	No	3.131	n/a	n/a	NoResponse	0	0.0	n/a	1	24	ISIslide	MissedWin	True
244.331	0.25	Win2	0.6537999999999999	0.0	No	3.069	0.031	n/a	NoResponse	0	n/a	n/a	1	25	Cue	MissedWin	True
244.581	4.0	Win2	0.6537999999999999	0.001	No	3.069	0.0	n/a	NoResponse	0	n/a	n/a	1	25	Fixation	MissedWin	True
248.577	0.15	Win2	0.6537999999999999	0.004	No	3.069	-0.004	4.0	NoResponse	0	0.206	247.783	1	25	Target	MissedWin	True
248.727	0.55	Win2	0.6537999999999999	n/a	No	3.069	n/a	n/a	NoResponse	0	n/a	n/a	1	25	Blank	MissedWin	True
248.783	0.3	Win2	0.6537999999999999	0.004	No	3.069	-0.004	4.0	NoResponse	0	0.206	n/a	1	25	ButtonPress	MissedWin	True
249.279	1.45	Win2	0.6537999999999999	n/a	No	3.069	n/a	5.0	NoResponse	0	0.012	248.291	1	25	Feedback	MissedWin	True
250.733	3.069	Win2	0.6537999999999999	n/a	No	3.069	n/a	n/a	NoResponse	0	0.0	n/a	1	25	ISIslide	MissedWin	True
253.826	0.25	Win2	0.6296	0.0	No	2.924	0.026	n/a	NoResponse	0	n/a	n/a	1	26	Cue	MissedWin	True
254.077	3.95	Win2	0.6296	0.0	No	2.924	0.001	n/a	NoResponse	0	n/a	n/a	1	26	Fixation	MissedWin	True
258.022	0.16	Win2	0.6296	0.004	No	2.924	-0.004	4.0	NoResponse	0	0.233	257.255	1	26	Target	MissedWin	True
258.189	0.54	Win2	0.6296	n/a	No	2.924	n/a	n/a	NoResponse	0	n/a	n/a	1	26	Blank	MissedWin	True
258.255	0.3	Win2	0.6296	0.004	No	2.924	-0.004	4.0	NoResponse	0	0.233	n/a	1	26	ButtonPress	MissedWin	True
258.724	1.45	Win2	0.6296	n/a	No	2.924	n/a	5.0	NoResponse	0	0.031	257.755	1	26	Feedback	MissedWin	True
260.178	2.924	Win2	0.6296	n/a	No	2.924	n/a	n/a	NoResponse	0	0.0	n/a	1	26	ISIslide	MissedWin	True
263.12	0.25	Lose2	0.6429	0.001	Yes	2.83	0.02	n/a	GoodResponse	0	n/a	n/a	1	27	Cue	AvoidedLoss	False
263.371	4.05	Lose2	0.6429	0.0	Yes	2.83	0.001	4.0	GoodResponse	0	0.121	262.492	1	27	Fixation	AvoidedLoss	False
263.492	0.3	Lose2	0.6429	0.0	Yes	2.83	0.001	4.0	GoodResponse	0	0.121	n/a	1	27	ButtonPress	AvoidedLoss	False
267.417	0.17	Lose2	0.6429	0.003	Yes	2.83	-0.003	4.0	GoodResponse	0	0.158	266.575	1	27	Target	AvoidedLoss	False
267.575	0.3	Lose2	0.6429	0.003	Yes	2.83	-0.003	4.0	GoodResponse	0	0.158	n/a	1	27	ButtonPress	AvoidedLoss	False
267.601	0.53	Lose2	0.6429	n/a	Yes	2.83	n/a	n/a	GoodResponse	0	n/a	n/a	1	27	Blank	AvoidedLoss	False
268.119	1.45	Lose2	0.6429	n/a	Yes	2.83	n/a	5.0	GoodResponse	0	0.006	267.125	1	27	Feedback	AvoidedLoss	False
269.573	2.83	Lose2	0.6429	n/a	Yes	2.83	n/a	n/a	GoodResponse	0	0.0	n/a	1	27	ISIslide	AvoidedLoss	False
272.415	0.25	Control	0.6207	0.0	No	2.835	0.015	n/a	NoResponse	0	n/a	n/a	1	28	Cue	Neutral	False
272.666	4.05	Control	0.6207	0.0	No	2.835	0.001	4.0	NoResponse	0	1.297	272.963	1	28	Fixation	Neutral	False
273.963	0.3	Control	0.6207	0.0	No	2.835	0.001	4.0	NoResponse	0	1.297	n/a	1	28	ButtonPress	Neutral	False
276.711	0.18	Control	0.6207	0.004	No	2.835	-0.004	4.0	NoResponse	0	0.192	275.903	1	28	Target	Neutral	False
276.895	0.52	Control	0.6207	n/a	No	2.835	n/a	n/a	NoResponse	0	n/a	n/a	1	28	Blank	Neutral	False
276.903	0.3	Control	0.6207	0.004	No	2.835	-0.004	4.0	NoResponse	0	0.192	n/a	1	28	ButtonPress	Neutral	False
277.413	1.45	Control	0.6207	n/a	No	2.835	n/a	5.0	NoResponse	0	0.025	276.438	1	28	Feedback	Neutral	False
278.868	2.835	Control	0.6207	n/a	No	2.835	n/a	n/a	NoResponse	0	0.0	n/a	1	28	ISIslide	Neutral	False
281.726	0.25	Lose2	0.6333	0.0	Yes	2.824	0.026	n/a	GoodResponse	0	n/a	n/a	1	29	Cue	AvoidedLoss	False
281.977	3.95	Lose2	0.6333	0.0	Yes	2.824	0.001	4.0	GoodResponse	0	3.24	284.217	1	29	Fixation	AvoidedLoss	False
285.217	0.3	Lose2	0.6333	0.0	Yes	2.824	0.001	4.0	GoodResponse	0	3.24	n/a	1	29	ButtonPress	AvoidedLoss	False
285.922	0.19	Lose2	0.6333	0.004	Yes	2.824	-0.004	4.0	GoodResponse	0	0.108	285.03	1	29	Target	AvoidedLoss	False
286.03	0.3	Lose2	0.6333	0.004	Yes	2.824	-0.004	4.0	GoodResponse	0	0.108	n/a	1	29	ButtonPress	AvoidedLoss	False
286.123	0.51	Lose2	0.6333	n/a	Yes	2.824	n/a	n/a	GoodResponse	0	n/a	n/a	1	29	Blank	AvoidedLoss	False
286.624	1.45	Lose2	0.6333	n/a	Yes	2.824	n/a	5.0	GoodResponse	0	0.034	285.658	1	29	Feedback	AvoidedLoss	False
288.079	2.824	Lose2	0.6333	n/a	Yes	2.824	n/a	n/a	GoodResponse	0	0.0	n/a	1	29	ISIslide	AvoidedLoss	False
290.92	0.25	Win2	0.6129	0.001	No	2.78	0.02	n/a	PrematurePress	0	n/a	n/a	1	30	Cue	MissedWin	False
291.171	3.9	Win2	0.6129	0.0	No	2.78	0.001	4.0	PrematurePress	0	1.68	291.851	1	30	Fixation	MissedWin	False
292.851	0.3	Win2	0.6129	0.0	No	2.78	0.001	4.0	PrematurePress	0	1.68	n/a	1	30	ButtonPress	MissedWin	False
295.066	0.2	Win2	0.6129	0.004	No	2.78	-0.004	4.0	PrematurePress	0	0.094	294.16	1	30	Target	MissedWin	False
295.16	0.3	Win2	0.6129	0.004	No	2.78	-0.004	4.0	PrematurePress	0	0.094	n/a	1	30	ButtonPress	MissedWin	False
295.267	0.5	Win2	0.6129	n/a	No	2.78	n/a	n/a	PrematurePress	0	n/a	n/a	1	30	Blank	MissedWin	False
295.768	1.45	Win2	0.6129	n/a	No	2.78	n/a	5.0	PrematurePress	0	0.012	294.78	1	30	Feedback	MissedWin	False
297.223	2.78	Win2	0.6129	n/a	No	2.78	n/a	n/a	PrematurePress	0	0.0	n/a	1	30	ISIslide	MissedWin	False
300.031	0.25	Lose2	0.5938	0.0	No	2.819	0.031	n/a	PrematurePress	-1	n/a	n/a	0	31	Cue	Loss	False
300.282	4.05	Lose2	0.5938	0.0	No	2.819	0.001	4.0	PrematurePress	-1	3.659	302.941	0	31	Fixation	Loss	False
303.941	0.3	Lose2	0.5938	0.0	No	2.819	0.001	4.0	PrematurePress	-1	3.659	n/a	0	31	ButtonPress	Loss	False
304.327	0.21	Lose2	0.5938	0.004	No	2.819	-0.004	4.0	PrematurePress	-1	0.016	303.343	0	31	Target	Loss	False
304.343	0.3	Lose2	0.5938	0.004	No	2.819	-0.004	4.0	PrematurePress	-1	0.016	n/a	0	31	ButtonPress	Loss	False
304.545	0.49	Lose2	0.5938	n/a	No	2.819	n/a	n/a	PrematurePress	-1	n/a	n/a	0	31	Blank	Loss	False
305.029	1.45	Lose2	0.5938	n/a	No	2.819	n/a	5.0	PrematurePress	-1	0.019	304.048	0	31	Feedback	Loss	False
306.484	2.819	Lose2	0.5938	n/a	No	2.819	n/a	n/a	PrematurePress	-1	0.0	n/a	0	31	ISIslide	Loss	False
309.326	0.25	Lose2	0.6061	0.0	Yes	2.624	0.026	n/a	GoodResponse	0	n/a	n/a	0	32	Cue	AvoidedLoss	True
309.576	4.15	Lose2	0.6061	0.001	Yes	2.624	0.0	n/a	GoodResponse	0	n/a	n/a	0	32	Fixation	AvoidedLoss	True
313.722	0.22	Lose2	0.6061	0.004	Yes	2.624	-0.004	4.0	GoodResponse	0	0.205	312.927	0	32	Target	AvoidedLoss	True
313.927	0.3	Lose2	0.6061	0.004	Yes	2.624	-0.004	4.0	GoodResponse	0	0.205	n/a	0	32	ButtonPress	AvoidedLoss	True
313.956	0.48	Lose2	0.6061	n/a	Yes	2.624	n/a	n/a	GoodResponse	0	n/a	n/a	0	32	Blank	AvoidedLoss	True
314.424	1.45	Lose2	0.6061	n/a	Yes	2.624	n/a	5.0	GoodResponse	0	0.038	313.462	0	32	Feedback	AvoidedLoss	True
315.879	2.624	Lose2	0.6061	n/a	Yes	2.624	n/a	n/a	GoodResponse	0	0.0	n/a	0	32	ISIslide	AvoidedLoss	True
318.52	0.25	Win2	0.5882000000000001	0.0	No	2.68	0.02	n/a	NoResponse	0	n/a	n/a	0	33	Cue	MissedWin	True
318.771	4.0	Win2	0.5882000000000001	0.0	No	2.68	0.001	4.0	NoResponse	0	3.99	321.761	0	33	Fixation	MissedWin	True
322.761	0.3	Win2	0.5882000000000001	0.0	No	2.68	0.001	4.0	NoResponse	0	3.99	n/a	0	33	ButtonPress	MissedWin	True
322.766	0.23	Win2	0.5882000000000001	0.004	No	2.68	-0.004	n/a	NoResponse	0	n/a	n/a	0	33	Target	MissedWin	True
323	0.47	Win2	0.5882000000000001	n/a	No	2.68	n/a	n/a	NoResponse	0	n/a	n/a	0	33	Blank	MissedWin	True
323.468	1.45	Win2	0.5882000000000001	n/a	No	2.68	n/a	5.0	NoResponse	0	0.018	322.486	0	33	Feedback	MissedWin	True
324.922	2.68	Win2	0.5882000000000001	n/a	No	2.68	n/a	n/a	NoResponse	0	0.0	n/a	0	33	ISIslide	MissedWin	True
327.631	0.25	Lose2	0.6	0.0	Yes	2.619	0.031	n/a	GoodResponse	0	n/a	n/a	0	34	Cue	AvoidedLoss	True
327.881	4.05	Lose2	0.6	0.0	Yes	2.619	0.0	n/a	GoodResponse	0	n/a	n/a	0	34	Fixation	AvoidedLoss	True
331.927	0.24	Lose2	0.6	0.004	Yes	2.619	-0.004	4.0	GoodResponse	0	0.189	331.116	0	34	Target	AvoidedLoss	True
332.116	0.3	Lose2	0.6	0.004	Yes	2.619	-0.004	4.0	GoodResponse	0	0.189	n/a	0	34	ButtonPress	AvoidedLoss	True
332.178	0.46	Lose2	0.6	n/a	Yes	2.619	n/a	n/a	GoodResponse	0	n/a	n/a	0	34	Blank	AvoidedLoss	True
332.629	1.45	Lose2	0.6	n/a	Yes	2.619	n/a	5.0	GoodResponse	0	0.028	331.657	0	34	Feedback	AvoidedLoss	True
334.083	2.619	Lose2	0.6	n/a	Yes	2.619	n/a	n/a	GoodResponse	0	0.0	n/a	0	34	ISIslide	AvoidedLoss	True
336.725	0.25	Lose2	0.5832999999999999	0.0	No	2.675	0.025	n/a	NoResponse	-1	n/a	n/a	-1	35	Cue	Loss	True
336.975	4.0	Lose2	0.5832999999999999	0.0	No	2.675	0.0	4.0	NoResponse	-1	3.931	339.906	-1	35	Fixation	Loss	True
340.906	0.3	Lose2	0.5832999999999999	0.0	No	2.675	0.0	4.0	NoResponse	-1	3.931	n/a	-1	35	ButtonPress	Loss	True
340.971	0.25	Lose2	0.5832999999999999	0.004	No	2.675	-0.004	n/a	NoResponse	-1	n/a	n/a	-1	35	Target	Loss	True
341.221	0.45	Lose2	0.5832999999999999	n/a	No	2.675	n/a	n/a	NoResponse	-1	n/a	n/a	-1	35	Blank	Loss	True
341.673	1.45	Lose2	0.5832999999999999	n/a	No	2.675	n/a	5.0	NoResponse	-1	0.009	340.682	-1	35	Feedback	Loss	True
343.127	2.675	Lose2	0.5832999999999999	n/a	No	2.675	n/a	n/a	NoResponse	-1	0.0	n/a	-1	35	ISIslide	Loss	True
345.818	0.25	Control	0.5676	0.001	No	2.682	0.018	n/a	NoResponse	0	n/a	n/a	-1	36	Cue	Neutral	False
346.069	4.0	Control	0.5676	0.0	No	2.682	0.001	4.0	NoResponse	0	2.169	347.238	-1	36	Fixation	Neutral	False
348.238	0.3	Control	0.5676	0.0	No	2.682	0.001	4.0	NoResponse	0	2.169	n/a	-1	36	ButtonPress	Neutral	False
350.065	0.26	Control	0.5676	0.003	No	2.682	-0.003	4.0	NoResponse	0	0.392	349.457	-1	36	Target	Neutral	False
350.332	0.44	Control	0.5676	n/a	No	2.682	n/a	n/a	NoResponse	0	n/a	n/a	-1	36	Blank	Neutral	False
350.457	0.3	Control	0.5676	0.003	No	2.682	-0.003	4.0	NoResponse	0	0.392	n/a	-1	36	ButtonPress	Neutral	False
350.767	1.45	Control	0.5676	n/a	No	2.682	n/a	5.0	NoResponse	0	0.037	349.804	-1	36	Feedback	Neutral	False
352.221	2.682	Control	0.5676	n/a	No	2.682	n/a	n/a	NoResponse	0	0.0	n/a	-1	36	ISIslide	Neutral	False
354.929	0.25	Win2	0.5789	0.0	Yes	2.871	0.029	n/a	GoodResponse	1	n/a	n/a	0	37	Cue	Win	True
355.18	4.0	Win2	0.5789	0.0	Yes	2.871	0.001	n/a	GoodResponse	1	n/a	n/a	0	37	Fixation	Win	True
359.175	0.27	Win2	0.5789	0.004	Yes	2.871	-0.004	4.0	GoodResponse	1	0.187	358.362	0	37	Target	Win	True
359.362	0.3	Win2	0.5789	0.004	Yes	2.871	-0.004	4.0	GoodResponse	1	0.187	n/a	0	37	ButtonPress	Win	True
359.459	0.43	Win2	0.5789	n/a	Yes	2.871	n/a	n/a	GoodResponse	1	n/a	n/a	0	37	Blank	Win	True
359.877	1.45	Win2	0.5789	n/a	Yes	2.871	n/a	5.0	GoodResponse	1	0.049	358.926	0	37	Feedback	Win	True
361.332	2.871	Win2	0.5789	n/a	Yes	2.871	n/a	n/a	GoodResponse	1	0.0	n/a	0	37	ISIslide	Win	True
364.224	0.25	Lose2	0.5897	0.0	Yes	2.826	0.024	n/a	GoodResponse	0	n/a	n/a	0	38	Cue	AvoidedLoss	True
364.474	3.95	Lose2	0.5897	0.001	Yes	2.826	0.0	n/a	GoodResponse	0	n/a	n/a	0	38	Fixation	AvoidedLoss	True
368.42	0.28	Lose2	0.5897	0.004	Yes	2.826	-0.004	4.0	GoodResponse	0	0.2	367.62	0	38	Target	AvoidedLoss	True
368.62	0.3	Lose2	0.5897	0.004	Yes	2.826	-0.004	4.0	GoodResponse	0	0.2	n/a	0	38	ButtonPress	AvoidedLoss	True
368.704	0.42	Lose2	0.5897	n/a	Yes	2.826	n/a	n/a	GoodResponse	0	n/a	n/a	0	38	Blank	AvoidedLoss	True
369.122	1.45	Lose2	0.5897	n/a	Yes	2.826	n/a	5.0	GoodResponse	0	0.024	368.146	0	38	Feedback	AvoidedLoss	True
370.576	2.826	Lose2	0.5897	n/a	Yes	2.826	n/a	n/a	GoodResponse	0	0.0	n/a	0	38	ISIslide	AvoidedLoss	True
373.418	0.25	Win2	0.6	0.0	Yes	2.982	0.018	n/a	GoodResponse	1	n/a	n/a	1	39	Cue	Win	True
373.669	4.1	Win2	0.6	0.0	Yes	2.982	0.001	n/a	GoodResponse	1	n/a	n/a	1	39	Fixation	Win	True
377.764	0.29	Win2	0.6	0.004	Yes	2.982	-0.004	4.0	GoodResponse	1	0.199	376.963	1	39	Target	Win	True
377.963	0.3	Win2	0.6	0.004	Yes	2.982	-0.004	4.0	GoodResponse	1	0.199	n/a	1	39	ButtonPress	Win	True
378.065	0.41	Win2	0.6	n/a	Yes	2.982	n/a	n/a	GoodResponse	1	n/a	n/a	1	39	Blank	Win	True
378.466	1.45	Win2	0.6	n/a	Yes	2.982	n/a	5.0	GoodResponse	1	0.046	377.512	1	39	Feedback	Win	True
379.921	2.982	Win2	0.6	n/a	Yes	2.982	n/a	n/a	GoodResponse	1	0.0	n/a	1	39	ISIslide	Win	True
382.93	0.25	Win2	0.6098	0.0	Yes	2.72	0.03	n/a	GoodResponse	1	n/a	n/a	2	40	Cue	Win	True
383.181	3.95	Win2	0.6098	0.0	Yes	2.72	0.001	n/a	GoodResponse	1	n/a	n/a	2	40	Fixation	Win	True
387.126	0.3	Win2	0.6098	0.004	Yes	2.72	-0.004	4.0	GoodResponse	1	0.228	386.354	2	40	Target	Win	True
387.354	0.3	Win2	0.6098	0.004	Yes	2.72	-0.004	4.0	GoodResponse	1	0.228	n/a	2	40	ButtonPress	Win	True
387.427	0.4	Win2	0.6098	n/a	Yes	2.72	n/a	n/a	GoodResponse	1	n/a	n/a	2	40	Blank	Win	True
387.828	1.45	Win2	0.6098	n/a	Yes	2.72	n/a	5.0	GoodResponse	1	0.0	386.828	2	40	Feedback	Win	True
389.282	2.72	Win2	0.6098	n/a	Yes	2.72	n/a	n/a	GoodResponse	1	0.0	n/a	2	40	ISIslide	Win	True
392.024	0.25	Win2	0.619	0.0	Yes	2.776	0.024	n/a	GoodResponse	1	n/a	n/a	3	41	Cue	Win	True
392.275	3.9	Win2	0.619	0.0	Yes	2.776	0.001	n/a	GoodResponse	1	n/a	n/a	3	41	Fixation	Win	True
396.17	0.31	Win2	0.619	0.004	Yes	2.776	-0.004	4.0	GoodResponse	1	0.192	395.362	3	41	Target	Win	True
396.362	0.3	Win2	0.619	0.004	Yes	2.776	-0.004	4.0	GoodResponse	1	0.192	n/a	3	41	ButtonPress	Win	True
396.487	0.39	Win2	0.619	n/a	Yes	2.776	n/a	n/a	GoodResponse	1	n/a	n/a	3	41	Blank	Win	True
396.872	1.45	Win2	0.619	n/a	Yes	2.776	n/a	5.0	GoodResponse	1	0.029	395.901	3	41	Feedback	Win	True
398.326	2.776	Win2	0.619	n/a	Yes	2.776	n/a	n/a	GoodResponse	1	0.0	n/a	3	41	ISIslide	Win	True
401.118	0.25	Control	0.6279	0.0	Yes	2.932	0.018	n/a	GoodResponse	0	n/a	n/a	3	42	Cue	Neutral	True
401.368	3.85	Control	0.6279	0.001	Yes	2.932	0.0	n/a	GoodResponse	0	n/a	n/a	3	42	Fixation	Neutral	True
405.23	0.32	Control	0.6279	0.0	Yes	2.932	0.012	4.0	GoodResponse	0	0.216	404.446	3	42	Target	Neutral	True
405.446	0.3	Control	0.6279	0.0	Yes	2.932	0.012	4.0	GoodResponse	0	0.216	n/a	3	42	ButtonPress	Neutral	True
405.548	0.38	Control	0.6279	n/a	Yes	2.932	n/a	n/a	GoodResponse	0	n/a	n/a	3	42	Blank	Neutral	True
405.915	1.45	Control	0.6279	n/a	Yes	2.932	n/a	5.0	GoodResponse	0	0.011	404.926	3	42	Feedback	Neutral	True
407.37	2.932	Control	0.6279	n/a	Yes	2.932	n/a	n/a	GoodResponse	0	0.0	n/a	3	42	ISIslide	Neutral	True
410.329	0.25	Win2	0.6136	0.0	No	3.171	0.029	n/a	PrematurePress	0	n/a	n/a	3	43	Cue	MissedWin	True
410.579	4.0	Win2	0.6136	0.001	No	3.171	0.0	n/a	PrematurePress	0	n/a	n/a	3	43	Fixation	MissedWin	True
414.575	0.33	Win2	0.6136	0.004	No	3.171	-0.004	4.0	PrematurePress	0	0.095	413.67	3	43	Target	MissedWin	True
414.67	0.3	Win2	0.6136	0.004	No	3.171	-0.004	4.0	PrematurePress	0	0.095	n/a	3	43	ButtonPress	MissedWin	True
414.909	0.37	Win2	0.6136	n/a	No	3.171	n/a	n/a	PrematurePress	0	n/a	n/a	3	43	Blank	MissedWin	True
415.277	1.45	Win2	0.6136	n/a	No	3.171	n/a	5.0	PrematurePress	0	0.015	414.292	3	43	Feedback	MissedWin	True
416.731	3.171	Win2	0.6136	n/a	No	3.171	n/a	n/a	PrematurePress	0	0.0	n/a	3	43	ISIslide	MissedWin	True
419.924	0.25	Win2	0.6222	0.0	Yes	2.976	0.024	n/a	GoodResponse	1	n/a	n/a	4	44	Cue	Win	True
420.175	4.0	Win2	0.6222	0.0	Yes	2.976	0.001	n/a	GoodResponse	1	n/a	n/a	4	44	Fixation	Win	True
424.17	0.34	Win2	0.6222	0.004	Yes	2.976	-0.004	4.0	GoodResponse	1	0.197	423.367	4	44	Target	Win	True
424.367	0.3	Win2	0.6222	0.004	Yes	2.976	-0.004	4.0	GoodResponse	1	0.197	n/a	4	44	ButtonPress	Win	True
424.521	0.36	Win2	0.6222	n/a	Yes	2.976	n/a	n/a	GoodResponse	1	n/a	n/a	4	44	Blank	Win	True
424.872	1.45	Win2	0.6222	n/a	Yes	2.976	n/a	5.0	GoodResponse	1	0.029	423.901	4	44	Feedback	Win	True
426.327	2.976	Win2	0.6222	n/a	Yes	2.976	n/a	n/a	GoodResponse	1	0.0	n/a	4	44	ISIslide	Win	True
429.319	0.25	Control	0.6304	0.0	Yes	2.881	0.019	n/a	GoodResponse	0	n/a	n/a	4	45	Cue	Neutral	True
429.57	4.1	Control	0.6304	0.0	Yes	2.881	0.001	n/a	GoodResponse	0	n/a	n/a	4	45	Fixation	Neutral	True
433.665	0.35	Control	0.6304	0.004	Yes	2.881	-0.004	4.0	GoodResponse	0	0.184	432.849	4	45	Target	Neutral	True
433.849	0.3	Control	0.6304	0.004	Yes	2.881	-0.004	4.0	GoodResponse	0	0.184	n/a	4	45	ButtonPress	Neutral	True
434.016	0.35	Control	0.6304	n/a	Yes	2.881	n/a	n/a	GoodResponse	0	n/a	n/a	4	45	Blank	Neutral	True
434.367	1.45	Control	0.6304	n/a	Yes	2.881	n/a	5.0	GoodResponse	0	0.047	433.414	4	45	Feedback	Neutral	True
435.822	2.881	Control	0.6304	n/a	Yes	2.881	n/a	n/a	GoodResponse	0	0.0	n/a	4	45	ISIslide	Neutral	True
438.731	0.25	Lose2	0.617	0.0	No	3.369	0.031	n/a	NoResponse	-1	n/a	n/a	3	46	Cue	Loss	True
438.981	4.0	Lose2	0.617	0.0	No	3.369	0.0	4.0	NoResponse	-1	3.88	441.861	3	46	Fixation	Loss	True
442.861	0.3	Lose2	0.617	0.0	No	3.369	0.0	4.0	NoResponse	-1	3.88	n/a	3	46	ButtonPress	Loss	True
442.977	0.36	Lose2	0.617	0.004	No	3.369	-0.004	n/a	NoResponse	-1	n/a	n/a	3	46	Target	Loss	True
443.344	0.34	Lose2	0.617	n/a	No	3.369	n/a	n/a	NoResponse	-1	n/a	n/a	3	46	Blank	Loss	True
443.679	1.45	Lose2	0.617	n/a	No	3.369	n/a	5.0	NoResponse	-1	0.008	442.687	3	46	Feedback	Loss	True
445.133	3.369	Lose2	0.617	n/a	No	3.369	n/a	n/a	NoResponse	-1	0.0	n/a	3	46	ISIslide	Loss	True
448.527	0.25	Lose2	0.625	0.0	Yes	2.673	0.027	n/a	GoodResponse	0	n/a	n/a	3	47	Cue	AvoidedLoss	True
448.777	4.0	Lose2	0.625	0.0	Yes	2.673	0.0	n/a	GoodResponse	0	n/a	n/a	3	47	Fixation	AvoidedLoss	True
452.773	0.37	Lose2	0.625	0.004	Yes	2.673	-0.004	4.0	GoodResponse	0	0.266	452.039	3	47	Target	AvoidedLoss	True
453.039	0.3	Lose2	0.625	0.004	Yes	2.673	-0.004	4.0	GoodResponse	0	0.266	n/a	3	47	ButtonPress	AvoidedLoss	True
453.157	0.33	Lose2	0.625	n/a	Yes	2.673	n/a	n/a	GoodResponse	0	n/a	n/a	3	47	Blank	AvoidedLoss	True
453.475	1.45	Lose2	0.625	n/a	Yes	2.673	n/a	5.0	GoodResponse	0	0.012	452.487	3	47	Feedback	AvoidedLoss	True
454.929	2.673	Lose2	0.625	n/a	Yes	2.673	n/a	n/a	GoodResponse	0	0.0	n/a	3	47	ISIslide	AvoidedLoss	True
457.621	0.25	Lose2	0.6122	0.0	No	3.029	0.021	n/a	NoResponse	-1	n/a	n/a	2	48	Cue	Loss	False
457.871	3.95	Lose2	0.6122	0.0	No	3.029	0.0	4.0	NoResponse	-1	3.912	460.783	2	48	Fixation	Loss	False
461.783	0.3	Lose2	0.6122	0.0	No	3.029	0.0	4.0	NoResponse	-1	3.912	n/a	2	48	ButtonPress	Loss	False
461.816	0.38	Lose2	0.6122	0.005	No	3.029	-0.005	4.0	NoResponse	-1	0.45	461.266	2	48	Target	Loss	False
462.201	0.32	Lose2	0.6122	n/a	No	3.029	n/a	n/a	NoResponse	-1	n/a	n/a	2	48	Blank	Loss	False
462.266	0.3	Lose2	0.6122	0.005	No	3.029	-0.005	4.0	NoResponse	-1	0.45	n/a	2	48	ButtonPress	Loss	False
462.519	1.45	Lose2	0.6122	n/a	No	3.029	n/a	5.0	NoResponse	-1	0.04	461.559	2	48	Feedback	Loss	False
463.973	3.029	Lose2	0.6122	n/a	No	3.029	n/a	4.0	NoResponse	-1	2.081	n/a	2	48	ISIslide	Loss	False
466.999	0.25	Control	0.62	0.0	Yes	2.901	-0.001	n/a	GoodResponse	0	n/a	n/a	2	49	Cue	Neutral	True
467.249	4.0	Control	0.62	0.001	Yes	2.901	0.0	n/a	GoodResponse	0	n/a	n/a	2	49	Fixation	Neutral	True
471.245	0.39	Control	0.62	0.004	Yes	2.901	-0.004	4.0	GoodResponse	0	0.272	470.517	2	49	Target	Neutral	True
471.517	0.3	Control	0.62	0.004	Yes	2.901	-0.004	4.0	GoodResponse	0	0.272	n/a	2	49	ButtonPress	Neutral	True
471.646	0.31	Control	0.62	n/a	Yes	2.901	n/a	n/a	GoodResponse	0	n/a	n/a	2	49	Blank	Neutral	True
471.947	1.45	Control	0.62	n/a	Yes	2.901	n/a	5.0	GoodResponse	0	0.027	470.974	2	49	Feedback	Neutral	True
473.401	2.901	Control	0.62	n/a	Yes	2.901	n/a	4.0	GoodResponse	0	1.572	n/a	2	49	ISIslide	Neutral	True
476.31	0.25	Control	0.6275	0.0	Yes	2.79	0.01	4.0	GoodResponse	0	0.223	475.533	2	50	Cue	Neutral	False
476.533	0.3	Control	0.6275	0.0	Yes	2.79	0.01	4.0	GoodResponse	0	0.223	n/a	2	50	ButtonPress	Neutral	False
476.561	4.0	Control	0.6275	0.0	Yes	2.79	0.001	n/a	GoodResponse	0	n/a	n/a	2	50	Fixation	Neutral	False
480.556	0.4	Control	0.6275	0.004	Yes	2.79	-0.004	4.0	GoodResponse	0	0.207	479.763	2	50	Target	Neutral	False
480.763	0.3	Control	0.6275	0.004	Yes	2.79	-0.004	4.0	GoodResponse	0	0.207	n/a	2	50	ButtonPress	Neutral	False
480.957	0.3	Control	0.6275	n/a	Yes	2.79	n/a	n/a	GoodResponse	0	n/a	n/a	2	50	Blank	Neutral	False
481.258	1.45	Control	0.6275	n/a	Yes	2.79	n/a	5.0	GoodResponse	0	0.033	480.291	2	50	Feedback	Neutral	False
482.712	2.79	Control	0.6275	n/a	Yes	2.79	n/a	n/a	GoodResponse	0	0.0	n/a	2	50	ISIslide	Neutral	False
485.521	0.25	Control	0.6346	0.0	Yes	2.729	0.021	n/a	GoodResponse	0	n/a	n/a	2	51	Cue	Neutral	False
485.772	3.95	Control	0.6346	0.0	Yes	2.729	0.001	4.0	GoodResponse	0	1.087	485.859	2	51	Fixation	Neutral	False
486.859	0.3	Control	0.6346	0.0	Yes	2.729	0.001	4.0	GoodResponse	0	1.087	n/a	2	51	ButtonPress	Neutral	False
489.717	0.41	Control	0.6346	0.004	Yes	2.729	-0.004	4.0	GoodResponse	0	0.195	488.912	2	51	Target	Neutral	False
489.912	0.3	Control	0.6346	0.004	Yes	2.729	-0.004	4.0	GoodResponse	0	0.195	n/a	2	51	ButtonPress	Neutral	False
490.135	0.29	Control	0.6346	n/a	Yes	2.729	n/a	n/a	GoodResponse	0	n/a	n/a	2	51	Blank	Neutral	False
490.419	1.45	Control	0.6346	n/a	Yes	2.729	n/a	5.0	GoodResponse	0	0.043	489.462	2	51	Feedback	Neutral	False
491.873	2.729	Control	0.6346	n/a	Yes	2.729	n/a	n/a	GoodResponse	0	0.0	n/a	2	51	ISIslide	Neutral	False
494.615	0.25	Control	0.6415000000000001	0.0	Yes	2.635	0.015	n/a	GoodResponse	0	n/a	n/a	2	52	Cue	Neutral	True
494.866	4.05	Control	0.6415000000000001	0.0	Yes	2.635	0.001	n/a	GoodResponse	0	n/a	n/a	2	52	Fixation	Neutral	True
498.911	0.42	Control	0.6415000000000001	0.004	Yes	2.635	-0.004	4.0	GoodResponse	0	0.214	498.125	2	52	Target	Neutral	True
499.125	0.3	Control	0.6415000000000001	0.004	Yes	2.635	-0.004	4.0	GoodResponse	0	0.214	n/a	2	52	ButtonPress	Neutral	True
499.346	0.28	Control	0.6415000000000001	n/a	Yes	2.635	n/a	n/a	GoodResponse	0	n/a	n/a	2	52	Blank	Neutral	True
499.613	1.45	Control	0.6415000000000001	n/a	Yes	2.635	n/a	5.0	GoodResponse	0	0.02	498.633	2	52	Feedback	Neutral	True
501.068	2.635	Control	0.6415000000000001	n/a	Yes	2.635	n/a	n/a	GoodResponse	0	0.0	n/a	2	52	ISIslide	Neutral	True
503.726	0.25	Win2	0.6481	0.0	Yes	2.924	0.026	n/a	GoodResponse	1	n/a	n/a	3	53	Cue	Win	True
503.976	4.05	Win2	0.6481	0.0	Yes	2.924	0.0	n/a	GoodResponse	1	n/a	n/a	3	53	Fixation	Win	True
508.022	0.43	Win2	0.6481	0.004	Yes	2.924	-0.004	4.0	GoodResponse	1	0.178	507.2	3	53	Target	Win	True
508.2	0.3	Win2	0.6481	0.004	Yes	2.924	-0.004	4.0	GoodResponse	1	0.178	n/a	3	53	ButtonPress	Win	True
508.456	0.27	Win2	0.6481	n/a	Yes	2.924	n/a	n/a	GoodResponse	1	n/a	n/a	3	53	Blank	Win	True
508.724	1.45	Win2	0.6481	n/a	Yes	2.924	n/a	5.0	GoodResponse	1	0.031	507.755	3	53	Feedback	Win	True
510.178	2.924	Win2	0.6481	n/a	Yes	2.924	n/a	n/a	GoodResponse	1	0.0	n/a	3	53	ISIslide	Win	True
513.12	0.25	Win2	0.6545000000000001	0.0	Yes	2.73	0.02	n/a	GoodResponse	1	n/a	n/a	4	54	Cue	Win	True
513.371	3.95	Win2	0.6545000000000001	0.0	Yes	2.73	0.001	n/a	GoodResponse	1	n/a	n/a	4	54	Fixation	Win	True
517.316	0.44	Win2	0.6545000000000001	0.004	Yes	2.73	-0.004	4.0	GoodResponse	1	0.178	516.494	4	54	Target	Win	True
517.494	0.3	Win2	0.6545000000000001	0.004	Yes	2.73	-0.004	4.0	GoodResponse	1	0.178	n/a	4	54	ButtonPress	Win	True
517.768	0.26	Win2	0.6545000000000001	n/a	Yes	2.73	n/a	n/a	GoodResponse	1	n/a	n/a	4	54	Blank	Win	True
518.018	1.45	Win2	0.6545000000000001	n/a	Yes	2.73	n/a	5.0	GoodResponse	1	0.008	517.026	4	54	Feedback	Win	True
519.473	2.73	Win2	0.6545000000000001	n/a	Yes	2.73	n/a	n/a	GoodResponse	1	0.0	n/a	4	54	ISIslide	Win	True
522.231	0.25	Control	0.6607	0.0	Yes	3.019	0.031	n/a	GoodResponse	0	n/a	n/a	4	55	Cue	Neutral	True
522.482	3.95	Control	0.6607	0.0	Yes	3.019	0.001	n/a	GoodResponse	0	n/a	n/a	4	55	Fixation	Neutral	True
526.427	0.45	Control	0.6607	0.004	Yes	3.019	-0.004	4.0	GoodResponse	0	0.219	525.646	4	55	Target	Neutral	True
526.646	0.3	Control	0.6607	0.004	Yes	3.019	-0.004	4.0	GoodResponse	0	0.219	n/a	4	55	ButtonPress	Neutral	True
526.878	0.25	Control	0.6607	n/a	Yes	3.019	n/a	n/a	GoodResponse	0	n/a	n/a	4	55	Blank	Neutral	True
527.129	1.45	Control	0.6607	n/a	Yes	3.019	n/a	5.0	GoodResponse	0	0.017	526.146	4	55	Feedback	Neutral	True
528.583	3.019	Control	0.6607	n/a	Yes	3.019	n/a	n/a	GoodResponse	0	0.0	n/a	4	55	ISIslide	Neutral	True
531.626	0.25	Control	0.6667000000000001	0.0	Yes	2.824	0.026	n/a	GoodResponse	0	n/a	n/a	4	56	Cue	Neutral	True
531.877	3.95	Control	0.6667000000000001	0.0	Yes	2.824	0.001	n/a	GoodResponse	0	n/a	n/a	4	56	Fixation	Neutral	True
535.822	0.45	Control	0.6667000000000001	0.004	Yes	2.824	-0.004	4.0	GoodResponse	0	0.158	534.98	4	56	Target	Neutral	True
535.98	0.3	Control	0.6667000000000001	0.004	Yes	2.824	-0.004	4.0	GoodResponse	0	0.158	n/a	4	56	ButtonPress	Neutral	True
536.273	0.25	Control	0.6667000000000001	n/a	Yes	2.824	n/a	n/a	GoodResponse	0	n/a	n/a	4	56	Blank	Neutral	True
536.524	1.45	Control	0.6667000000000001	n/a	Yes	2.824	n/a	5.0	GoodResponse	0	0.035	535.559	4	56	Feedback	Neutral	True
537.978	2.824	Control	0.6667000000000001	n/a	Yes	2.824	n/a	n/a	GoodResponse	0	0.0	n/a	4	56	ISIslide	Neutral	True
540.82	0.25	Control	0.6724	0.0	Yes	3.48	0.02	n/a	GoodResponse	0	n/a	n/a	4	57	Cue	Neutral	True
541.071	4.0	Control	0.6724	0.0	Yes	3.48	0.001	n/a	GoodResponse	0	n/a	n/a	4	57	Fixation	Neutral	True
545.066	0.44	Control	0.6724	0.004	Yes	3.48	-0.004	4.0	GoodResponse	0	0.23	544.296	4	57	Target	Neutral	True
545.296	0.3	Control	0.6724	0.004	Yes	3.48	-0.004	4.0	GoodResponse	0	0.23	n/a	4	57	ButtonPress	Neutral	True
545.518	0.26	Control	0.6724	n/a	Yes	3.48	n/a	n/a	GoodResponse	0	n/a	n/a	4	57	Blank	Neutral	True
545.768	1.45	Control	0.6724	n/a	Yes	3.48	n/a	5.0	GoodResponse	0	0.011	544.779	4	57	Feedback	Neutral	True
547.223	3.48	Control	0.6724	n/a	Yes	3.48	n/a	n/a	GoodResponse	0	0.0	n/a	4	57	ISIslide	Neutral	True
550.716	0.25	Win2	0.6609999999999999	0.001	No	2.734	0.016	n/a	NoResponse	0	n/a	n/a	4	58	Cue	MissedWin	True
550.967	4.05	Win2	0.6609999999999999	0.0	No	2.734	0.001	4.0	NoResponse	0	3.979	553.946	4	58	Fixation	MissedWin	True
554.946	0.3	Win2	0.6609999999999999	0.0	No	2.734	0.001	4.0	NoResponse	0	3.979	n/a	4	58	ButtonPress	MissedWin	True
555.013	0.43	Win2	0.6609999999999999	0.003	No	2.734	-0.003	n/a	NoResponse	0	n/a	n/a	4	58	Target	MissedWin	True
555.447	0.27	Win2	0.6609999999999999	n/a	No	2.734	n/a	n/a	NoResponse	0	n/a	n/a	4	58	Blank	MissedWin	True
555.715	1.45	Win2	0.6609999999999999	n/a	No	2.734	n/a	5.0	NoResponse	0	0.015	554.73	4	58	Feedback	MissedWin	True
557.169	2.734	Win2	0.6609999999999999	n/a	No	2.734	n/a	n/a	NoResponse	0	0.0	n/a	4	58	ISIslide	MissedWin	True
559.927	0.25	Lose2	0.65	0.001	No	2.673	0.027	n/a	PrematurePress	-1	n/a	n/a	3	59	Cue	Loss	True
560.178	4.0	Lose2	0.65	0.0	No	2.673	0.001	n/a	PrematurePress	-1	n/a	n/a	3	59	Fixation	Loss	True
564.174	0.43	Lose2	0.65	0.003	No	2.673	-0.003	4.0	PrematurePress	-1	0.023	563.197	3	59	Target	Loss	True
564.197	0.3	Lose2	0.65	0.003	No	2.673	-0.003	4.0	PrematurePress	-1	0.023	n/a	3	59	ButtonPress	Loss	True
564.608	0.27	Lose2	0.65	n/a	No	2.673	n/a	n/a	PrematurePress	-1	n/a	n/a	3	59	Blank	Loss	True
564.876	1.45	Lose2	0.65	n/a	No	2.673	n/a	5.0	PrematurePress	-1	0.025	563.901	3	59	Feedback	Loss	True
566.33	2.673	Lose2	0.65	n/a	No	2.673	n/a	n/a	PrematurePress	-1	0.0	n/a	3	59	ISIslide	Loss	True
569.021	0.25	Control	0.6557	0.0	Yes	2.679	0.021	n/a	GoodResponse	0	n/a	n/a	3	60	Cue	Neutral	True
569.272	4.0	Control	0.6557	0.0	Yes	2.679	0.001	n/a	GoodResponse	0	n/a	n/a	3	60	Fixation	Neutral	True
573.267	0.44	Control	0.6557	0.004	Yes	2.679	-0.004	4.0	GoodResponse	0	0.207	572.474	3	60	Target	Neutral	True
573.474	0.3	Control	0.6557	0.004	Yes	2.679	-0.004	4.0	GoodResponse	0	0.207	n/a	3	60	ButtonPress	Neutral	True
573.719	0.26	Control	0.6557	n/a	Yes	2.679	n/a	n/a	GoodResponse	0	n/a	n/a	3	60	Blank	Neutral	True
573.97	1.45	Control	0.6557	n/a	Yes	2.679	n/a	5.0	GoodResponse	0	0.005	572.975	3	60	Feedback	Neutral	True
575.424	2.679	Control	0.6557	n/a	Yes	2.679	n/a	n/a	GoodResponse	0	0.0	n/a	3	60	ISIslide	Neutral	True
578.115	0.25	Lose2	0.6613	0.0	Yes	2.985	0.015	n/a	GoodResponse	0	n/a	n/a	3	61	Cue	AvoidedLoss	True
578.366	4.0	Lose2	0.6613	0.0	Yes	2.985	0.001	n/a	GoodResponse	0	n/a	n/a	3	61	Fixation	AvoidedLoss	True
582.361	0.44	Lose2	0.6613	0.004	Yes	2.985	-0.004	4.0	GoodResponse	0	0.19	581.551	3	61	Target	AvoidedLoss	True
582.551	0.3	Lose2	0.6613	0.004	Yes	2.985	-0.004	4.0	GoodResponse	0	0.19	n/a	3	61	ButtonPress	AvoidedLoss	True
582.813	0.26	Lose2	0.6613	n/a	Yes	2.985	n/a	n/a	GoodResponse	0	n/a	n/a	3	61	Blank	AvoidedLoss	True
583.064	1.45	Lose2	0.6613	n/a	Yes	2.985	n/a	5.0	GoodResponse	0	0.033	582.097	3	61	Feedback	AvoidedLoss	True
584.518	2.985	Lose2	0.6613	n/a	Yes	2.985	n/a	n/a	GoodResponse	0	0.0	n/a	3	61	ISIslide	AvoidedLoss	True
587.527	0.25	Lose2	0.6667000000000001	0.0	Yes	2.873	0.027	n/a	GoodResponse	0	n/a	n/a	3	62	Cue	AvoidedLoss	True
587.778	3.9	Lose2	0.6667000000000001	0.0	Yes	2.873	0.001	n/a	GoodResponse	0	n/a	n/a	3	62	Fixation	AvoidedLoss	True
591.673	0.44	Lose2	0.6667000000000001	0.004	Yes	2.873	-0.004	4.0	GoodResponse	0	0.197	590.87	3	62	Target	AvoidedLoss	True
591.87	0.3	Lose2	0.6667000000000001	0.004	Yes	2.873	-0.004	4.0	GoodResponse	0	0.197	n/a	3	62	ButtonPress	AvoidedLoss	True
592.124	0.26	Lose2	0.6667000000000001	n/a	Yes	2.873	n/a	n/a	GoodResponse	0	n/a	n/a	3	62	Blank	AvoidedLoss	True
592.375	1.45	Lose2	0.6667000000000001	n/a	Yes	2.873	n/a	5.0	GoodResponse	0	0.039	591.414	3	62	Feedback	AvoidedLoss	True
593.829	2.873	Lose2	0.6667000000000001	n/a	Yes	2.873	n/a	n/a	GoodResponse	0	0.0	n/a	3	62	ISIslide	AvoidedLoss	True
596.721	0.25	Lose2	0.6718999999999999	0.0	Yes	2.629	0.021	n/a	GoodResponse	0	n/a	n/a	3	63	Cue	AvoidedLoss	True
596.972	4.05	Lose2	0.6718999999999999	0.0	Yes	2.629	0.001	n/a	GoodResponse	0	n/a	n/a	3	63	Fixation	AvoidedLoss	True
601.017	0.43	Lose2	0.6718999999999999	0.004	Yes	2.629	-0.004	4.0	GoodResponse	0	0.197	600.214	3	63	Target	AvoidedLoss	True
601.214	0.3	Lose2	0.6718999999999999	0.004	Yes	2.629	-0.004	4.0	GoodResponse	0	0.197	n/a	3	63	ButtonPress	AvoidedLoss	True
601.452	0.27	Lose2	0.6718999999999999	n/a	Yes	2.629	n/a	n/a	GoodResponse	0	n/a	n/a	3	63	Blank	AvoidedLoss	True
601.719	1.45	Lose2	0.6718999999999999	n/a	Yes	2.629	n/a	5.0	GoodResponse	0	0.012	600.731	3	63	Feedback	AvoidedLoss	True
603.174	2.629	Lose2	0.6718999999999999	n/a	Yes	2.629	n/a	n/a	GoodResponse	0	0.0	n/a	3	63	ISIslide	AvoidedLoss	True
605.815	0.25	Win2	0.6769	0.0	Yes	3.135	0.015	n/a	GoodResponse	1	n/a	n/a	4	64	Cue	Win	True
606.066	4.15	Win2	0.6769	0.0	Yes	3.135	0.001	n/a	GoodResponse	1	n/a	n/a	4	64	Fixation	Win	True
610.212	0.42	Win2	0.6769	0.003	Yes	3.135	-0.003	4.0	GoodResponse	1	0.186	609.398	4	64	Target	Win	True
610.398	0.3	Win2	0.6769	0.003	Yes	3.135	-0.003	4.0	GoodResponse	1	0.186	n/a	4	64	ButtonPress	Win	True
610.646	0.28	Win2	0.6769	n/a	Yes	3.135	n/a	n/a	GoodResponse	1	n/a	n/a	4	64	Blank	Win	True
610.914	1.45	Win2	0.6769	n/a	Yes	3.135	n/a	5.0	GoodResponse	1	0.036	609.95	4	64	Feedback	Win	True
612.368	3.135	Win2	0.6769	n/a	Yes	3.135	n/a	n/a	GoodResponse	1	0.0	n/a	4	64	ISIslide	Win	True
615.528	0.25	Control	0.6818000000000001	0.0	Yes	2.772	0.028	n/a	GoodResponse	0	n/a	n/a	4	65	Cue	Neutral	True
615.778	4.0	Control	0.6818000000000001	0.0	Yes	2.772	0.0	n/a	GoodResponse	0	n/a	n/a	4	65	Fixation	Neutral	True
619.774	0.41	Control	0.6818000000000001	0.004	Yes	2.772	-0.004	4.0	GoodResponse	0	0.198	618.972	4	65	Target	Neutral	True
619.972	0.3	Control	0.6818000000000001	0.004	Yes	2.772	-0.004	4.0	GoodResponse	0	0.198	n/a	4	65	ButtonPress	Neutral	True
620.192	0.29	Control	0.6818000000000001	n/a	Yes	2.772	n/a	n/a	GoodResponse	0	n/a	n/a	4	65	Blank	Neutral	True
620.476	1.45	Control	0.6818000000000001	n/a	Yes	2.772	n/a	5.0	GoodResponse	0	0.035	619.511	4	65	Feedback	Neutral	True
621.93	2.772	Control	0.6818000000000001	n/a	Yes	2.772	n/a	n/a	GoodResponse	0	0.0	n/a	4	65	ISIslide	Neutral	True
624.722	0.25	Win2	0.6866	0.0	Yes	2.778	0.022	n/a	GoodResponse	1	n/a	n/a	5	66	Cue	Win	True
624.973	3.9	Win2	0.6866	0.0	Yes	2.778	0.001	n/a	GoodResponse	1	n/a	n/a	5	66	Fixation	Win	True
628.868	0.4	Win2	0.6866	0.004	Yes	2.778	-0.004	4.0	GoodResponse	1	0.178	628.046	5	66	Target	Win	True
629.046	0.3	Win2	0.6866	0.004	Yes	2.778	-0.004	4.0	GoodResponse	1	0.178	n/a	5	66	ButtonPress	Win	True
629.269	0.3	Win2	0.6866	n/a	Yes	2.778	n/a	n/a	GoodResponse	1	n/a	n/a	5	66	Blank	Win	True
629.57	1.45	Win2	0.6866	n/a	Yes	2.778	n/a	5.0	GoodResponse	1	0.014	628.584	5	66	Feedback	Win	True
631.024	2.778	Win2	0.6866	n/a	Yes	2.778	n/a	n/a	GoodResponse	1	0.0	n/a	5	66	ISIslide	Win	True
633.816	0.25	Control	0.6912	0.0	Yes	2.734	0.016	n/a	GoodResponse	0	n/a	n/a	5	67	Cue	Neutral	True
634.067	3.95	Control	0.6912	0.0	Yes	2.734	0.001	n/a	GoodResponse	0	n/a	n/a	5	67	Fixation	Neutral	True
638.012	0.39	Control	0.6912	0.004	Yes	2.734	-0.004	4.0	GoodResponse	0	0.221	637.233	5	67	Target	Neutral	True
638.233	0.3	Control	0.6912	0.004	Yes	2.734	-0.004	4.0	GoodResponse	0	0.221	n/a	5	67	ButtonPress	Neutral	True
638.413	0.31	Control	0.6912	n/a	Yes	2.734	n/a	n/a	GoodResponse	0	n/a	n/a	5	67	Blank	Neutral	True
638.714	1.45	Control	0.6912	n/a	Yes	2.734	n/a	5.0	GoodResponse	0	0.041	637.755	5	67	Feedback	Neutral	True
640.168	2.734	Control	0.6912	n/a	Yes	2.734	n/a	n/a	GoodResponse	0	0.0	n/a	5	67	ISIslide	Neutral	True
642.926	0.25	Win2	0.6957	0.001	Yes	3.074	0.026	n/a	GoodResponse	1	n/a	n/a	6	68	Cue	Win	True
643.177	4.0	Win2	0.6957	0.0	Yes	3.074	0.001	n/a	GoodResponse	1	n/a	n/a	6	68	Fixation	Win	True
647.172	0.38	Win2	0.6957	0.004	Yes	3.074	-0.004	4.0	GoodResponse	1	0.248	646.42	6	68	Target	Win	True
647.42	0.3	Win2	0.6957	0.004	Yes	3.074	-0.004	4.0	GoodResponse	1	0.248	n/a	6	68	ButtonPress	Win	True
647.557	0.32	Win2	0.6957	n/a	Yes	3.074	n/a	n/a	GoodResponse	1	n/a	n/a	6	68	Blank	Win	True
647.875	1.45	Win2	0.6957	n/a	Yes	3.074	n/a	5.0	GoodResponse	1	0.007	646.882	6	68	Feedback	Win	True
649.329	3.074	Win2	0.6957	n/a	Yes	3.074	n/a	n/a	GoodResponse	1	0.0	n/a	6	68	ISIslide	Win	True
652.422	0.25	Win2	0.7	0.0	Yes	3.228	0.022	n/a	GoodResponse	1	n/a	n/a	7	69	Cue	Win	True
652.672	3.95	Win2	0.7	0.0	Yes	3.228	0.0	n/a	GoodResponse	1	n/a	n/a	7	69	Fixation	Win	True
656.634	0.37	Win2	0.7	0.0	Yes	3.228	0.012	4.0	GoodResponse	1	0.191	655.825	7	69	Target	Win	True
656.825	0.3	Win2	0.7	0.0	Yes	3.228	0.012	4.0	GoodResponse	1	0.191	n/a	7	69	ButtonPress	Win	True
657.002	0.33	Win2	0.7	n/a	Yes	3.228	n/a	n/a	GoodResponse	1	n/a	n/a	7	69	Blank	Win	True
657.32	1.45	Win2	0.7	n/a	Yes	3.228	n/a	5.0	GoodResponse	1	0.021	656.341	7	69	Feedback	Win	True
658.774	3.228	Win2	0.7	n/a	Yes	3.228	n/a	n/a	GoodResponse	1	0.0	n/a	7	69	ISIslide	Win	True
662.017	0.25	Lose2	0.7042	0.0	Yes	3.033	0.017	n/a	GoodResponse	0	n/a	n/a	7	70	Cue	AvoidedLoss	True
662.268	4.05	Lose2	0.7042	0.0	Yes	3.033	0.001	n/a	GoodResponse	0	n/a	n/a	7	70	Fixation	AvoidedLoss	True
666.313	0.36	Lose2	0.7042	0.004	Yes	3.033	-0.004	4.0	GoodResponse	0	0.186	665.499	7	70	Target	AvoidedLoss	True
666.499	0.3	Lose2	0.7042	0.004	Yes	3.033	-0.004	4.0	GoodResponse	0	0.186	n/a	7	70	ButtonPress	AvoidedLoss	True
666.681	0.34	Lose2	0.7042	n/a	Yes	3.033	n/a	n/a	GoodResponse	0	n/a	n/a	7	70	Blank	AvoidedLoss	True
667.015	1.45	Lose2	0.7042	n/a	Yes	3.033	n/a	5.0	GoodResponse	0	0.033	666.048	7	70	Feedback	AvoidedLoss	True
668.47	3.033	Lose2	0.7042	n/a	Yes	3.033	n/a	n/a	GoodResponse	0	0.0	n/a	7	70	ISIslide	AvoidedLoss	True
671.529	0.25	Win2	0.7082999999999999	0.0	Yes	2.721	0.029	n/a	GoodResponse	1	n/a	n/a	8	71	Cue	Win	True
671.78	4.05	Win2	0.7082999999999999	0.0	Yes	2.721	0.001	n/a	GoodResponse	1	n/a	n/a	8	71	Fixation	Win	True
675.825	0.35	Win2	0.7082999999999999	0.004	Yes	2.721	-0.004	4.0	GoodResponse	1	0.183	675.008	8	71	Target	Win	True
676.008	0.3	Win2	0.7082999999999999	0.004	Yes	2.721	-0.004	4.0	GoodResponse	1	0.183	n/a	8	71	ButtonPress	Win	True
676.176	0.35	Win2	0.7082999999999999	n/a	Yes	2.721	n/a	n/a	GoodResponse	1	n/a	n/a	8	71	Blank	Win	True
676.527	1.45	Win2	0.7082999999999999	n/a	Yes	2.721	n/a	5.0	GoodResponse	1	0.033	675.56	8	71	Feedback	Win	True
677.982	2.721	Win2	0.7082999999999999	n/a	Yes	2.721	n/a	n/a	GoodResponse	1	0.0	n/a	8	71	ISIslide	Win	True
680.723	0.25	Win2	0.7123	0.0	Yes	2.777	0.023	n/a	GoodResponse	1	n/a	n/a	9	72	Cue	Win	True
680.974	4.1	Win2	0.7123	0.0	Yes	2.777	0.001	n/a	GoodResponse	1	n/a	n/a	9	72	Fixation	Win	True
685.07	0.34	Win2	0.7123	0.003	Yes	2.777	-0.003	4.0	GoodResponse	1	0.238	684.308	9	72	Target	Win	True
685.308	0.3	Win2	0.7123	0.003	Yes	2.777	-0.003	4.0	GoodResponse	1	0.238	n/a	9	72	ButtonPress	Win	True
685.421	0.36	Win2	0.7123	n/a	Yes	2.777	n/a	n/a	GoodResponse	1	n/a	n/a	9	72	Blank	Win	True
685.772	1.45	Win2	0.7123	n/a	Yes	2.777	n/a	5.0	GoodResponse	1	0.008	684.78	9	72	Feedback	Win	True
687.226	2.777	Win2	0.7123	n/a	Yes	2.777	n/a	n/a	GoodResponse	1	0.0	n/a	9	72	ISIslide	Win	True
690.018	0.25	Win2	0.7027	0.0	No	2.682	0.018	n/a	PrematurePress	0	n/a	n/a	9	73	Cue	MissedWin	True
690.268	4.0	Win2	0.7027	0.001	No	2.682	0.0	n/a	PrematurePress	0	n/a	n/a	9	73	Fixation	MissedWin	True
694.264	0.33	Win2	0.7027	0.004	No	2.682	-0.004	4.0	PrematurePress	0	0.042	693.306	9	73	Target	MissedWin	True
694.306	0.3	Win2	0.7027	0.004	No	2.682	-0.004	4.0	PrematurePress	0	0.042	n/a	9	73	ButtonPress	MissedWin	True
694.598	0.37	Win2	0.7027	n/a	No	2.682	n/a	n/a	PrematurePress	0	n/a	n/a	9	73	Blank	MissedWin	True
694.966	1.45	Win2	0.7027	n/a	No	2.682	n/a	5.0	PrematurePress	0	0.033	693.999	9	73	Feedback	MissedWin	True
696.42	2.682	Win2	0.7027	n/a	No	2.682	n/a	n/a	PrematurePress	0	0.0	n/a	9	73	ISIslide	MissedWin	True
699.128	0.25	Lose2	0.7067	0.0	Yes	2.622	0.028	n/a	GoodResponse	0	n/a	n/a	9	74	Cue	AvoidedLoss	True
699.379	4.05	Lose2	0.7067	0.0	Yes	2.622	0.001	n/a	GoodResponse	0	n/a	n/a	9	74	Fixation	AvoidedLoss	True
703.425	0.32	Lose2	0.7067	0.003	Yes	2.622	-0.003	4.0	GoodResponse	0	0.16	702.585	9	74	Target	AvoidedLoss	True
703.585	0.3	Lose2	0.7067	0.003	Yes	2.622	-0.003	4.0	GoodResponse	0	0.16	n/a	9	74	ButtonPress	AvoidedLoss	True
703.759	0.38	Lose2	0.7067	n/a	Yes	2.622	n/a	n/a	GoodResponse	0	n/a	n/a	9	74	Blank	AvoidedLoss	True
704.127	1.45	Lose2	0.7067	n/a	Yes	2.622	n/a	5.0	GoodResponse	0	0.043	703.17	9	74	Feedback	AvoidedLoss	True
705.581	2.622	Lose2	0.7067	n/a	Yes	2.622	n/a	n/a	GoodResponse	0	0.0	n/a	9	74	ISIslide	AvoidedLoss	True
708.222	0.25	Lose2	0.6973999999999999	0.0	No	2.928	0.022	n/a	NoResponse	-1	n/a	n/a	8	75	Cue	Loss	False
708.473	3.95	Lose2	0.6973999999999999	0.0	No	2.928	0.001	4.0	NoResponse	-1	3.879	711.352	8	75	Fixation	Loss	False
712.352	0.3	Lose2	0.6973999999999999	0.0	No	2.928	0.001	4.0	NoResponse	-1	3.879	n/a	8	75	ButtonPress	Loss	False
712.418	0.31	Lose2	0.6973999999999999	0.004	No	2.928	-0.004	n/a	NoResponse	-1	n/a	n/a	8	75	Target	Loss	False
712.736	0.39	Lose2	0.6973999999999999	n/a	No	2.928	n/a	n/a	NoResponse	-1	n/a	n/a	8	75	Blank	Loss	False
713.12	1.45	Lose2	0.6973999999999999	n/a	No	2.928	n/a	4.0	NoResponse	-1	0.008	712.128	8	75	Feedback	Loss	False
713.128	0.3	Lose2	0.6973999999999999	n/a	No	2.928	n/a	4.0	NoResponse	-1	0.008	n/a	8	75	ButtonPress	Loss	False
714.575	2.928	Lose2	0.6973999999999999	n/a	No	2.928	n/a	n/a	NoResponse	-1	0.0	n/a	8	75	ISIslide	Loss	False
717.517	0.25	Control	0.7012999999999999	0.0	Yes	3.233	0.017	n/a	GoodResponse	0	n/a	n/a	8	76	Cue	Neutral	True
717.768	4.05	Control	0.7012999999999999	0.0	Yes	3.233	0.001	n/a	GoodResponse	0	n/a	n/a	8	76	Fixation	Neutral	True
721.813	0.3	Control	0.7012999999999999	0.004	Yes	3.233	-0.004	4.0	GoodResponse	0	0.207	721.02	8	76	Target	Neutral	True
722.02	0.3	Control	0.7012999999999999	0.004	Yes	3.233	-0.004	4.0	GoodResponse	0	0.207	n/a	8	76	ButtonPress	Neutral	True
722.114	0.4	Control	0.7012999999999999	n/a	Yes	3.233	n/a	n/a	GoodResponse	0	n/a	n/a	8	76	Blank	Neutral	True
722.515	1.45	Control	0.7012999999999999	n/a	Yes	3.233	n/a	5.0	GoodResponse	0	0.045	721.56	8	76	Feedback	Neutral	True
723.97	3.233	Control	0.7012999999999999	n/a	Yes	3.233	n/a	n/a	GoodResponse	0	0.0	n/a	8	76	ISIslide	Neutral	True
727.229	0.25	Lose2	0.7051000000000001	0.0	Yes	2.571	0.029	n/a	GoodResponse	0	n/a	n/a	8	77	Cue	AvoidedLoss	True
727.48	3.95	Lose2	0.7051000000000001	0.0	Yes	2.571	0.001	n/a	GoodResponse	0	n/a	n/a	8	77	Fixation	AvoidedLoss	True
731.425	0.29	Lose2	0.7051000000000001	0.004	Yes	2.571	-0.004	4.0	GoodResponse	0	0.203	730.628	8	77	Target	AvoidedLoss	True
731.628	0.3	Lose2	0.7051000000000001	0.004	Yes	2.571	-0.004	4.0	GoodResponse	0	0.203	n/a	8	77	ButtonPress	AvoidedLoss	True
731.726	0.41	Lose2	0.7051000000000001	n/a	Yes	2.571	n/a	n/a	GoodResponse	0	n/a	n/a	8	77	Blank	AvoidedLoss	True
732.127	1.45	Lose2	0.7051000000000001	n/a	Yes	2.571	n/a	5.0	GoodResponse	0	0.043	731.17	8	77	Feedback	AvoidedLoss	True
733.582	2.571	Lose2	0.7051000000000001	n/a	Yes	2.571	n/a	n/a	GoodResponse	0	0.0	n/a	8	77	ISIslide	AvoidedLoss	True
