onset	duration	cue_type	current_mean_accuracy	duration_error	is_hit	isi_adjusted	onset_delay	response	response_type	reward	rt	rt_time	total_reward	trial_number	trial_phase	trial_type	one_press
11.111	0.25	Control	1.0	0.0	Yes	2.939	0.011	n/a	GoodResponse	0	n/a	n/a	0	0	Cue	Neutral	True
11.361	3.85	Control	1.0	0.0	Yes	2.939	0.0	n/a	GoodResponse	0	n/a	n/a	0	0	Fixation	Neutral	True
15.21	0.4	Control	1.0	0.001	Yes	2.939	-0.001	3.0	GoodResponse	0	0.265	14.475	0	0	Target	Neutral	True
15.475	0.3	Control	1.0	0.001	Yes	2.939	-0.001	3.0	GoodResponse	0	0.265	n/a	0	0	ButtonPress	Neutral	True
15.61	0.3	Control	1.0	n/a	Yes	2.939	n/a	n/a	GoodResponse	0	n/a	n/a	0	0	Blank	Neutral	True
15.91	1.45	Control	1.0	n/a	Yes	2.939	n/a	5.0	GoodResponse	0	0.019	14.929	0	0	Feedback	Neutral	True
17.359	2.939	Control	1.0	n/a	Yes	2.939	n/a	n/a	GoodResponse	0	0.0	n/a	0	0	ISIslide	Neutral	True
20.325	0.25	Lose2	1.0	0.0	Yes	2.775	0.025	n/a	GoodResponse	0	n/a	n/a	0	1	Cue	AvoidedLoss	True
20.575	4.0	Lose2	1.0	0.0	Yes	2.775	0.0	n/a	GoodResponse	0	n/a	n/a	0	1	Fixation	AvoidedLoss	True
24.573	0.39	Lose2	1.0	0.002	Yes	2.775	-0.002	3.0	GoodResponse	0	0.253	23.826	0	1	Target	AvoidedLoss	True
24.826	0.3	Lose2	1.0	0.002	Yes	2.775	-0.002	3.0	GoodResponse	0	0.253	n/a	0	1	ButtonPress	AvoidedLoss	True
24.973	0.31	Lose2	1.0	n/a	Yes	2.775	n/a	n/a	GoodResponse	0	n/a	n/a	0	1	Blank	AvoidedLoss	True
25.273	1.45	Lose2	1.0	n/a	Yes	2.775	n/a	5.0	GoodResponse	0	0.022	24.295	0	1	Feedback	AvoidedLoss	True
26.723	2.775	Lose2	1.0	n/a	Yes	2.775	n/a	n/a	GoodResponse	0	0.0	n/a	0	1	ISIslide	AvoidedLoss	True
29.522	0.25	Control	1.0	0.0	Yes	2.578	0.022	n/a	GoodResponse	0	n/a	n/a	0	2	Cue	Neutral	True
29.771	4.1	Control	1.0	0.001	Yes	2.578	-0.001	n/a	GoodResponse	0	n/a	n/a	0	2	Fixation	Neutral	True
33.87	0.38	Control	1.0	0.002	Yes	2.578	-0.002	3.0	GoodResponse	0	0.261	33.131	0	2	Target	Neutral	True
34.131	0.3	Control	1.0	0.002	Yes	2.578	-0.002	3.0	GoodResponse	0	0.261	n/a	0	2	ButtonPress	Neutral	True
34.253	0.32	Control	1.0	n/a	Yes	2.578	n/a	n/a	GoodResponse	0	n/a	n/a	0	2	Blank	Neutral	True
34.57	1.45	Control	1.0	n/a	Yes	2.578	n/a	5.0	GoodResponse	0	0.042	33.612	0	2	Feedback	Neutral	True
36.019	2.578	Control	1.0	n/a	Yes	2.578	n/a	n/a	GoodResponse	0	0.0	n/a	0	2	ISIslide	Neutral	True
38.618	0.25	Win2	1.0	0.0	Yes	2.832	0.018	n/a	GoodResponse	1	n/a	n/a	1	3	Cue	Win	True
38.868	3.95	Win2	1.0	0.0	Yes	2.832	0.0	n/a	GoodResponse	1	n/a	n/a	1	3	Fixation	Win	True
42.817	0.37	Win2	1.0	0.001	Yes	2.832	-0.001	3.0	GoodResponse	1	0.225	42.042	1	3	Target	Win	True
43.042	0.3	Win2	1.0	0.001	Yes	2.832	-0.001	3.0	GoodResponse	1	0.225	n/a	1	3	ButtonPress	Win	True
43.183	0.33	Win2	1.0	n/a	Yes	2.832	n/a	n/a	GoodResponse	1	n/a	n/a	1	3	Blank	Win	True
43.517	1.45	Win2	1.0	n/a	Yes	2.832	n/a	5.0	GoodResponse	1	0.022	42.539	1	3	Feedback	Win	True
44.966	2.832	Win2	1.0	n/a	Yes	2.832	n/a	n/a	GoodResponse	1	0.0	n/a	1	3	ISIslide	Win	True
47.815	0.25	Win2	1.0	0.0	Yes	3.285	0.015	n/a	GoodResponse	1	n/a	n/a	2	4	Cue	Win	True
48.065	4.0	Win2	1.0	0.0	Yes	3.285	0.0	n/a	GoodResponse	1	n/a	n/a	2	4	Fixation	Win	True
52.063	0.36	Win2	1.0	0.002	Yes	3.285	-0.002	3.0	GoodResponse	1	0.259	51.322	2	4	Target	Win	True
52.322	0.3	Win2	1.0	0.002	Yes	3.285	-0.002	3.0	GoodResponse	1	0.259	n/a	2	4	ButtonPress	Win	True
52.43	0.34	Win2	1.0	n/a	Yes	3.285	n/a	n/a	GoodResponse	1	n/a	n/a	2	4	Blank	Win	True
52.763	1.45	Win2	1.0	n/a	Yes	3.285	n/a	5.0	GoodResponse	1	0.043	51.806	2	4	Feedback	Win	True
54.213	3.285	Win2	1.0	n/a	Yes	3.285	n/a	n/a	GoodResponse	1	0.0	n/a	2	4	ISIslide	Win	True
57.528	0.25	Win2	1.0	0.0	Yes	2.772	0.028	n/a	GoodResponse	1	n/a	n/a	3	5	Cue	Win	True
57.778	4.0	Win2	1.0	0.0	Yes	2.772	0.0	n/a	GoodResponse	1	n/a	n/a	3	5	Fixation	Win	True
61.777	0.35	Win2	1.0	0.001	Yes	2.772	-0.001	3.0	GoodResponse	1	0.222	60.999	3	5	Target	Win	True
61.999	0.3	Win2	1.0	0.001	Yes	2.772	-0.001	3.0	GoodResponse	1	0.222	n/a	3	5	ButtonPress	Win	True
62.127	0.35	Win2	1.0	n/a	Yes	2.772	n/a	n/a	GoodResponse	1	n/a	n/a	3	5	Blank	Win	True
62.476	1.45	Win2	1.0	n/a	Yes	2.772	n/a	5.0	GoodResponse	1	0.038	61.514	3	5	Feedback	Win	True
63.926	2.772	Win2	1.0	n/a	Yes	2.772	n/a	n/a	GoodResponse	1	0.0	n/a	3	5	ISIslide	Win	True
66.725	0.25	Lose2	1.0	0.0	Yes	2.725	0.025	n/a	GoodResponse	0	n/a	n/a	3	6	Cue	AvoidedLoss	True
66.975	3.95	Lose2	1.0	0.0	Yes	2.725	0.0	n/a	GoodResponse	0	n/a	n/a	3	6	Fixation	AvoidedLoss	True
70.923	0.34	Lose2	1.0	0.002	Yes	2.725	-0.002	3.0	GoodResponse	0	0.212	70.135	3	6	Target	AvoidedLoss	True
71.135	0.3	Lose2	1.0	0.002	Yes	2.725	-0.002	3.0	GoodResponse	0	0.212	n/a	3	6	ButtonPress	AvoidedLoss	True
71.273	0.36	Lose2	1.0	n/a	Yes	2.725	n/a	n/a	GoodResponse	0	n/a	n/a	3	6	Blank	AvoidedLoss	True
71.623	1.45	Lose2	1.0	n/a	Yes	2.725	n/a	5.0	GoodResponse	0	0.013	70.636	3	6	Feedback	AvoidedLoss	True
73.073	2.725	Lose2	1.0	n/a	Yes	2.725	n/a	n/a	GoodResponse	0	0.0	n/a	3	6	ISIslide	AvoidedLoss	True
75.822	0.25	Lose2	1.0	0.0	Yes	4.028	0.022	n/a	GoodResponse	0	n/a	n/a	3	7	Cue	AvoidedLoss	True
76.072	4.05	Lose2	1.0	0.0	Yes	4.028	0.0	n/a	GoodResponse	0	n/a	n/a	3	7	Fixation	AvoidedLoss	True
80.12	0.33	Lose2	1.0	0.002	Yes	4.028	-0.002	3.0	GoodResponse	0	0.305	79.425	3	7	Target	AvoidedLoss	True
80.425	0.3	Lose2	1.0	0.002	Yes	4.028	-0.002	3.0	GoodResponse	0	0.305	n/a	3	7	ButtonPress	AvoidedLoss	True
80.453	0.37	Lose2	1.0	n/a	Yes	4.028	n/a	n/a	GoodResponse	0	n/a	n/a	3	7	Blank	AvoidedLoss	True
80.82	1.45	Lose2	1.0	n/a	Yes	4.028	n/a	5.0	GoodResponse	0	0.035	79.855	3	7	Feedback	AvoidedLoss	True
82.269	4.028	Lose2	1.0	n/a	Yes	4.028	n/a	n/a	GoodResponse	0	0.0	n/a	3	7	ISIslide	AvoidedLoss	True
86.318	0.25	Lose2	1.0	0.0	Yes	3.032	0.018	n/a	GoodResponse	0	n/a	n/a	3	8	Cue	AvoidedLoss	True
86.568	3.95	Lose2	1.0	0.0	Yes	3.032	0.0	n/a	GoodResponse	0	n/a	n/a	3	8	Fixation	AvoidedLoss	True
90.516	0.32	Lose2	1.0	0.002	Yes	3.032	-0.002	3.0	GoodResponse	0	0.23	89.746	3	8	Target	AvoidedLoss	True
90.746	0.3	Lose2	1.0	0.002	Yes	3.032	-0.002	3.0	GoodResponse	0	0.23	n/a	3	8	ButtonPress	AvoidedLoss	True
90.85	0.38	Lose2	1.0	n/a	Yes	3.032	n/a	n/a	GoodResponse	0	n/a	n/a	3	8	Blank	AvoidedLoss	True
91.216	1.45	Lose2	1.0	n/a	Yes	3.032	n/a	5.0	GoodResponse	0	0.029	90.245	3	8	Feedback	AvoidedLoss	True
92.666	3.032	Lose2	1.0	n/a	Yes	3.032	n/a	n/a	GoodResponse	0	0.0	n/a	3	8	ISIslide	AvoidedLoss	True
95.715	0.25	Lose2	1.0	0.0	Yes	3.135	0.015	n/a	GoodResponse	0	n/a	n/a	3	9	Cue	AvoidedLoss	True
95.965	3.95	Lose2	1.0	0.0	Yes	3.135	0.0	n/a	GoodResponse	0	n/a	n/a	3	9	Fixation	AvoidedLoss	True
99.913	0.31	Lose2	1.0	0.002	Yes	3.135	-0.002	3.0	GoodResponse	0	0.233	99.146	3	9	Target	AvoidedLoss	True
100.146	0.3	Lose2	1.0	0.002	Yes	3.135	-0.002	3.0	GoodResponse	0	0.233	n/a	3	9	ButtonPress	AvoidedLoss	True
100.23	0.39	Lose2	1.0	n/a	Yes	3.135	n/a	n/a	GoodResponse	0	n/a	n/a	3	9	Blank	AvoidedLoss	True
100.613	1.45	Lose2	1.0	n/a	Yes	3.135	n/a	5.0	GoodResponse	0	0.047	99.66	3	9	Feedback	AvoidedLoss	True
102.062	3.135	Lose2	1.0	n/a	Yes	3.135	n/a	n/a	GoodResponse	0	0.0	n/a	3	9	ISIslide	AvoidedLoss	True
105.211	0.25	Control	1.0	0.0	Yes	3.289	0.011	n/a	GoodResponse	0	n/a	n/a	3	10	Cue	Neutral	True
105.461	4.0	Control	1.0	0.0	Yes	3.289	0.0	n/a	GoodResponse	0	n/a	n/a	3	10	Fixation	Neutral	True
109.46	0.3	Control	1.0	0.001	Yes	3.289	-0.001	3.0	GoodResponse	0	0.264	108.724	3	10	Target	Neutral	True
109.724	0.3	Control	1.0	0.001	Yes	3.289	-0.001	3.0	GoodResponse	0	0.264	n/a	3	10	ButtonPress	Neutral	True
109.76	0.4	Control	1.0	n/a	Yes	3.289	n/a	n/a	GoodResponse	0	n/a	n/a	3	10	Blank	Neutral	True
110.159	1.45	Control	1.0	n/a	Yes	3.289	n/a	5.0	GoodResponse	0	0.013	109.172	3	10	Feedback	Neutral	True
111.609	3.289	Control	1.0	n/a	Yes	3.289	n/a	n/a	GoodResponse	0	0.0	n/a	3	10	ISIslide	Neutral	True
114.924	0.25	Lose2	1.0	0.001	Yes	2.726	0.024	n/a	GoodResponse	0	n/a	n/a	3	11	Cue	AvoidedLoss	True
115.174	4.05	Lose2	1.0	0.0	Yes	2.726	0.0	n/a	GoodResponse	0	n/a	n/a	3	11	Fixation	AvoidedLoss	True
119.223	0.29	Lose2	1.0	0.001	Yes	2.726	-0.001	3.0	GoodResponse	0	0.234	118.457	3	11	Target	AvoidedLoss	True
119.457	0.3	Lose2	1.0	0.001	Yes	2.726	-0.001	3.0	GoodResponse	0	0.234	n/a	3	11	ButtonPress	AvoidedLoss	True
119.523	0.41	Lose2	1.0	n/a	Yes	2.726	n/a	n/a	GoodResponse	0	n/a	n/a	3	11	Blank	AvoidedLoss	True
119.923	1.45	Lose2	1.0	n/a	Yes	2.726	n/a	5.0	GoodResponse	0	0.005	118.928	3	11	Feedback	AvoidedLoss	True
121.372	2.726	Lose2	1.0	n/a	Yes	2.726	n/a	n/a	GoodResponse	0	0.0	n/a	3	11	ISIslide	AvoidedLoss	True
124.121	0.25	Control	1.0	0.0	Yes	2.979	0.021	n/a	GoodResponse	0	n/a	n/a	3	12	Cue	Neutral	True
124.371	3.9	Control	1.0	0.0	Yes	2.979	0.0	n/a	GoodResponse	0	n/a	n/a	3	12	Fixation	Neutral	True
128.27	0.28	Control	1.0	0.001	Yes	2.979	-0.001	3.0	GoodResponse	0	0.236	127.506	3	12	Target	Neutral	True
128.506	0.3	Control	1.0	0.001	Yes	2.979	-0.001	3.0	GoodResponse	0	0.236	n/a	3	12	ButtonPress	Neutral	True
128.553	0.42	Control	1.0	n/a	Yes	2.979	n/a	n/a	GoodResponse	0	n/a	n/a	3	12	Blank	Neutral	True
128.969	1.45	Control	1.0	n/a	Yes	2.979	n/a	5.0	GoodResponse	0	0.031	128.0	3	12	Feedback	Neutral	True
130.419	2.979	Control	1.0	n/a	Yes	2.979	n/a	n/a	GoodResponse	0	0.0	n/a	3	12	ISIslide	Neutral	True
133.418	0.25	Control	1.0	0.0	Yes	2.782	0.018	n/a	GoodResponse	0	n/a	n/a	3	13	Cue	Neutral	True
133.668	4.0	Control	1.0	0.0	Yes	2.782	0.0	n/a	GoodResponse	0	n/a	n/a	3	13	Fixation	Neutral	True
137.666	0.27	Control	1.0	0.002	Yes	2.782	-0.002	3.0	GoodResponse	0	0.219	136.885	3	13	Target	Neutral	True
137.885	0.3	Control	1.0	0.002	Yes	2.782	-0.002	3.0	GoodResponse	0	0.219	n/a	3	13	ButtonPress	Neutral	True
137.95	0.43	Control	1.0	n/a	Yes	2.782	n/a	n/a	GoodResponse	0	n/a	n/a	3	13	Blank	Neutral	True
138.366	1.45	Control	1.0	n/a	Yes	2.782	n/a	5.0	GoodResponse	0	0.049	137.415	3	13	Feedback	Neutral	True
139.816	2.782	Control	1.0	n/a	Yes	2.782	n/a	n/a	GoodResponse	0	0.0	n/a	3	13	ISIslide	Neutral	True
142.615	0.25	Win2	1.0	0.0	Yes	2.685	0.015	n/a	GoodResponse	1	n/a	n/a	4	14	Cue	Win	True
142.865	4.1	Win2	1.0	0.0	Yes	2.685	0.0	n/a	GoodResponse	1	n/a	n/a	4	14	Fixation	Win	True
146.963	0.26	Win2	1.0	0.002	Yes	2.685	-0.002	3.0	GoodResponse	1	0.221	146.184	4	14	Target	Win	True
147.184	0.3	Win2	1.0	0.002	Yes	2.685	-0.002	3.0	GoodResponse	1	0.221	n/a	4	14	ButtonPress	Win	True
147.23	0.44	Win2	1.0	n/a	Yes	2.685	n/a	n/a	GoodResponse	1	n/a	n/a	4	14	Blank	Win	True
147.663	1.45	Win2	1.0	n/a	Yes	2.685	n/a	5.0	GoodResponse	1	0.021	146.684	4	14	Feedback	Win	True
149.112	2.685	Win2	1.0	n/a	Yes	2.685	n/a	n/a	GoodResponse	1	0.0	n/a	4	14	ISIslide	Win	True
151.811	0.25	Control	0.9375	0.0	No	2.989	0.011	n/a	NoResponse	0	n/a	n/a	4	15	Cue	Neutral	True
152.061	4.0	Control	0.9375	0.0	No	2.989	0.0	n/a	NoResponse	0	n/a	n/a	4	15	Fixation	Neutral	True
156.06	0.25	Control	0.9375	0.001	No	2.989	-0.001	3.0	NoResponse	0	0.308	155.368	4	15	Target	Neutral	True
156.31	0.45	Control	0.9375	n/a	No	2.989	n/a	n/a	NoResponse	0	n/a	n/a	4	15	Blank	Neutral	True
156.368	0.3	Control	0.9375	0.001	No	2.989	-0.001	3.0	NoResponse	0	0.308	n/a	4	15	ButtonPress	Neutral	True
156.76	1.45	Control	0.9375	n/a	No	2.989	n/a	5.0	NoResponse	0	0.045	155.805	4	15	Feedback	Neutral	True
158.209	2.989	Control	0.9375	n/a	No	2.989	n/a	n/a	NoResponse	0	0.0	n/a	4	15	ISIslide	Neutral	True
161.225	0.25	Win2	0.8824	0.0	No	2.875	0.025	n/a	NoResponse	0	n/a	n/a	4	16	Cue	MissedWin	True
161.475	4.0	Win2	0.8824	0.0	No	2.875	0.0	n/a	NoResponse	0	n/a	n/a	4	16	Fixation	MissedWin	True
165.473	0.24	Win2	0.8824	0.002	No	2.875	-0.002	3.0	NoResponse	0	0.317	164.79	4	16	Target	MissedWin	True
165.723	0.46	Win2	0.8824	n/a	No	2.875	n/a	n/a	NoResponse	0	n/a	n/a	4	16	Blank	MissedWin	True
165.79	0.3	Win2	0.8824	0.002	No	2.875	-0.002	3.0	NoResponse	0	0.317	n/a	4	16	ButtonPress	MissedWin	True
166.173	1.45	Win2	0.8824	n/a	No	2.875	n/a	5.0	NoResponse	0	0.046	165.219	4	16	Feedback	MissedWin	True
167.622	2.875	Win2	0.8824	n/a	No	2.875	n/a	n/a	NoResponse	0	0.0	n/a	4	16	ISIslide	MissedWin	True
170.521	0.25	Lose2	0.8889	0.0	Yes	2.729	0.021	n/a	GoodResponse	0	n/a	n/a	4	17	Cue	AvoidedLoss	True
170.771	3.95	Lose2	0.8889	0.0	Yes	2.729	0.0	n/a	GoodResponse	0	n/a	n/a	4	17	Fixation	AvoidedLoss	True
174.72	0.23	Lose2	0.8889	0.001	Yes	2.729	-0.001	3.0	GoodResponse	0	0.209	173.929	4	17	Target	AvoidedLoss	True
174.929	0.3	Lose2	0.8889	0.001	Yes	2.729	-0.001	3.0	GoodResponse	0	0.209	n/a	4	17	ButtonPress	AvoidedLoss	True
174.953	0.47	Lose2	0.8889	n/a	Yes	2.729	n/a	n/a	GoodResponse	0	n/a	n/a	4	17	Blank	AvoidedLoss	True
175.42	1.45	Lose2	0.8889	n/a	Yes	2.729	n/a	5.0	GoodResponse	0	0.019	174.439	4	17	Feedback	AvoidedLoss	True
176.869	2.729	Lose2	0.8889	n/a	Yes	2.729	n/a	n/a	GoodResponse	0	0.0	n/a	4	17	ISIslide	AvoidedLoss	True
179.618	0.25	Lose2	0.8946999999999999	0.0	Yes	2.732	0.018	n/a	GoodResponse	0	n/a	n/a	4	18	Cue	AvoidedLoss	True
179.868	4.05	Lose2	0.8946999999999999	0.0	Yes	2.732	0.0	n/a	GoodResponse	0	n/a	n/a	4	18	Fixation	AvoidedLoss	True
183.917	0.22	Lose2	0.8946999999999999	0.001	Yes	2.732	-0.001	3.0	GoodResponse	0	0.206	183.123	4	18	Target	AvoidedLoss	True
184.123	0.3	Lose2	0.8946999999999999	0.001	Yes	2.732	-0.001	3.0	GoodResponse	0	0.206	n/a	4	18	ButtonPress	AvoidedLoss	True
184.15	0.48	Lose2	0.8946999999999999	n/a	Yes	2.732	n/a	n/a	GoodResponse	0	n/a	n/a	4	18	Blank	AvoidedLoss	True
184.616	1.45	Lose2	0.8946999999999999	n/a	Yes	2.732	n/a	5.0	GoodResponse	0	0.043	183.659	4	18	Feedback	AvoidedLoss	True
186.066	2.732	Lose2	0.8946999999999999	n/a	Yes	2.732	n/a	n/a	GoodResponse	0	0.0	n/a	4	18	ISIslide	AvoidedLoss	True
188.815	0.25	Control	0.85	0.0	No	2.935	0.015	n/a	NoResponse	0	n/a	n/a	4	19	Cue	Neutral	True
189.065	3.95	Control	0.85	0.0	No	2.935	0.0	n/a	NoResponse	0	n/a	n/a	4	19	Fixation	Neutral	True
193.013	0.21	Control	0.85	0.002	No	2.935	-0.002	3.0	NoResponse	0	0.245	192.258	4	19	Target	Neutral	True
193.23	0.49	Control	0.85	n/a	No	2.935	n/a	n/a	NoResponse	0	n/a	n/a	4	19	Blank	Neutral	True
193.258	0.3	Control	0.85	0.002	No	2.935	-0.002	3.0	NoResponse	0	0.245	n/a	4	19	ButtonPress	Neutral	True
193.713	1.45	Control	0.85	n/a	No	2.935	n/a	5.0	NoResponse	0	0.019	192.732	4	19	Feedback	Neutral	True
195.163	2.935	Control	0.85	n/a	No	2.935	n/a	n/a	NoResponse	0	0.0	n/a	4	19	ISIslide	Neutral	True
198.128	0.25	Control	0.8095	0.0	No	2.622	0.028	n/a	NoResponse	0	n/a	n/a	4	20	Cue	Neutral	True
198.378	4.05	Control	0.8095	0.0	No	2.622	0.0	3.0	NoResponse	0	4.045	201.423	4	20	Fixation	Neutral	True
202.423	0.3	Control	0.8095	0.0	No	2.622	0.0	3.0	NoResponse	0	4.045	n/a	4	20	ButtonPress	Neutral	True
202.427	0.2	Control	0.8095	0.001	No	2.622	-0.001	n/a	NoResponse	0	n/a	n/a	4	20	Target	Neutral	True
202.627	0.5	Control	0.8095	n/a	No	2.622	n/a	n/a	NoResponse	0	n/a	n/a	4	20	Blank	Neutral	True
203.126	1.45	Control	0.8095	n/a	No	2.622	n/a	5.0	NoResponse	0	0.02	202.146	4	20	Feedback	Neutral	True
204.576	2.622	Control	0.8095	n/a	No	2.622	n/a	n/a	NoResponse	0	0.0	n/a	4	20	ISIslide	Neutral	True
207.225	0.25	Control	0.7726999999999999	0.0	No	2.775	0.025	n/a	NoResponse	0	n/a	n/a	4	21	Cue	Neutral	True
207.475	4.1	Control	0.7726999999999999	0.0	No	2.775	0.0	n/a	NoResponse	0	n/a	n/a	4	21	Fixation	Neutral	True
211.573	0.19	Control	0.7726999999999999	0.002	No	2.775	-0.002	3.0	NoResponse	0	0.212	210.785	4	21	Target	Neutral	True
211.773	0.51	Control	0.7726999999999999	n/a	No	2.775	n/a	n/a	NoResponse	0	n/a	n/a	4	21	Blank	Neutral	True
211.785	0.3	Control	0.7726999999999999	0.002	No	2.775	-0.002	3.0	NoResponse	0	0.212	n/a	4	21	ButtonPress	Neutral	True
212.273	1.45	Control	0.7726999999999999	n/a	No	2.775	n/a	5.0	NoResponse	0	0.044	211.317	4	21	Feedback	Neutral	True
213.723	2.775	Control	0.7726999999999999	n/a	No	2.775	n/a	n/a	NoResponse	0	0.0	n/a	4	21	ISIslide	Neutral	True
216.522	0.25	Control	0.7391	0.0	No	2.778	0.022	n/a	NoResponse	0	n/a	n/a	4	22	Cue	Neutral	True
216.772	4.0	Control	0.7391	0.0	No	2.778	0.0	n/a	NoResponse	0	n/a	n/a	4	22	Fixation	Neutral	True
220.77	0.18	Control	0.7391	0.002	No	2.778	-0.002	3.0	NoResponse	0	0.305	220.075	4	22	Target	Neutral	True
220.953	0.52	Control	0.7391	n/a	No	2.778	n/a	n/a	NoResponse	0	n/a	n/a	4	22	Blank	Neutral	True
221.075	0.3	Control	0.7391	0.002	No	2.778	-0.002	3.0	NoResponse	0	0.305	n/a	4	22	ButtonPress	Neutral	True
221.47	1.45	Control	0.7391	n/a	No	2.778	n/a	5.0	NoResponse	0	0.017	220.487	4	22	Feedback	Neutral	True
222.919	2.778	Control	0.7391	n/a	No	2.778	n/a	n/a	NoResponse	0	0.0	n/a	4	22	ISIslide	Neutral	True
225.718	0.25	Control	0.7082999999999999	0.0	No	2.782	0.018	n/a	NoResponse	0	n/a	n/a	4	23	Cue	Neutral	False
225.968	3.9	Control	0.7082999999999999	0.0	No	2.782	0.0	3.0	NoResponse	0	3.07	228.038	4	23	Fixation	Neutral	False
229.038	0.3	Control	0.7082999999999999	0.0	No	2.782	0.0	3.0	NoResponse	0	3.07	n/a	4	23	ButtonPress	Neutral	False
229.867	0.17	Control	0.7082999999999999	0.001	No	2.782	-0.001	3.0	NoResponse	0	0.226	229.093	4	23	Target	Neutral	False
230.034	0.53	Control	0.7082999999999999	n/a	No	2.782	n/a	n/a	NoResponse	0	n/a	n/a	4	23	Blank	Neutral	False
230.093	0.3	Control	0.7082999999999999	0.001	No	2.782	-0.001	3.0	NoResponse	0	0.226	n/a	4	23	ButtonPress	Neutral	False
230.567	1.45	Control	0.7082999999999999	n/a	No	2.782	n/a	5.0	NoResponse	0	0.041	229.608	4	23	Feedback	Neutral	False
232.016	2.782	Control	0.7082999999999999	n/a	No	2.782	n/a	n/a	NoResponse	0	0.0	n/a	4	23	ISIslide	Neutral	False
234.815	0.25	Win2	0.68	0.0	No	3.135	0.015	n/a	NoResponse	0	n/a	n/a	4	24	Cue	MissedWin	True
235.065	3.95	Win2	0.68	0.0	No	3.135	0.0	n/a	NoResponse	0	n/a	n/a	4	24	Fixation	MissedWin	True
239.014	0.16	Win2	0.68	0.001	No	3.135	-0.001	3.0	NoResponse	0	0.231	238.245	4	24	Target	MissedWin	True
239.18	0.54	Win2	0.68	n/a	No	3.135	n/a	n/a	NoResponse	0	n/a	n/a	4	24	Blank	MissedWin	True
239.245	0.3	Win2	0.68	0.001	No	3.135	-0.001	3.0	NoResponse	0	0.231	n/a	4	24	ButtonPress	MissedWin	True
239.713	1.45	Win2	0.68	n/a	No	3.135	n/a	5.0	NoResponse	0	0.018	238.731	4	24	Feedback	MissedWin	True
241.163	3.135	Win2	0.68	n/a	No	3.135	n/a	n/a	NoResponse	0	0.0	n/a	4	24	ISIslide	MissedWin	True
244.328	0.25	Win2	0.6537999999999999	0.001	No	3.072	0.028	n/a	NoResponse	0	n/a	n/a	4	25	Cue	MissedWin	True
244.578	4.0	Win2	0.6537999999999999	0.0	No	3.072	0.0	n/a	NoResponse	0	n/a	n/a	4	25	Fixation	MissedWin	True
248.577	0.15	Win2	0.6537999999999999	0.001	No	3.072	-0.001	3.0	NoResponse	0	0.172	247.749	4	25	Target	MissedWin	True
248.727	0.55	Win2	0.6537999999999999	n/a	No	3.072	n/a	n/a	NoResponse	0	n/a	n/a	4	25	Blank	MissedWin	True
248.749	0.3	Win2	0.6537999999999999	0.001	No	3.072	-0.001	3.0	NoResponse	0	0.172	n/a	4	25	ButtonPress	MissedWin	True
249.277	1.45	Win2	0.6537999999999999	n/a	No	3.072	n/a	5.0	NoResponse	0	0.015	248.292	4	25	Feedback	MissedWin	True
250.726	3.072	Win2	0.6537999999999999	n/a	No	3.072	n/a	n/a	NoResponse	0	0.0	n/a	4	25	ISIslide	MissedWin	True
253.825	0.25	Win2	0.6296	0.0	No	2.925	0.025	n/a	NoResponse	0	n/a	n/a	4	26	Cue	MissedWin	False
254.075	3.95	Win2	0.6296	0.0	No	2.925	0.0	3.0	NoResponse	0	3.287	256.362	4	26	Fixation	MissedWin	False
257.362	0.3	Win2	0.6296	0.0	No	2.925	0.0	3.0	NoResponse	0	3.287	n/a	4	26	ButtonPress	MissedWin	False
258.024	0.16	Win2	0.6296	0.001	No	2.925	-0.001	3.0	NoResponse	0	0.318	257.342	4	26	Target	MissedWin	False
258.19	0.54	Win2	0.6296	n/a	No	2.925	n/a	n/a	NoResponse	0	n/a	n/a	4	26	Blank	MissedWin	False
258.342	0.3	Win2	0.6296	0.001	No	2.925	-0.001	3.0	NoResponse	0	0.318	n/a	4	26	ButtonPress	MissedWin	False
258.723	1.45	Win2	0.6296	n/a	No	2.925	n/a	5.0	NoResponse	0	0.032	257.755	4	26	Feedback	MissedWin	False
260.173	2.925	Win2	0.6296	n/a	No	2.925	n/a	n/a	NoResponse	0	0.0	n/a	4	26	ISIslide	MissedWin	False
263.122	0.25	Lose2	0.6071	0.0	No	2.828	0.022	n/a	NoResponse	-1	n/a	n/a	3	27	Cue	Loss	False
263.372	4.05	Lose2	0.6071	0.0	No	2.828	0.0	3.0	NoResponse	-1	3.902	266.274	3	27	Fixation	Loss	False
267.274	0.3	Lose2	0.6071	0.0	No	2.828	0.0	3.0	NoResponse	-1	3.902	n/a	3	27	ButtonPress	Loss	False
267.42	0.17	Lose2	0.6071	0.002	No	2.828	-0.002	3.0	NoResponse	-1	0.28	266.7	3	27	Target	Loss	False
267.604	0.53	Lose2	0.6071	n/a	No	2.828	n/a	n/a	NoResponse	-1	n/a	n/a	3	27	Blank	Loss	False
267.7	0.3	Lose2	0.6071	0.002	No	2.828	-0.002	3.0	NoResponse	-1	0.28	n/a	3	27	ButtonPress	Loss	False
268.12	1.45	Lose2	0.6071	n/a	No	2.828	n/a	5.0	NoResponse	-1	0.0	267.12	3	27	Feedback	Loss	False
269.569	2.828	Lose2	0.6071	n/a	No	2.828	n/a	n/a	NoResponse	-1	0.0	n/a	3	27	ISIslide	Loss	False
272.418	0.25	Control	0.5861999999999999	0.001	No	2.832	0.018	n/a	NoResponse	0	n/a	n/a	3	28	Cue	Neutral	True
272.668	4.05	Control	0.5861999999999999	0.0	No	2.832	0.0	n/a	NoResponse	0	n/a	n/a	3	28	Fixation	Neutral	True
276.717	0.18	Control	0.5861999999999999	0.001	No	2.832	-0.001	3.0	NoResponse	0	0.289	276.006	3	28	Target	Neutral	True
276.9	0.52	Control	0.5861999999999999	n/a	No	2.832	n/a	n/a	NoResponse	0	n/a	n/a	3	28	Blank	Neutral	True
277.006	0.3	Control	0.5861999999999999	0.001	No	2.832	-0.001	3.0	NoResponse	0	0.289	n/a	3	28	ButtonPress	Neutral	True
277.417	1.45	Control	0.5861999999999999	n/a	No	2.832	n/a	5.0	NoResponse	0	0.02	276.437	3	28	Feedback	Neutral	True
278.866	2.832	Control	0.5861999999999999	n/a	No	2.832	n/a	n/a	NoResponse	0	0.0	n/a	3	28	ISIslide	Neutral	True
281.715	0.25	Lose2	0.5667	0.0	No	2.835	0.015	3.0	NoResponse	-1	0.246	280.961	2	29	Cue	Loss	False
281.961	0.3	Lose2	0.5667	0.0	No	2.835	0.015	3.0	NoResponse	-1	0.246	n/a	2	29	ButtonPress	Loss	False
281.965	3.95	Lose2	0.5667	0.0	No	2.835	0.0	n/a	NoResponse	-1	n/a	n/a	2	29	Fixation	Loss	False
285.914	0.19	Lose2	0.5667	0.001	No	2.835	-0.001	3.0	NoResponse	-1	0.245	285.159	2	29	Target	Loss	False
286.114	0.51	Lose2	0.5667	n/a	No	2.835	n/a	n/a	NoResponse	-1	n/a	n/a	2	29	Blank	Loss	False
286.159	0.3	Lose2	0.5667	0.001	No	2.835	-0.001	3.0	NoResponse	-1	0.245	n/a	2	29	ButtonPress	Loss	False
286.613	1.45	Lose2	0.5667	n/a	No	2.835	n/a	5.0	NoResponse	-1	0.044	285.657	2	29	Feedback	Loss	False
288.063	2.835	Lose2	0.5667	n/a	No	2.835	n/a	n/a	NoResponse	-1	0.0	n/a	2	29	ISIslide	Loss	False
290.929	0.25	Win2	0.5484	0.0	No	2.771	0.029	n/a	NoResponse	0	n/a	n/a	2	30	Cue	MissedWin	True
291.178	3.9	Win2	0.5484	0.001	No	2.771	-0.001	n/a	NoResponse	0	n/a	n/a	2	30	Fixation	MissedWin	True
295.077	0.2	Win2	0.5484	0.002	No	2.771	-0.002	3.0	NoResponse	0	0.239	294.316	2	30	Target	MissedWin	True
295.277	0.5	Win2	0.5484	n/a	No	2.771	n/a	n/a	NoResponse	0	n/a	n/a	2	30	Blank	MissedWin	True
295.316	0.3	Win2	0.5484	0.002	No	2.771	-0.002	3.0	NoResponse	0	0.239	n/a	2	30	ButtonPress	MissedWin	True
295.777	1.45	Win2	0.5484	n/a	No	2.771	n/a	5.0	NoResponse	0	0.002	294.779	2	30	Feedback	MissedWin	True
297.226	2.771	Win2	0.5484	n/a	No	2.771	n/a	n/a	NoResponse	0	0.0	n/a	2	30	ISIslide	MissedWin	True
300.025	0.25	Lose2	0.5312	0.0	No	2.825	0.025	n/a	LatePress	-1	n/a	n/a	1	31	Cue	Loss	False
300.275	4.05	Lose2	0.5312	0.0	No	2.825	0.0	3.0	LatePress	-1	3.442	302.717	1	31	Fixation	Loss	False
303.717	0.3	Lose2	0.5312	0.0	No	2.825	0.0	3.0	LatePress	-1	3.442	n/a	1	31	ButtonPress	Loss	False
304.324	0.21	Lose2	0.5312	0.001	No	2.825	-0.001	3.0	LatePress	-1	0.214	303.538	1	31	Target	Loss	False
304.538	0.3	Lose2	0.5312	0.001	No	2.825	-0.001	3.0	LatePress	-1	0.214	n/a	1	31	ButtonPress	Loss	False
304.54	0.49	Lose2	0.5312	n/a	No	2.825	n/a	n/a	LatePress	-1	n/a	n/a	1	31	Blank	Loss	False
305.024	1.45	Lose2	0.5312	n/a	No	2.825	n/a	5.0	LatePress	-1	0.023	304.047	1	31	Feedback	Loss	False
306.473	2.825	Lose2	0.5312	n/a	No	2.825	n/a	n/a	LatePress	-1	0.0	n/a	1	31	ISIslide	Loss	False
309.322	0.25	Lose2	0.5455	0.0	Yes	2.628	0.022	n/a	GoodResponse	0	n/a	n/a	1	32	Cue	AvoidedLoss	True
309.572	4.15	Lose2	0.5455	0.0	Yes	2.628	0.0	n/a	GoodResponse	0	n/a	n/a	1	32	Fixation	AvoidedLoss	True
313.72	0.22	Lose2	0.5455	0.002	Yes	2.628	-0.002	3.0	GoodResponse	0	0.218	312.938	1	32	Target	AvoidedLoss	True
313.938	0.3	Lose2	0.5455	0.002	Yes	2.628	-0.002	3.0	GoodResponse	0	0.218	n/a	1	32	ButtonPress	AvoidedLoss	True
313.954	0.48	Lose2	0.5455	n/a	Yes	2.628	n/a	n/a	GoodResponse	0	n/a	n/a	1	32	Blank	AvoidedLoss	True
314.42	1.45	Lose2	0.5455	n/a	Yes	2.628	n/a	5.0	GoodResponse	0	0.041	313.461	1	32	Feedback	AvoidedLoss	True
315.87	2.628	Lose2	0.5455	n/a	Yes	2.628	n/a	n/a	GoodResponse	0	0.0	n/a	1	32	ISIslide	AvoidedLoss	True
318.519	0.25	Win2	0.5588000000000001	0.0	Yes	2.681	0.019	n/a	GoodResponse	1	n/a	n/a	2	33	Cue	Win	False
318.769	4.0	Win2	0.5588000000000001	0.0	Yes	2.681	0.0	3.0	GoodResponse	1	3.208	320.977	2	33	Fixation	Win	False
321.977	0.3	Win2	0.5588000000000001	0.0	Yes	2.681	0.0	3.0	GoodResponse	1	3.208	n/a	2	33	ButtonPress	Win	False
322.767	0.23	Win2	0.5588000000000001	0.002	Yes	2.681	-0.002	3.0	GoodResponse	1	0.219	321.986	2	33	Target	Win	False
322.986	0.3	Win2	0.5588000000000001	0.002	Yes	2.681	-0.002	3.0	GoodResponse	1	0.219	n/a	2	33	ButtonPress	Win	False
323	0.47	Win2	0.5588000000000001	n/a	Yes	2.681	n/a	n/a	GoodResponse	1	n/a	n/a	2	33	Blank	Win	False
323.467	1.45	Win2	0.5588000000000001	n/a	Yes	2.681	n/a	5.0	GoodResponse	1	0.019	322.486	2	33	Feedback	Win	False
324.916	2.681	Win2	0.5588000000000001	n/a	Yes	2.681	n/a	n/a	GoodResponse	1	0.0	n/a	2	33	ISIslide	Win	False
327.615	0.25	Lose2	0.5714	0.001	Yes	2.635	0.015	n/a	GoodResponse	0	n/a	n/a	2	34	Cue	AvoidedLoss	True
327.865	4.05	Lose2	0.5714	0.0	Yes	2.635	0.0	n/a	GoodResponse	0	n/a	n/a	2	34	Fixation	AvoidedLoss	True
331.914	0.24	Lose2	0.5714	0.001	Yes	2.635	-0.001	3.0	GoodResponse	0	0.222	331.136	2	34	Target	AvoidedLoss	True
332.136	0.3	Lose2	0.5714	0.001	Yes	2.635	-0.001	3.0	GoodResponse	0	0.222	n/a	2	34	ButtonPress	AvoidedLoss	True
332.164	0.46	Lose2	0.5714	n/a	Yes	2.635	n/a	n/a	GoodResponse	0	n/a	n/a	2	34	Blank	AvoidedLoss	True
332.614	1.45	Lose2	0.5714	n/a	Yes	2.635	n/a	5.0	GoodResponse	0	0.043	331.657	2	34	Feedback	AvoidedLoss	True
334.063	2.635	Lose2	0.5714	n/a	Yes	2.635	n/a	n/a	GoodResponse	0	0.0	n/a	2	34	ISIslide	AvoidedLoss	True
336.729	0.25	Lose2	0.5832999999999999	0.0	Yes	2.671	0.029	n/a	GoodResponse	0	n/a	n/a	2	35	Cue	AvoidedLoss	True
336.979	4.0	Lose2	0.5832999999999999	0.0	Yes	2.671	0.0	n/a	GoodResponse	0	n/a	n/a	2	35	Fixation	AvoidedLoss	True
340.977	0.25	Lose2	0.5832999999999999	0.002	Yes	2.671	-0.002	3.0	GoodResponse	0	0.219	340.196	2	35	Target	AvoidedLoss	True
341.196	0.3	Lose2	0.5832999999999999	0.002	Yes	2.671	-0.002	3.0	GoodResponse	0	0.219	n/a	2	35	ButtonPress	AvoidedLoss	True
341.227	0.45	Lose2	0.5832999999999999	n/a	Yes	2.671	n/a	n/a	GoodResponse	0	n/a	n/a	2	35	Blank	AvoidedLoss	True
341.677	1.45	Lose2	0.5832999999999999	n/a	Yes	2.671	n/a	5.0	GoodResponse	0	0.007	340.684	2	35	Feedback	AvoidedLoss	True
343.127	2.671	Lose2	0.5832999999999999	n/a	Yes	2.671	n/a	n/a	GoodResponse	0	0.0	n/a	2	35	ISIslide	AvoidedLoss	True
345.826	0.25	Control	0.5946	0.0	Yes	2.674	0.026	n/a	GoodResponse	0	n/a	n/a	2	36	Cue	Neutral	True
346.076	4.0	Control	0.5946	0.0	Yes	2.674	0.0	n/a	GoodResponse	0	n/a	n/a	2	36	Fixation	Neutral	True
350.074	0.26	Control	0.5946	0.002	Yes	2.674	-0.002	3.0	GoodResponse	0	0.207	349.281	2	36	Target	Neutral	True
350.281	0.3	Control	0.5946	0.002	Yes	2.674	-0.002	3.0	GoodResponse	0	0.207	n/a	2	36	ButtonPress	Neutral	True
350.341	0.44	Control	0.5946	n/a	Yes	2.674	n/a	n/a	GoodResponse	0	n/a	n/a	2	36	Blank	Neutral	True
350.774	1.45	Control	0.5946	n/a	Yes	2.674	n/a	5.0	GoodResponse	0	0.028	349.802	2	36	Feedback	Neutral	True
352.223	2.674	Control	0.5946	n/a	Yes	2.674	n/a	n/a	GoodResponse	0	0.0	n/a	2	36	ISIslide	Neutral	True
354.922	0.25	Win2	0.6053000000000001	0.001	Yes	2.878	0.022	n/a	GoodResponse	1	n/a	n/a	3	37	Cue	Win	False
355.172	4.0	Win2	0.6053000000000001	0.0	Yes	2.878	0.0	3.0	GoodResponse	1	3.624	357.796	3	37	Fixation	Win	False
358.796	0.3	Win2	0.6053000000000001	0.0	Yes	2.878	0.0	3.0	GoodResponse	1	3.624	n/a	3	37	ButtonPress	Win	False
359.171	0.27	Win2	0.6053000000000001	0.001	Yes	2.878	-0.001	3.0	GoodResponse	1	0.198	358.369	3	37	Target	Win	False
359.369	0.3	Win2	0.6053000000000001	0.001	Yes	2.878	-0.001	3.0	GoodResponse	1	0.198	n/a	3	37	ButtonPress	Win	False
359.438	0.43	Win2	0.6053000000000001	n/a	Yes	2.878	n/a	n/a	GoodResponse	1	n/a	n/a	3	37	Blank	Win	False
359.871	1.45	Win2	0.6053000000000001	n/a	Yes	2.878	n/a	5.0	GoodResponse	1	0.005	358.876	3	37	Feedback	Win	False
361.32	2.878	Win2	0.6053000000000001	n/a	Yes	2.878	n/a	n/a	GoodResponse	1	0.0	n/a	3	37	ISIslide	Win	False
364.219	0.25	Lose2	0.6154	0.0	Yes	2.831	0.019	n/a	GoodResponse	0	n/a	n/a	3	38	Cue	AvoidedLoss	True
364.469	3.95	Lose2	0.6154	0.0	Yes	2.831	0.0	n/a	GoodResponse	0	n/a	n/a	3	38	Fixation	AvoidedLoss	True
368.418	0.28	Lose2	0.6154	0.001	Yes	2.831	-0.001	3.0	GoodResponse	0	0.208	367.626	3	38	Target	AvoidedLoss	True
368.626	0.3	Lose2	0.6154	0.001	Yes	2.831	-0.001	3.0	GoodResponse	0	0.208	n/a	3	38	ButtonPress	AvoidedLoss	True
368.701	0.42	Lose2	0.6154	n/a	Yes	2.831	n/a	n/a	GoodResponse	0	n/a	n/a	3	38	Blank	AvoidedLoss	True
369.117	1.45	Lose2	0.6154	n/a	Yes	2.831	n/a	5.0	GoodResponse	0	0.027	368.144	3	38	Feedback	AvoidedLoss	True
370.567	2.831	Lose2	0.6154	n/a	Yes	2.831	n/a	n/a	GoodResponse	0	0.0	n/a	3	38	ISIslide	AvoidedLoss	True
373.416	0.25	Win2	0.625	0.0	Yes	2.984	0.016	n/a	GoodResponse	1	n/a	n/a	4	39	Cue	Win	True
373.666	4.1	Win2	0.625	0.0	Yes	2.984	0.0	n/a	GoodResponse	1	n/a	n/a	4	39	Fixation	Win	True
377.764	0.29	Win2	0.625	0.002	Yes	2.984	-0.002	3.0	GoodResponse	1	0.228	376.992	4	39	Target	Win	True
377.992	0.3	Win2	0.625	0.002	Yes	2.984	-0.002	3.0	GoodResponse	1	0.228	n/a	4	39	ButtonPress	Win	True
378.064	0.41	Win2	0.625	n/a	Yes	2.984	n/a	n/a	GoodResponse	1	n/a	n/a	4	39	Blank	Win	True
378.464	1.45	Win2	0.625	n/a	Yes	2.984	n/a	5.0	GoodResponse	1	0.046	377.51	4	39	Feedback	Win	True
379.914	2.984	Win2	0.625	n/a	Yes	2.984	n/a	n/a	GoodResponse	1	0.0	n/a	4	39	ISIslide	Win	True
382.929	0.25	Win2	0.6341	0.0	Yes	2.721	0.029	n/a	GoodResponse	1	n/a	n/a	5	40	Cue	Win	True
383.179	3.95	Win2	0.6341	0.0	Yes	2.721	0.0	n/a	GoodResponse	1	n/a	n/a	5	40	Fixation	Win	True
387.128	0.3	Win2	0.6341	0.001	Yes	2.721	-0.001	3.0	GoodResponse	1	0.203	386.331	5	40	Target	Win	True
387.331	0.3	Win2	0.6341	0.001	Yes	2.721	-0.001	3.0	GoodResponse	1	0.203	n/a	5	40	ButtonPress	Win	True
387.428	0.4	Win2	0.6341	n/a	Yes	2.721	n/a	n/a	GoodResponse	1	n/a	n/a	5	40	Blank	Win	True
387.827	1.45	Win2	0.6341	n/a	Yes	2.721	n/a	5.0	GoodResponse	1	0.048	386.875	5	40	Feedback	Win	True
389.277	2.721	Win2	0.6341	n/a	Yes	2.721	n/a	n/a	GoodResponse	1	0.0	n/a	5	40	ISIslide	Win	True
392.026	0.25	Win2	0.6429	0.0	Yes	2.774	0.026	n/a	GoodResponse	1	n/a	n/a	6	41	Cue	Win	True
392.276	3.9	Win2	0.6429	0.0	Yes	2.774	0.0	n/a	GoodResponse	1	n/a	n/a	6	41	Fixation	Win	True
396.174	0.31	Win2	0.6429	0.002	Yes	2.774	-0.002	3.0	GoodResponse	1	0.269	395.443	6	41	Target	Win	True
396.443	0.3	Win2	0.6429	0.002	Yes	2.774	-0.002	3.0	GoodResponse	1	0.269	n/a	6	41	ButtonPress	Win	True
396.491	0.39	Win2	0.6429	n/a	Yes	2.774	n/a	n/a	GoodResponse	1	n/a	n/a	6	41	Blank	Win	True
396.874	1.45	Win2	0.6429	n/a	Yes	2.774	n/a	5.0	GoodResponse	1	0.025	395.899	6	41	Feedback	Win	True
398.324	2.774	Win2	0.6429	n/a	Yes	2.774	n/a	n/a	GoodResponse	1	0.0	n/a	6	41	ISIslide	Win	True
401.123	0.25	Control	0.6512	0.0	Yes	2.927	0.023	n/a	GoodResponse	0	n/a	n/a	6	42	Cue	Neutral	True
401.373	3.85	Control	0.6512	0.0	Yes	2.927	0.0	n/a	GoodResponse	0	n/a	n/a	6	42	Fixation	Neutral	True
405.221	0.32	Control	0.6512	0.002	Yes	2.927	-0.002	3.0	GoodResponse	0	0.201	404.422	6	42	Target	Neutral	True
405.422	0.3	Control	0.6512	0.002	Yes	2.927	-0.002	3.0	GoodResponse	0	0.201	n/a	6	42	ButtonPress	Neutral	True
405.554	0.38	Control	0.6512	n/a	Yes	2.927	n/a	n/a	GoodResponse	0	n/a	n/a	6	42	Blank	Neutral	True
405.921	1.45	Control	0.6512	n/a	Yes	2.927	n/a	5.0	GoodResponse	0	0.007	404.928	6	42	Feedback	Neutral	True
407.37	2.927	Control	0.6512	n/a	Yes	2.927	n/a	n/a	GoodResponse	0	0.0	n/a	6	42	ISIslide	Neutral	True
410.319	0.25	Win2	0.6591	0.001	Yes	3.181	0.019	n/a	GoodResponse	1	n/a	n/a	7	43	Cue	Win	True
410.569	4.0	Win2	0.6591	0.0	Yes	3.181	0.0	n/a	GoodResponse	1	n/a	n/a	7	43	Fixation	Win	True
414.568	0.33	Win2	0.6591	0.001	Yes	3.181	-0.001	3.0	GoodResponse	1	0.211	413.779	7	43	Target	Win	True
414.779	0.3	Win2	0.6591	0.001	Yes	3.181	-0.001	3.0	GoodResponse	1	0.211	n/a	7	43	ButtonPress	Win	True
414.901	0.37	Win2	0.6591	n/a	Yes	3.181	n/a	n/a	GoodResponse	1	n/a	n/a	7	43	Blank	Win	True
415.268	1.45	Win2	0.6591	n/a	Yes	3.181	n/a	5.0	GoodResponse	1	0.022	414.29	7	43	Feedback	Win	True
416.717	3.181	Win2	0.6591	n/a	Yes	3.181	n/a	n/a	GoodResponse	1	0.0	n/a	7	43	ISIslide	Win	True
419.916	0.25	Win2	0.6667000000000001	0.0	Yes	2.984	0.016	n/a	GoodResponse	1	n/a	n/a	8	44	Cue	Win	True
420.166	4.0	Win2	0.6667000000000001	0.0	Yes	2.984	0.0	n/a	GoodResponse	1	n/a	n/a	8	44	Fixation	Win	True
424.164	0.33	Win2	0.6667000000000001	0.002	Yes	2.984	-0.002	3.0	GoodResponse	1	0.188	423.352	8	44	Target	Win	True
424.352	0.3	Win2	0.6667000000000001	0.002	Yes	2.984	-0.002	3.0	GoodResponse	1	0.188	n/a	8	44	ButtonPress	Win	True
424.498	0.37	Win2	0.6667000000000001	n/a	Yes	2.984	n/a	n/a	GoodResponse	1	n/a	n/a	8	44	Blank	Win	True
424.864	1.45	Win2	0.6667000000000001	n/a	Yes	2.984	n/a	5.0	GoodResponse	1	0.035	423.899	8	44	Feedback	Win	True
426.314	2.984	Win2	0.6667000000000001	n/a	Yes	2.984	n/a	n/a	GoodResponse	1	0.0	n/a	8	44	ISIslide	Win	True
429.313	0.25	Control	0.6739	0.0	Yes	2.887	0.013	n/a	GoodResponse	0	n/a	n/a	8	45	Cue	Neutral	True
429.563	4.1	Control	0.6739	0.0	Yes	2.887	0.0	n/a	GoodResponse	0	n/a	n/a	8	45	Fixation	Neutral	True
433.661	0.32	Control	0.6739	0.002	Yes	2.887	-0.002	3.0	GoodResponse	0	0.224	432.885	8	45	Target	Neutral	True
433.885	0.3	Control	0.6739	0.002	Yes	2.887	-0.002	3.0	GoodResponse	0	0.224	n/a	8	45	ButtonPress	Neutral	True
433.994	0.38	Control	0.6739	n/a	Yes	2.887	n/a	n/a	GoodResponse	0	n/a	n/a	8	45	Blank	Neutral	True
434.361	1.45	Control	0.6739	n/a	Yes	2.887	n/a	5.0	GoodResponse	0	0.001	433.362	8	45	Feedback	Neutral	True
435.81	2.887	Control	0.6739	n/a	Yes	2.887	n/a	n/a	GoodResponse	0	0.0	n/a	8	45	ISIslide	Neutral	True
438.726	0.25	Lose2	0.6809000000000001	0.0	Yes	3.374	0.026	n/a	GoodResponse	0	n/a	n/a	8	46	Cue	AvoidedLoss	True
438.976	4.0	Lose2	0.6809000000000001	0.0	Yes	3.374	0.0	n/a	GoodResponse	0	n/a	n/a	8	46	Fixation	AvoidedLoss	True
442.974	0.31	Lose2	0.6809000000000001	0.002	Yes	3.374	-0.002	3.0	GoodResponse	0	0.188	442.162	8	46	Target	AvoidedLoss	True
443.162	0.3	Lose2	0.6809000000000001	0.002	Yes	3.374	-0.002	3.0	GoodResponse	0	0.188	n/a	8	46	ButtonPress	AvoidedLoss	True
443.291	0.39	Lose2	0.6809000000000001	n/a	Yes	3.374	n/a	n/a	GoodResponse	0	n/a	n/a	8	46	Blank	AvoidedLoss	True
443.674	1.45	Lose2	0.6809000000000001	n/a	Yes	3.374	n/a	5.0	GoodResponse	0	0.007	442.681	8	46	Feedback	AvoidedLoss	True
445.124	3.374	Lose2	0.6809000000000001	n/a	Yes	3.374	n/a	n/a	GoodResponse	0	0.0	n/a	8	46	ISIslide	AvoidedLoss	True
448.522	0.25	Lose2	0.6875	0.001	Yes	2.678	0.022	n/a	GoodResponse	0	n/a	n/a	8	47	Cue	AvoidedLoss	True
448.772	4.0	Lose2	0.6875	0.0	Yes	2.678	0.0	n/a	GoodResponse	0	n/a	n/a	8	47	Fixation	AvoidedLoss	True
452.771	0.3	Lose2	0.6875	0.001	Yes	2.678	-0.001	3.0	GoodResponse	0	0.245	452.016	8	47	Target	AvoidedLoss	True
453.016	0.3	Lose2	0.6875	0.001	Yes	2.678	-0.001	3.0	GoodResponse	0	0.245	n/a	8	47	ButtonPress	AvoidedLoss	True
453.071	0.4	Lose2	0.6875	n/a	Yes	2.678	n/a	n/a	GoodResponse	0	n/a	n/a	8	47	Blank	AvoidedLoss	True
453.471	1.45	Lose2	0.6875	n/a	Yes	2.678	n/a	5.0	GoodResponse	0	0.013	452.484	8	47	Feedback	AvoidedLoss	True
454.92	2.678	Lose2	0.6875	n/a	Yes	2.678	n/a	n/a	GoodResponse	0	0.0	n/a	8	47	ISIslide	AvoidedLoss	True
457.619	0.25	Lose2	0.6939	0.0	Yes	3.031	0.019	n/a	GoodResponse	0	n/a	n/a	8	48	Cue	AvoidedLoss	True
457.869	3.95	Lose2	0.6939	0.0	Yes	3.031	0.0	n/a	GoodResponse	0	n/a	n/a	8	48	Fixation	AvoidedLoss	True
461.818	0.29	Lose2	0.6939	0.001	Yes	3.031	-0.001	3.0	GoodResponse	0	0.252	461.07	8	48	Target	AvoidedLoss	True
462.07	0.3	Lose2	0.6939	0.001	Yes	3.031	-0.001	3.0	GoodResponse	0	0.252	n/a	8	48	ButtonPress	AvoidedLoss	True
462.118	0.41	Lose2	0.6939	n/a	Yes	3.031	n/a	n/a	GoodResponse	0	n/a	n/a	8	48	Blank	AvoidedLoss	True
462.517	1.45	Lose2	0.6939	n/a	Yes	3.031	n/a	5.0	GoodResponse	0	0.04	461.557	8	48	Feedback	AvoidedLoss	True
463.967	3.031	Lose2	0.6939	n/a	Yes	3.031	n/a	n/a	GoodResponse	0	0.0	n/a	8	48	ISIslide	AvoidedLoss	True
467.016	0.25	Control	0.68	0.0	No	2.884	0.016	n/a	NoResponse	0	n/a	n/a	8	49	Cue	Neutral	True
467.266	4.0	Control	0.68	0.0	No	2.884	0.0	n/a	NoResponse	0	n/a	n/a	8	49	Fixation	Neutral	True
471.264	0.28	Control	0.68	0.002	No	2.884	-0.002	3.0	NoResponse	0	0.387	470.651	8	49	Target	Neutral	True
471.548	0.42	Control	0.68	n/a	No	2.884	n/a	n/a	NoResponse	0	n/a	n/a	8	49	Blank	Neutral	True
471.651	0.3	Control	0.68	0.002	No	2.884	-0.002	3.0	NoResponse	0	0.387	n/a	8	49	ButtonPress	Neutral	True
471.964	1.45	Control	0.68	n/a	No	2.884	n/a	5.0	NoResponse	0	0.007	470.971	8	49	Feedback	Neutral	True
473.414	2.884	Control	0.68	n/a	No	2.884	n/a	n/a	NoResponse	0	0.0	n/a	8	49	ISIslide	Neutral	True
476.313	0.25	Control	0.6862999999999999	0.0	Yes	2.787	0.013	n/a	GoodResponse	0	n/a	n/a	8	50	Cue	Neutral	False
476.563	4.0	Control	0.6862999999999999	0.0	Yes	2.787	0.0	3.0	GoodResponse	0	3.071	478.634	8	50	Fixation	Neutral	False
479.634	0.3	Control	0.6862999999999999	0.0	Yes	2.787	0.0	3.0	GoodResponse	0	3.071	n/a	8	50	ButtonPress	Neutral	False
480.561	0.27	Control	0.6862999999999999	0.002	Yes	2.787	-0.002	3.0	GoodResponse	0	0.242	479.803	8	50	Target	Neutral	False
480.803	0.3	Control	0.6862999999999999	0.002	Yes	2.787	-0.002	3.0	GoodResponse	0	0.242	n/a	8	50	ButtonPress	Neutral	False
480.844	0.43	Control	0.6862999999999999	n/a	Yes	2.787	n/a	n/a	GoodResponse	0	n/a	n/a	8	50	Blank	Neutral	False
481.261	1.45	Control	0.6862999999999999	n/a	Yes	2.787	n/a	5.0	GoodResponse	0	0.027	480.288	8	50	Feedback	Neutral	False
482.71	2.787	Control	0.6862999999999999	n/a	Yes	2.787	n/a	n/a	GoodResponse	0	0.0	n/a	8	50	ISIslide	Neutral	False
485.526	0.25	Control	0.6923	0.0	Yes	2.724	0.026	n/a	GoodResponse	0	n/a	n/a	8	51	Cue	Neutral	True
485.776	3.95	Control	0.6923	0.0	Yes	2.724	0.0	n/a	GoodResponse	0	n/a	n/a	8	51	Fixation	Neutral	True
489.724	0.26	Control	0.6923	0.002	Yes	2.724	-0.002	3.0	GoodResponse	0	0.217	488.941	8	51	Target	Neutral	True
489.941	0.3	Control	0.6923	0.002	Yes	2.724	-0.002	3.0	GoodResponse	0	0.217	n/a	8	51	ButtonPress	Neutral	True
489.991	0.44	Control	0.6923	n/a	Yes	2.724	n/a	n/a	GoodResponse	0	n/a	n/a	8	51	Blank	Neutral	True
490.424	1.45	Control	0.6923	n/a	Yes	2.724	n/a	5.0	GoodResponse	0	0.035	489.459	8	51	Feedback	Neutral	True
491.874	2.724	Control	0.6923	n/a	Yes	2.724	n/a	n/a	GoodResponse	0	0.0	n/a	8	51	ISIslide	Neutral	True
494.623	0.25	Control	0.6981	0.0	Yes	2.627	0.023	n/a	GoodResponse	0	n/a	n/a	8	52	Cue	Neutral	True
494.873	4.05	Control	0.6981	0.0	Yes	2.627	0.0	n/a	GoodResponse	0	n/a	n/a	8	52	Fixation	Neutral	True
498.921	0.25	Control	0.6981	0.002	Yes	2.627	-0.002	3.0	GoodResponse	0	0.212	498.133	8	52	Target	Neutral	True
499.133	0.3	Control	0.6981	0.002	Yes	2.627	-0.002	3.0	GoodResponse	0	0.212	n/a	8	52	ButtonPress	Neutral	True
499.171	0.45	Control	0.6981	n/a	Yes	2.627	n/a	n/a	GoodResponse	0	n/a	n/a	8	52	Blank	Neutral	True
499.621	1.45	Control	0.6981	n/a	Yes	2.627	n/a	5.0	GoodResponse	0	0.008	498.629	8	52	Feedback	Neutral	True
501.07	2.627	Control	0.6981	n/a	Yes	2.627	n/a	n/a	GoodResponse	0	0.0	n/a	8	52	ISIslide	Neutral	True
503.72	0.25	Win2	0.6851999999999999	0.0	No	2.93	0.02	n/a	LatePress	0	n/a	n/a	8	53	Cue	MissedWin	True
503.969	4.05	Win2	0.6851999999999999	0.001	No	2.93	-0.001	n/a	LatePress	0	n/a	n/a	8	53	Fixation	MissedWin	True
508.018	0.24	Win2	0.6851999999999999	0.002	No	2.93	-0.002	3.0	LatePress	0	0.246	507.264	8	53	Target	MissedWin	True
508.264	0.3	Win2	0.6851999999999999	0.002	No	2.93	-0.002	3.0	LatePress	0	0.246	n/a	8	53	ButtonPress	MissedWin	True
508.268	0.46	Win2	0.6851999999999999	n/a	No	2.93	n/a	n/a	LatePress	0	n/a	n/a	8	53	Blank	MissedWin	True
508.718	1.45	Win2	0.6851999999999999	n/a	No	2.93	n/a	5.0	LatePress	0	0.033	507.751	8	53	Feedback	MissedWin	True
510.167	2.93	Win2	0.6851999999999999	n/a	No	2.93	n/a	n/a	LatePress	0	0.0	n/a	8	53	ISIslide	MissedWin	True
513.116	0.25	Win2	0.6727	0.0	No	2.734	0.016	n/a	NoResponse	0	n/a	n/a	8	54	Cue	MissedWin	True
513.366	3.95	Win2	0.6727	0.0	No	2.734	0.0	n/a	NoResponse	0	n/a	n/a	8	54	Fixation	MissedWin	True
517.315	0.23	Win2	0.6727	0.001	No	2.734	-0.001	3.0	NoResponse	0	0.267	516.582	8	54	Target	MissedWin	True
517.548	0.47	Win2	0.6727	n/a	No	2.734	n/a	n/a	NoResponse	0	n/a	n/a	8	54	Blank	MissedWin	True
517.582	0.3	Win2	0.6727	0.001	No	2.734	-0.001	3.0	NoResponse	0	0.267	n/a	8	54	ButtonPress	MissedWin	True
518.014	1.45	Win2	0.6727	n/a	No	2.734	n/a	5.0	NoResponse	0	0.007	517.021	8	54	Feedback	MissedWin	True
519.464	2.734	Win2	0.6727	n/a	No	2.734	n/a	n/a	NoResponse	0	0.0	n/a	8	54	ISIslide	MissedWin	True
522.213	0.25	Control	0.6786	0.0	Yes	3.037	0.013	n/a	GoodResponse	0	n/a	n/a	8	55	Cue	Neutral	True
522.463	3.95	Control	0.6786	0.0	Yes	3.037	0.0	n/a	GoodResponse	0	n/a	n/a	8	55	Fixation	Neutral	True
526.411	0.22	Control	0.6786	0.002	Yes	3.037	-0.002	3.0	GoodResponse	0	0.207	525.618	8	55	Target	Neutral	True
526.618	0.3	Control	0.6786	0.002	Yes	3.037	-0.002	3.0	GoodResponse	0	0.207	n/a	8	55	ButtonPress	Neutral	True
526.645	0.48	Control	0.6786	n/a	Yes	3.037	n/a	n/a	GoodResponse	0	n/a	n/a	8	55	Blank	Neutral	True
527.111	1.45	Control	0.6786	n/a	Yes	3.037	n/a	5.0	GoodResponse	0	0.031	526.142	8	55	Feedback	Neutral	True
528.561	3.037	Control	0.6786	n/a	Yes	3.037	n/a	n/a	GoodResponse	0	0.0	n/a	8	55	ISIslide	Neutral	True
531.626	0.25	Control	0.6842	0.0	Yes	2.824	0.026	n/a	GoodResponse	0	n/a	n/a	8	56	Cue	Neutral	True
531.876	3.95	Control	0.6842	0.0	Yes	2.824	0.0	n/a	GoodResponse	0	n/a	n/a	8	56	Fixation	Neutral	True
535.825	0.21	Control	0.6842	0.001	Yes	2.824	-0.001	3.0	GoodResponse	0	0.175	535.0	8	56	Target	Neutral	True
536	0.3	Control	0.6842	0.001	Yes	2.824	-0.001	3.0	GoodResponse	0	0.175	n/a	8	56	ButtonPress	Neutral	True
536.041	0.49	Control	0.6842	n/a	Yes	2.824	n/a	n/a	GoodResponse	0	n/a	n/a	8	56	Blank	Neutral	True
536.524	1.45	Control	0.6842	n/a	Yes	2.824	n/a	5.0	GoodResponse	0	0.031	535.555	8	56	Feedback	Neutral	True
537.974	2.824	Control	0.6842	n/a	Yes	2.824	n/a	n/a	GoodResponse	0	0.0	n/a	8	56	ISIslide	Neutral	True
540.823	0.25	Control	0.6724	0.0	No	3.477	0.023	n/a	NoResponse	0	n/a	n/a	8	57	Cue	Neutral	True
541.073	4.0	Control	0.6724	0.0	No	3.477	0.0	n/a	NoResponse	0	n/a	n/a	8	57	Fixation	Neutral	True
545.071	0.2	Control	0.6724	0.002	No	3.477	-0.002	3.0	NoResponse	0	0.21	544.281	8	57	Target	Neutral	True
545.271	0.5	Control	0.6724	n/a	No	3.477	n/a	n/a	NoResponse	0	n/a	n/a	8	57	Blank	Neutral	True
545.281	0.3	Control	0.6724	0.002	No	3.477	-0.002	3.0	NoResponse	0	0.21	n/a	8	57	ButtonPress	Neutral	True
545.771	1.45	Control	0.6724	n/a	No	3.477	n/a	5.0	NoResponse	0	0.007	544.778	8	57	Feedback	Neutral	True
547.221	3.477	Control	0.6724	n/a	No	3.477	n/a	n/a	NoResponse	0	0.0	n/a	8	57	ISIslide	Neutral	True
550.719	0.25	Win2	0.6609999999999999	0.001	No	2.731	0.019	n/a	NoResponse	0	n/a	n/a	8	58	Cue	MissedWin	True
550.969	4.05	Win2	0.6609999999999999	0.0	No	2.731	0.0	n/a	NoResponse	0	n/a	n/a	8	58	Fixation	MissedWin	True
555.018	0.19	Win2	0.6609999999999999	0.001	No	2.731	-0.001	3.0	NoResponse	0	0.214	554.232	8	58	Target	MissedWin	True
555.218	0.51	Win2	0.6609999999999999	n/a	No	2.731	n/a	n/a	NoResponse	0	n/a	n/a	8	58	Blank	MissedWin	True
555.232	0.3	Win2	0.6609999999999999	0.001	No	2.731	-0.001	3.0	NoResponse	0	0.214	n/a	8	58	ButtonPress	MissedWin	True
555.718	1.45	Win2	0.6609999999999999	n/a	No	2.731	n/a	5.0	NoResponse	0	0.008	554.726	8	58	Feedback	MissedWin	True
557.167	2.731	Win2	0.6609999999999999	n/a	No	2.731	n/a	n/a	NoResponse	0	0.0	n/a	8	58	ISIslide	MissedWin	True
559.916	0.25	Lose2	0.65	0.0	No	2.684	0.016	n/a	NoResponse	-1	n/a	n/a	7	59	Cue	Loss	True
560.166	4.0	Lose2	0.65	0.0	No	2.684	0.0	n/a	NoResponse	-1	n/a	n/a	7	59	Fixation	Loss	True
564.165	0.19	Lose2	0.65	0.001	No	2.684	-0.001	3.0	NoResponse	-1	0.207	563.372	7	59	Target	Loss	True
564.365	0.51	Lose2	0.65	n/a	No	2.684	n/a	n/a	NoResponse	-1	n/a	n/a	7	59	Blank	Loss	True
564.372	0.3	Lose2	0.65	0.001	No	2.684	-0.001	3.0	NoResponse	-1	0.207	n/a	7	59	ButtonPress	Loss	True
564.864	1.45	Lose2	0.65	n/a	No	2.684	n/a	5.0	NoResponse	-1	0.033	563.897	7	59	Feedback	Loss	True
566.314	2.684	Lose2	0.65	n/a	No	2.684	n/a	n/a	NoResponse	-1	0.0	n/a	7	59	ISIslide	Loss	True
569.013	0.25	Control	0.6393	0.0	No	2.687	0.013	n/a	NoResponse	0	n/a	n/a	7	60	Cue	Neutral	True
569.263	4.0	Control	0.6393	0.0	No	2.687	0.0	n/a	NoResponse	0	n/a	n/a	7	60	Fixation	Neutral	True
573.261	0.2	Control	0.6393	0.002	No	2.687	-0.002	3.0	NoResponse	0	0.21	572.471	7	60	Target	Neutral	True
573.461	0.5	Control	0.6393	n/a	No	2.687	n/a	n/a	NoResponse	0	n/a	n/a	7	60	Blank	Neutral	True
573.471	0.3	Control	0.6393	0.002	No	2.687	-0.002	3.0	NoResponse	0	0.21	n/a	7	60	ButtonPress	Neutral	True
573.961	1.45	Control	0.6393	n/a	No	2.687	n/a	5.0	NoResponse	0	0.009	572.97	7	60	Feedback	Neutral	True
575.411	2.687	Control	0.6393	n/a	No	2.687	n/a	n/a	NoResponse	0	0.0	n/a	7	60	ISIslide	Neutral	True
578.126	0.25	Lose2	0.6452	0.0	Yes	2.974	0.026	n/a	GoodResponse	0	n/a	n/a	7	61	Cue	AvoidedLoss	False
578.376	4.0	Lose2	0.6452	0.0	Yes	2.974	0.0	3.0	GoodResponse	0	3.335	580.711	7	61	Fixation	AvoidedLoss	False
581.711	0.3	Lose2	0.6452	0.0	Yes	2.974	0.0	3.0	GoodResponse	0	3.335	n/a	7	61	ButtonPress	AvoidedLoss	False
582.375	0.21	Lose2	0.6452	0.001	Yes	2.974	-0.001	3.0	GoodResponse	0	0.177	581.552	7	61	Target	AvoidedLoss	False
582.552	0.3	Lose2	0.6452	0.001	Yes	2.974	-0.001	3.0	GoodResponse	0	0.177	n/a	7	61	ButtonPress	AvoidedLoss	False
582.591	0.49	Lose2	0.6452	n/a	Yes	2.974	n/a	n/a	GoodResponse	0	n/a	n/a	7	61	Blank	AvoidedLoss	False
583.075	1.45	Lose2	0.6452	n/a	Yes	2.974	n/a	5.0	GoodResponse	0	0.017	582.092	7	61	Feedback	AvoidedLoss	False
584.524	2.974	Lose2	0.6452	n/a	Yes	2.974	n/a	n/a	GoodResponse	0	0.0	n/a	7	61	ISIslide	AvoidedLoss	False
587.523	0.25	Lose2	0.6349	0.0	No	2.877	0.023	n/a	NoResponse	-1	n/a	n/a	6	62	Cue	Loss	False
587.773	3.9	Lose2	0.6349	0.0	No	2.877	0.0	3.0	NoResponse	-1	3.734	590.507	6	62	Fixation	Loss	False
591.507	0.3	Lose2	0.6349	0.0	No	2.877	0.0	3.0	NoResponse	-1	3.734	n/a	6	62	ButtonPress	Loss	False
591.672	0.22	Lose2	0.6349	0.001	No	2.877	-0.001	3.0	NoResponse	-1	0.25	590.922	6	62	Target	Loss	False
591.905	0.48	Lose2	0.6349	n/a	No	2.877	n/a	n/a	NoResponse	-1	n/a	n/a	6	62	Blank	Loss	False
591.922	0.3	Lose2	0.6349	0.001	No	2.877	-0.001	3.0	NoResponse	-1	0.25	n/a	6	62	ButtonPress	Loss	False
592.371	1.45	Lose2	0.6349	n/a	No	2.877	n/a	5.0	NoResponse	-1	0.038	591.409	6	62	Feedback	Loss	False
593.821	2.877	Lose2	0.6349	n/a	No	2.877	n/a	n/a	NoResponse	-1	0.0	n/a	6	62	ISIslide	Loss	False
596.72	0.25	Lose2	0.6406000000000001	0.0	Yes	2.63	0.02	n/a	GoodResponse	0	n/a	n/a	6	63	Cue	AvoidedLoss	True
596.97	4.05	Lose2	0.6406000000000001	0.0	Yes	2.63	0.0	n/a	GoodResponse	0	n/a	n/a	6	63	Fixation	AvoidedLoss	True
601.018	0.23	Lose2	0.6406000000000001	0.002	Yes	2.63	-0.002	3.0	GoodResponse	0	0.176	600.194	6	63	Target	AvoidedLoss	True
601.194	0.3	Lose2	0.6406000000000001	0.002	Yes	2.63	-0.002	3.0	GoodResponse	0	0.176	n/a	6	63	ButtonPress	AvoidedLoss	True
601.251	0.47	Lose2	0.6406000000000001	n/a	Yes	2.63	n/a	n/a	GoodResponse	0	n/a	n/a	6	63	Blank	AvoidedLoss	True
601.718	1.45	Lose2	0.6406000000000001	n/a	Yes	2.63	n/a	5.0	GoodResponse	0	0.008	600.726	6	63	Feedback	AvoidedLoss	True
603.167	2.63	Lose2	0.6406000000000001	n/a	Yes	2.63	n/a	n/a	GoodResponse	0	0.0	n/a	6	63	ISIslide	AvoidedLoss	True
605.817	0.25	Win2	0.6308	0.0	No	3.133	0.017	n/a	NoResponse	0	n/a	n/a	6	64	Cue	MissedWin	False
606.066	4.15	Win2	0.6308	0.001	No	3.133	-0.001	3.0	NoResponse	0	3.353	608.419	6	64	Fixation	MissedWin	False
609.419	0.3	Win2	0.6308	0.001	No	3.133	-0.001	3.0	NoResponse	0	3.353	n/a	6	64	ButtonPress	MissedWin	False
610.215	0.24	Win2	0.6308	0.002	No	3.133	-0.002	3.0	NoResponse	0	0.262	609.477	6	64	Target	MissedWin	False
610.465	0.46	Win2	0.6308	n/a	No	3.133	n/a	n/a	NoResponse	0	n/a	n/a	6	64	Blank	MissedWin	False
610.477	0.3	Win2	0.6308	0.002	No	3.133	-0.002	3.0	NoResponse	0	0.262	n/a	6	64	ButtonPress	MissedWin	False
610.915	1.45	Win2	0.6308	n/a	No	3.133	n/a	5.0	NoResponse	0	0.03	609.945	6	64	Feedback	MissedWin	False
612.364	3.133	Win2	0.6308	n/a	No	3.133	n/a	n/a	NoResponse	0	0.0	n/a	6	64	ISIslide	MissedWin	False
615.513	0.25	Control	0.6364	0.0	Yes	2.787	0.013	n/a	GoodResponse	0	n/a	n/a	6	65	Cue	Neutral	True
615.763	4.0	Control	0.6364	0.0	Yes	2.787	0.0	n/a	GoodResponse	0	n/a	n/a	6	65	Fixation	Neutral	True
619.762	0.25	Control	0.6364	0.001	Yes	2.787	-0.001	3.0	GoodResponse	0	0.212	618.974	6	65	Target	Neutral	True
619.974	0.3	Control	0.6364	0.001	Yes	2.787	-0.001	3.0	GoodResponse	0	0.212	n/a	6	65	ButtonPress	Neutral	True
620.011	0.45	Control	0.6364	n/a	Yes	2.787	n/a	n/a	GoodResponse	0	n/a	n/a	6	65	Blank	Neutral	True
620.461	1.45	Control	0.6364	n/a	Yes	2.787	n/a	5.0	GoodResponse	0	0.045	619.506	6	65	Feedback	Neutral	True
621.911	2.787	Control	0.6364	n/a	Yes	2.787	n/a	n/a	GoodResponse	0	0.0	n/a	6	65	ISIslide	Neutral	True
624.726	0.25	Win2	0.6418	0.001	Yes	2.774	0.026	n/a	GoodResponse	1	n/a	n/a	7	66	Cue	Win	True
624.976	3.9	Win2	0.6418	0.0	Yes	2.774	0.0	n/a	GoodResponse	1	n/a	n/a	7	66	Fixation	Win	True
628.875	0.26	Win2	0.6418	0.001	Yes	2.774	-0.001	3.0	GoodResponse	1	0.187	628.062	7	66	Target	Win	True
629.062	0.3	Win2	0.6418	0.001	Yes	2.774	-0.001	3.0	GoodResponse	1	0.187	n/a	7	66	ButtonPress	Win	True
629.142	0.44	Win2	0.6418	n/a	Yes	2.774	n/a	n/a	GoodResponse	1	n/a	n/a	7	66	Blank	Win	True
629.575	1.45	Win2	0.6418	n/a	Yes	2.774	n/a	5.0	GoodResponse	1	0.006	628.581	7	66	Feedback	Win	True
631.024	2.774	Win2	0.6418	n/a	Yes	2.774	n/a	n/a	GoodResponse	1	0.0	n/a	7	66	ISIslide	Win	True
633.823	0.25	Control	0.6470999999999999	0.0	Yes	2.727	0.023	n/a	GoodResponse	0	n/a	n/a	7	67	Cue	Neutral	True
634.073	3.95	Control	0.6470999999999999	0.0	Yes	2.727	0.0	n/a	GoodResponse	0	n/a	n/a	7	67	Fixation	Neutral	True
638.022	0.27	Control	0.6470999999999999	0.001	Yes	2.727	-0.001	3.0	GoodResponse	0	0.235	637.257	7	67	Target	Neutral	True
638.257	0.3	Control	0.6470999999999999	0.001	Yes	2.727	-0.001	3.0	GoodResponse	0	0.235	n/a	7	67	ButtonPress	Neutral	True
638.305	0.43	Control	0.6470999999999999	n/a	Yes	2.727	n/a	n/a	GoodResponse	0	n/a	n/a	7	67	Blank	Neutral	True
638.721	1.45	Control	0.6470999999999999	n/a	Yes	2.727	n/a	5.0	GoodResponse	0	0.029	637.75	7	67	Feedback	Neutral	True
640.171	2.727	Control	0.6470999999999999	n/a	Yes	2.727	n/a	n/a	GoodResponse	0	0.0	n/a	7	67	ISIslide	Neutral	True
642.92	0.25	Win2	0.6522	0.0	Yes	3.08	0.02	n/a	GoodResponse	1	n/a	n/a	8	68	Cue	Win	True
643.17	4.0	Win2	0.6522	0.0	Yes	3.08	0.0	n/a	GoodResponse	1	n/a	n/a	8	68	Fixation	Win	True
647.168	0.28	Win2	0.6522	0.002	Yes	3.08	-0.002	3.0	GoodResponse	1	0.255	646.423	8	68	Target	Win	True
647.423	0.3	Win2	0.6522	0.002	Yes	3.08	-0.002	3.0	GoodResponse	1	0.255	n/a	8	68	ButtonPress	Win	True
647.452	0.42	Win2	0.6522	n/a	Yes	3.08	n/a	n/a	GoodResponse	1	n/a	n/a	8	68	Blank	Win	True
647.868	1.45	Win2	0.6522	n/a	Yes	3.08	n/a	5.0	GoodResponse	1	0.007	646.875	8	68	Feedback	Win	True
649.318	3.08	Win2	0.6522	n/a	Yes	3.08	n/a	n/a	GoodResponse	1	0.0	n/a	8	68	ISIslide	Win	True
652.417	0.25	Win2	0.6570999999999999	0.0	Yes	3.233	0.017	n/a	GoodResponse	1	n/a	n/a	9	69	Cue	Win	True
652.667	3.95	Win2	0.6570999999999999	0.0	Yes	3.233	0.0	n/a	GoodResponse	1	n/a	n/a	9	69	Fixation	Win	True
656.615	0.29	Win2	0.6570999999999999	0.002	Yes	3.233	-0.002	3.0	GoodResponse	1	0.2	655.815	9	69	Target	Win	True
656.815	0.3	Win2	0.6570999999999999	0.002	Yes	3.233	-0.002	3.0	GoodResponse	1	0.2	n/a	9	69	ButtonPress	Win	True
656.915	0.41	Win2	0.6570999999999999	n/a	Yes	3.233	n/a	n/a	GoodResponse	1	n/a	n/a	9	69	Blank	Win	True
657.315	1.45	Win2	0.6570999999999999	n/a	Yes	3.233	n/a	5.0	GoodResponse	1	0.019	656.334	9	69	Feedback	Win	True
658.764	3.233	Win2	0.6570999999999999	n/a	Yes	3.233	n/a	n/a	GoodResponse	1	0.0	n/a	9	69	ISIslide	Win	True
662.013	0.25	Lose2	0.662	0.0	Yes	3.037	0.013	n/a	GoodResponse	0	n/a	n/a	9	70	Cue	AvoidedLoss	True
662.263	4.05	Lose2	0.662	0.0	Yes	3.037	0.0	n/a	GoodResponse	0	n/a	n/a	9	70	Fixation	AvoidedLoss	True
666.312	0.29	Lose2	0.662	0.001	Yes	3.037	-0.001	3.0	GoodResponse	0	0.217	665.529	9	70	Target	AvoidedLoss	True
666.529	0.3	Lose2	0.662	0.001	Yes	3.037	-0.001	3.0	GoodResponse	0	0.217	n/a	9	70	ButtonPress	AvoidedLoss	True
666.612	0.41	Lose2	0.662	n/a	Yes	3.037	n/a	n/a	GoodResponse	0	n/a	n/a	9	70	Blank	AvoidedLoss	True
667.011	1.45	Lose2	0.662	n/a	Yes	3.037	n/a	5.0	GoodResponse	0	0.031	666.042	9	70	Feedback	AvoidedLoss	True
668.461	3.037	Lose2	0.662	n/a	Yes	3.037	n/a	n/a	GoodResponse	0	0.0	n/a	9	70	ISIslide	AvoidedLoss	True
671.526	0.25	Win2	0.6528	0.001	No	2.724	0.026	n/a	PrematurePress	0	n/a	n/a	9	71	Cue	MissedWin	True
671.776	4.05	Win2	0.6528	0.0	No	2.724	0.0	n/a	PrematurePress	0	n/a	n/a	9	71	Fixation	MissedWin	True
675.825	0.29	Win2	0.6528	0.001	No	2.724	-0.001	3.0	PrematurePress	0	0.009	674.834	9	71	Target	MissedWin	True
675.834	0.3	Win2	0.6528	0.001	No	2.724	-0.001	3.0	PrematurePress	0	0.009	n/a	9	71	ButtonPress	MissedWin	True
676.125	0.41	Win2	0.6528	n/a	No	2.724	n/a	n/a	PrematurePress	0	n/a	n/a	9	71	Blank	MissedWin	True
676.525	1.45	Win2	0.6528	n/a	No	2.724	n/a	5.0	PrematurePress	0	0.029	675.554	9	71	Feedback	MissedWin	True
677.974	2.724	Win2	0.6528	n/a	No	2.724	n/a	n/a	PrematurePress	0	0.0	n/a	9	71	ISIslide	MissedWin	True
680.723	0.25	Win2	0.6575	0.0	Yes	2.777	0.023	n/a	GoodResponse	1	n/a	n/a	10	72	Cue	Win	True
680.973	4.1	Win2	0.6575	0.0	Yes	2.777	0.0	n/a	GoodResponse	1	n/a	n/a	10	72	Fixation	Win	True
685.072	0.3	Win2	0.6575	0.001	Yes	2.777	-0.001	3.0	GoodResponse	1	0.203	684.275	10	72	Target	Win	True
685.275	0.3	Win2	0.6575	0.001	Yes	2.777	-0.001	3.0	GoodResponse	1	0.203	n/a	10	72	ButtonPress	Win	True
685.372	0.4	Win2	0.6575	n/a	Yes	2.777	n/a	n/a	GoodResponse	1	n/a	n/a	10	72	Blank	Win	True
685.771	1.45	Win2	0.6575	n/a	Yes	2.777	n/a	5.0	GoodResponse	1	0.006	684.777	10	72	Feedback	Win	True
687.221	2.777	Win2	0.6575	n/a	Yes	2.777	n/a	n/a	GoodResponse	1	0.0	n/a	10	72	ISIslide	Win	True
690.02	0.25	Win2	0.6622	0.0	Yes	2.68	0.02	n/a	GoodResponse	1	n/a	n/a	11	73	Cue	Win	True
690.27	4.0	Win2	0.6622	0.0	Yes	2.68	0.0	n/a	GoodResponse	1	n/a	n/a	11	73	Fixation	Win	True
694.268	0.3	Win2	0.6622	0.002	Yes	2.68	-0.002	3.0	GoodResponse	1	0.22	693.488	11	73	Target	Win	True
694.488	0.3	Win2	0.6622	0.002	Yes	2.68	-0.002	3.0	GoodResponse	1	0.22	n/a	11	73	ButtonPress	Win	True
694.568	0.4	Win2	0.6622	n/a	Yes	2.68	n/a	n/a	GoodResponse	1	n/a	n/a	11	73	Blank	Win	True
694.968	1.45	Win2	0.6622	n/a	Yes	2.68	n/a	5.0	GoodResponse	1	0.024	693.992	11	73	Feedback	Win	True
696.418	2.68	Win2	0.6622	n/a	Yes	2.68	n/a	n/a	GoodResponse	1	0.0	n/a	11	73	ISIslide	Win	True
699.117	0.25	Lose2	0.6667000000000001	0.0	Yes	2.633	0.017	n/a	GoodResponse	0	n/a	n/a	11	74	Cue	AvoidedLoss	True
699.367	4.05	Lose2	0.6667000000000001	0.0	Yes	2.633	0.0	n/a	GoodResponse	0	n/a	n/a	11	74	Fixation	AvoidedLoss	True
703.415	0.3	Lose2	0.6667000000000001	0.002	Yes	2.633	-0.002	3.0	GoodResponse	0	0.206	702.621	11	74	Target	AvoidedLoss	True
703.621	0.3	Lose2	0.6667000000000001	0.002	Yes	2.633	-0.002	3.0	GoodResponse	0	0.206	n/a	11	74	ButtonPress	AvoidedLoss	True
703.715	0.4	Lose2	0.6667000000000001	n/a	Yes	2.633	n/a	n/a	GoodResponse	0	n/a	n/a	11	74	Blank	AvoidedLoss	True
704.115	1.45	Lose2	0.6667000000000001	n/a	Yes	2.633	n/a	5.0	GoodResponse	0	0.048	703.163	11	74	Feedback	AvoidedLoss	True
705.564	2.633	Lose2	0.6667000000000001	n/a	Yes	2.633	n/a	n/a	GoodResponse	0	0.0	n/a	11	74	ISIslide	AvoidedLoss	True
708.213	0.25	Lose2	0.6711	0.001	Yes	2.937	0.013	n/a	GoodResponse	0	n/a	n/a	11	75	Cue	AvoidedLoss	True
708.463	3.95	Lose2	0.6711	0.0	Yes	2.937	0.0	n/a	GoodResponse	0	n/a	n/a	11	75	Fixation	AvoidedLoss	True
712.412	0.29	Lose2	0.6711	0.001	Yes	2.937	-0.001	3.0	GoodResponse	0	0.23	711.642	11	75	Target	AvoidedLoss	True
712.642	0.3	Lose2	0.6711	0.001	Yes	2.937	-0.001	3.0	GoodResponse	0	0.23	n/a	11	75	ButtonPress	AvoidedLoss	True
712.712	0.41	Lose2	0.6711	n/a	Yes	2.937	n/a	n/a	GoodResponse	0	n/a	n/a	11	75	Blank	AvoidedLoss	True
713.112	1.45	Lose2	0.6711	n/a	Yes	2.937	n/a	5.0	GoodResponse	0	0.027	712.139	11	75	Feedback	AvoidedLoss	True
714.561	2.937	Lose2	0.6711	n/a	Yes	2.937	n/a	n/a	GoodResponse	0	0.0	n/a	11	75	ISIslide	AvoidedLoss	True
717.527	0.25	Control	0.6623	0.0	No	3.223	0.027	n/a	NoResponse	0	n/a	n/a	11	76	Cue	Neutral	True
717.777	4.05	Control	0.6623	0.0	No	3.223	0.0	n/a	NoResponse	0	n/a	n/a	11	76	Fixation	Neutral	True
721.825	0.28	Control	0.6623	0.002	No	3.223	-0.002	3.0	NoResponse	0	0.292	721.117	11	76	Target	Neutral	True
722.108	0.42	Control	0.6623	n/a	No	3.223	n/a	n/a	NoResponse	0	n/a	n/a	11	76	Blank	Neutral	True
722.117	0.3	Control	0.6623	0.002	No	3.223	-0.002	3.0	NoResponse	0	0.292	n/a	11	76	ButtonPress	Neutral	True
722.525	1.45	Control	0.6623	n/a	No	3.223	n/a	5.0	NoResponse	0	0.028	721.553	11	76	Feedback	Neutral	True
723.974	3.223	Control	0.6623	n/a	No	3.223	n/a	n/a	NoResponse	0	0.0	n/a	11	76	ISIslide	Neutral	True
727.223	0.25	Lose2	0.6667000000000001	0.0	Yes	2.577	0.023	n/a	GoodResponse	0	n/a	n/a	11	77	Cue	AvoidedLoss	True
727.473	3.95	Lose2	0.6667000000000001	0.0	Yes	2.577	0.0	n/a	GoodResponse	0	n/a	n/a	11	77	Fixation	AvoidedLoss	True
731.422	0.28	Lose2	0.6667000000000001	0.001	Yes	2.577	-0.001	3.0	GoodResponse	0	0.183	730.605	11	77	Target	AvoidedLoss	True
731.605	0.3	Lose2	0.6667000000000001	0.001	Yes	2.577	-0.001	3.0	GoodResponse	0	0.183	n/a	11	77	ButtonPress	AvoidedLoss	True
731.705	0.42	Lose2	0.6667000000000001	n/a	Yes	2.577	n/a	n/a	GoodResponse	0	n/a	n/a	11	77	Blank	AvoidedLoss	True
732.122	1.45	Lose2	0.6667000000000001	n/a	Yes	2.577	n/a	5.0	GoodResponse	0	0.041	731.163	11	77	Feedback	AvoidedLoss	True
733.571	2.577	Lose2	0.6667000000000001	n/a	Yes	2.577	n/a	n/a	GoodResponse	0	0.0	n/a	11	77	ISIslide	AvoidedLoss	True
