onset	duration	cue_type	current_mean_accuracy	duration_error	is_hit	isi_adjusted	onset_delay	response	response_type	reward	rt	rt_time	total_reward	trial_number	trial_phase	trial_type	one_press
11.108	0.25	Control	1.0	0.001	Yes	2.942	0.008	n/a	GoodResponse	0	n/a	n/a	0	0	Cue	Neutral	True
11.358	3.85	Control	1.0	0.0	Yes	2.942	0.0	n/a	GoodResponse	0	n/a	n/a	0	0	Fixation	Neutral	True
15.207	0.4	Control	1.0	0.001	Yes	2.942	-0.001	1.0	GoodResponse	0	0.232	14.439	0	0	Target	Neutral	True
15.439	0.3	Control	1.0	0.001	Yes	2.942	-0.001	1.0	GoodResponse	0	0.232	n/a	0	0	ButtonPress	Neutral	True
15.607	0.3	Control	1.0	n/a	Yes	2.942	n/a	n/a	GoodResponse	0	n/a	n/a	0	0	Blank	Neutral	True
15.907	1.45	Control	1.0	n/a	Yes	2.942	n/a	5.0	GoodResponse	0	0.022	14.929	0	0	Feedback	Neutral	True
17.356	2.942	Control	1.0	n/a	Yes	2.942	n/a	n/a	GoodResponse	0	0.0	n/a	0	0	ISIslide	Neutral	True
20.322	0.25	Lose2	1.0	0.0	Yes	2.778	0.022	n/a	GoodResponse	0	n/a	n/a	0	1	Cue	AvoidedLoss	True
20.572	4.0	Lose2	1.0	0.0	Yes	2.778	0.0	n/a	GoodResponse	0	n/a	n/a	0	1	Fixation	AvoidedLoss	True
24.57	0.39	Lose2	1.0	0.002	Yes	2.778	-0.002	1.0	GoodResponse	0	0.236	23.806	0	1	Target	AvoidedLoss	True
24.806	0.3	Lose2	1.0	0.002	Yes	2.778	-0.002	1.0	GoodResponse	0	0.236	n/a	0	1	ButtonPress	AvoidedLoss	True
24.97	0.31	Lose2	1.0	n/a	Yes	2.778	n/a	n/a	GoodResponse	0	n/a	n/a	0	1	Blank	AvoidedLoss	True
25.27	1.45	Lose2	1.0	n/a	Yes	2.778	n/a	5.0	GoodResponse	0	0.024	24.294	0	1	Feedback	AvoidedLoss	True
26.72	2.778	Lose2	1.0	n/a	Yes	2.778	n/a	n/a	GoodResponse	0	0.0	n/a	0	1	ISIslide	AvoidedLoss	True
29.519	0.25	Control	1.0	0.0	Yes	2.581	0.019	n/a	GoodResponse	0	n/a	n/a	0	2	Cue	Neutral	True
29.769	4.1	Control	1.0	0.0	Yes	2.581	0.0	n/a	GoodResponse	0	n/a	n/a	0	2	Fixation	Neutral	True
33.867	0.38	Control	1.0	0.002	Yes	2.581	-0.002	1.0	GoodResponse	0	0.263	33.13	0	2	Target	Neutral	True
34.13	0.3	Control	1.0	0.002	Yes	2.581	-0.002	1.0	GoodResponse	0	0.263	n/a	0	2	ButtonPress	Neutral	True
34.25	0.32	Control	1.0	n/a	Yes	2.581	n/a	n/a	GoodResponse	0	n/a	n/a	0	2	Blank	Neutral	True
34.567	1.45	Control	1.0	n/a	Yes	2.581	n/a	5.0	GoodResponse	0	0.044	33.611	0	2	Feedback	Neutral	True
36.016	2.581	Control	1.0	n/a	Yes	2.581	n/a	n/a	GoodResponse	0	0.0	n/a	0	2	ISIslide	Neutral	True
38.632	0.25	Win2	1.0	0.0	Yes	2.818	0.032	n/a	GoodResponse	1	n/a	n/a	1	3	Cue	Win	True
38.882	3.95	Win2	1.0	0.0	Yes	2.818	0.0	n/a	GoodResponse	1	n/a	n/a	1	3	Fixation	Win	True
42.831	0.37	Win2	1.0	0.001	Yes	2.818	-0.001	1.0	GoodResponse	1	0.244	42.075	1	3	Target	Win	True
43.075	0.3	Win2	1.0	0.001	Yes	2.818	-0.001	1.0	GoodResponse	1	0.244	n/a	1	3	ButtonPress	Win	True
43.214	0.33	Win2	1.0	n/a	Yes	2.818	n/a	n/a	GoodResponse	1	n/a	n/a	1	3	Blank	Win	True
43.53	1.45	Win2	1.0	n/a	Yes	2.818	n/a	5.0	GoodResponse	1	0.008	42.538	1	3	Feedback	Win	True
44.98	2.818	Win2	1.0	n/a	Yes	2.818	n/a	n/a	GoodResponse	1	0.0	n/a	1	3	ISIslide	Win	True
47.829	0.25	Win2	1.0	0.0	Yes	3.271	0.029	n/a	GoodResponse	1	n/a	n/a	2	4	Cue	Win	True
48.079	4.0	Win2	1.0	0.0	Yes	3.271	0.0	n/a	GoodResponse	1	n/a	n/a	2	4	Fixation	Win	True
52.077	0.36	Win2	1.0	0.002	Yes	3.271	-0.002	1.0	GoodResponse	1	0.278	51.355	2	4	Target	Win	True
52.355	0.3	Win2	1.0	0.002	Yes	3.271	-0.002	1.0	GoodResponse	1	0.278	n/a	2	4	ButtonPress	Win	True
52.444	0.34	Win2	1.0	n/a	Yes	3.271	n/a	n/a	GoodResponse	1	n/a	n/a	2	4	Blank	Win	True
52.777	1.45	Win2	1.0	n/a	Yes	3.271	n/a	5.0	GoodResponse	1	0.03	51.807	2	4	Feedback	Win	True
54.227	3.271	Win2	1.0	n/a	Yes	3.271	n/a	n/a	GoodResponse	1	0.0	n/a	2	4	ISIslide	Win	True
57.526	0.25	Win2	1.0	0.0	Yes	2.774	0.026	n/a	GoodResponse	1	n/a	n/a	3	5	Cue	Win	True
57.775	4.0	Win2	1.0	0.001	Yes	2.774	-0.001	n/a	GoodResponse	1	n/a	n/a	3	5	Fixation	Win	True
61.774	0.35	Win2	1.0	0.002	Yes	2.774	-0.002	1.0	GoodResponse	1	0.242	61.016	3	5	Target	Win	True
62.016	0.3	Win2	1.0	0.002	Yes	2.774	-0.002	1.0	GoodResponse	1	0.242	n/a	3	5	ButtonPress	Win	True
62.124	0.35	Win2	1.0	n/a	Yes	2.774	n/a	n/a	GoodResponse	1	n/a	n/a	3	5	Blank	Win	True
62.474	1.45	Win2	1.0	n/a	Yes	2.774	n/a	5.0	GoodResponse	1	0.04	61.514	3	5	Feedback	Win	True
63.923	2.774	Win2	1.0	n/a	Yes	2.774	n/a	n/a	GoodResponse	1	0.0	n/a	3	5	ISIslide	Win	True
66.722	0.25	Lose2	1.0	0.0	Yes	2.728	0.022	n/a	GoodResponse	0	n/a	n/a	3	6	Cue	AvoidedLoss	True
66.972	3.95	Lose2	1.0	0.0	Yes	2.728	0.0	n/a	GoodResponse	0	n/a	n/a	3	6	Fixation	AvoidedLoss	True
70.921	0.34	Lose2	1.0	0.001	Yes	2.728	-0.001	1.0	GoodResponse	0	0.213	70.134	3	6	Target	AvoidedLoss	True
71.134	0.3	Lose2	1.0	0.001	Yes	2.728	-0.001	1.0	GoodResponse	0	0.213	n/a	3	6	ButtonPress	AvoidedLoss	True
71.271	0.36	Lose2	1.0	n/a	Yes	2.728	n/a	n/a	GoodResponse	0	n/a	n/a	3	6	Blank	AvoidedLoss	True
71.621	1.45	Lose2	1.0	n/a	Yes	2.728	n/a	5.0	GoodResponse	0	0.014	70.635	3	6	Feedback	AvoidedLoss	True
73.07	2.728	Lose2	1.0	n/a	Yes	2.728	n/a	n/a	GoodResponse	0	0.0	n/a	3	6	ISIslide	AvoidedLoss	True
75.819	0.25	Lose2	1.0	0.0	Yes	4.031	0.019	n/a	GoodResponse	0	n/a	n/a	3	7	Cue	AvoidedLoss	True
76.069	4.05	Lose2	1.0	0.0	Yes	4.031	0.0	n/a	GoodResponse	0	n/a	n/a	3	7	Fixation	AvoidedLoss	True
80.118	0.33	Lose2	1.0	0.001	Yes	4.031	-0.001	1.0	GoodResponse	0	0.229	79.347	3	7	Target	AvoidedLoss	True
80.347	0.3	Lose2	1.0	0.001	Yes	4.031	-0.001	1.0	GoodResponse	0	0.229	n/a	3	7	ButtonPress	AvoidedLoss	True
80.451	0.37	Lose2	1.0	n/a	Yes	4.031	n/a	n/a	GoodResponse	0	n/a	n/a	3	7	Blank	AvoidedLoss	True
80.817	1.45	Lose2	1.0	n/a	Yes	4.031	n/a	5.0	GoodResponse	0	0.038	79.855	3	7	Feedback	AvoidedLoss	True
82.267	4.031	Lose2	1.0	n/a	Yes	4.031	n/a	n/a	GoodResponse	0	0.0	n/a	3	7	ISIslide	AvoidedLoss	True
86.316	0.25	Lose2	1.0	0.0	Yes	3.034	0.016	n/a	GoodResponse	0	n/a	n/a	3	8	Cue	AvoidedLoss	True
86.565	3.95	Lose2	1.0	0.001	Yes	3.034	-0.001	n/a	GoodResponse	0	n/a	n/a	3	8	Fixation	AvoidedLoss	True
90.514	0.32	Lose2	1.0	0.002	Yes	3.034	-0.002	1.0	GoodResponse	0	0.242	89.756	3	8	Target	AvoidedLoss	True
90.756	0.3	Lose2	1.0	0.002	Yes	3.034	-0.002	1.0	GoodResponse	0	0.242	n/a	3	8	ButtonPress	AvoidedLoss	True
90.847	0.38	Lose2	1.0	n/a	Yes	3.034	n/a	n/a	GoodResponse	0	n/a	n/a	3	8	Blank	AvoidedLoss	True
91.214	1.45	Lose2	1.0	n/a	Yes	3.034	n/a	5.0	GoodResponse	0	0.031	90.245	3	8	Feedback	AvoidedLoss	True
92.663	3.034	Lose2	1.0	n/a	Yes	3.034	n/a	n/a	GoodResponse	0	0.0	n/a	3	8	ISIslide	AvoidedLoss	True
95.729	0.25	Lose2	1.0	0.0	Yes	3.121	0.029	n/a	GoodResponse	0	n/a	n/a	3	9	Cue	AvoidedLoss	True
95.979	3.95	Lose2	1.0	0.0	Yes	3.121	0.0	n/a	GoodResponse	0	n/a	n/a	3	9	Fixation	AvoidedLoss	True
99.927	0.31	Lose2	1.0	0.002	Yes	3.121	-0.002	1.0	GoodResponse	0	0.218	99.145	3	9	Target	AvoidedLoss	True
100.145	0.3	Lose2	1.0	0.002	Yes	3.121	-0.002	1.0	GoodResponse	0	0.218	n/a	3	9	ButtonPress	AvoidedLoss	True
100.244	0.39	Lose2	1.0	n/a	Yes	3.121	n/a	n/a	GoodResponse	0	n/a	n/a	3	9	Blank	AvoidedLoss	True
100.627	1.45	Lose2	1.0	n/a	Yes	3.121	n/a	5.0	GoodResponse	0	0.033	99.66	3	9	Feedback	AvoidedLoss	True
102.077	3.121	Lose2	1.0	n/a	Yes	3.121	n/a	n/a	GoodResponse	0	0.0	n/a	3	9	ISIslide	AvoidedLoss	True
105.226	0.25	Control	1.0	0.0	Yes	3.274	0.026	n/a	GoodResponse	0	n/a	n/a	3	10	Cue	Neutral	True
105.475	4.0	Control	1.0	0.001	Yes	3.274	-0.001	n/a	GoodResponse	0	n/a	n/a	3	10	Fixation	Neutral	True
109.474	0.3	Control	1.0	0.002	Yes	3.274	-0.002	1.0	GoodResponse	0	0.214	108.688	3	10	Target	Neutral	True
109.688	0.3	Control	1.0	0.002	Yes	3.274	-0.002	1.0	GoodResponse	0	0.214	n/a	3	10	ButtonPress	Neutral	True
109.774	0.4	Control	1.0	n/a	Yes	3.274	n/a	n/a	GoodResponse	0	n/a	n/a	3	10	Blank	Neutral	True
110.174	1.45	Control	1.0	n/a	Yes	3.274	n/a	5.0	GoodResponse	0	0.047	109.221	3	10	Feedback	Neutral	True
111.623	3.274	Control	1.0	n/a	Yes	3.274	n/a	n/a	GoodResponse	0	0.0	n/a	3	10	ISIslide	Neutral	True
114.922	0.25	Lose2	1.0	0.0	Yes	2.728	0.022	n/a	GoodResponse	0	n/a	n/a	3	11	Cue	AvoidedLoss	True
115.172	4.05	Lose2	1.0	0.0	Yes	2.728	0.0	n/a	GoodResponse	0	n/a	n/a	3	11	Fixation	AvoidedLoss	True
119.221	0.29	Lose2	1.0	0.001	Yes	2.728	-0.001	1.0	GoodResponse	0	0.236	118.457	3	11	Target	AvoidedLoss	True
119.457	0.3	Lose2	1.0	0.001	Yes	2.728	-0.001	1.0	GoodResponse	0	0.236	n/a	3	11	ButtonPress	AvoidedLoss	True
119.521	0.41	Lose2	1.0	n/a	Yes	2.728	n/a	n/a	GoodResponse	0	n/a	n/a	3	11	Blank	AvoidedLoss	True
119.92	1.45	Lose2	1.0	n/a	Yes	2.728	n/a	5.0	GoodResponse	0	0.008	118.928	3	11	Feedback	AvoidedLoss	True
121.37	2.728	Lose2	1.0	n/a	Yes	2.728	n/a	n/a	GoodResponse	0	0.0	n/a	3	11	ISIslide	AvoidedLoss	True
124.119	0.25	Control	1.0	0.0	Yes	2.981	0.019	n/a	GoodResponse	0	n/a	n/a	3	12	Cue	Neutral	True
124.369	3.9	Control	1.0	0.0	Yes	2.981	0.0	n/a	GoodResponse	0	n/a	n/a	3	12	Fixation	Neutral	True
128.268	0.28	Control	1.0	0.001	Yes	2.981	-0.001	1.0	GoodResponse	0	0.273	127.541	3	12	Target	Neutral	True
128.541	0.3	Control	1.0	0.001	Yes	2.981	-0.001	1.0	GoodResponse	0	0.273	n/a	3	12	ButtonPress	Neutral	True
128.551	0.42	Control	1.0	n/a	Yes	2.981	n/a	n/a	GoodResponse	0	n/a	n/a	3	12	Blank	Neutral	True
128.967	1.45	Control	1.0	n/a	Yes	2.981	n/a	5.0	GoodResponse	0	0.034	128.001	3	12	Feedback	Neutral	True
130.417	2.981	Control	1.0	n/a	Yes	2.981	n/a	n/a	GoodResponse	0	0.0	n/a	3	12	ISIslide	Neutral	True
133.416	0.25	Control	1.0	0.0	Yes	2.784	0.016	n/a	GoodResponse	0	n/a	n/a	3	13	Cue	Neutral	True
133.666	4.0	Control	1.0	0.0	Yes	2.784	0.0	n/a	GoodResponse	0	n/a	n/a	3	13	Fixation	Neutral	True
137.664	0.27	Control	1.0	0.002	Yes	2.784	-0.002	1.0	GoodResponse	0	0.224	136.888	3	13	Target	Neutral	True
137.888	0.3	Control	1.0	0.002	Yes	2.784	-0.002	1.0	GoodResponse	0	0.224	n/a	3	13	ButtonPress	Neutral	True
137.948	0.43	Control	1.0	n/a	Yes	2.784	n/a	n/a	GoodResponse	0	n/a	n/a	3	13	Blank	Neutral	True
138.364	1.45	Control	1.0	n/a	Yes	2.784	n/a	5.0	GoodResponse	0	0.007	137.371	3	13	Feedback	Neutral	True
139.814	2.784	Control	1.0	n/a	Yes	2.784	n/a	n/a	GoodResponse	0	0.0	n/a	3	13	ISIslide	Neutral	True
142.629	0.25	Win2	1.0	0.0	Yes	2.671	0.029	n/a	GoodResponse	1	n/a	n/a	4	14	Cue	Win	True
142.879	4.1	Win2	1.0	0.0	Yes	2.671	0.0	n/a	GoodResponse	1	n/a	n/a	4	14	Fixation	Win	True
146.978	0.26	Win2	1.0	0.001	Yes	2.671	-0.001	1.0	GoodResponse	1	0.224	146.202	4	14	Target	Win	True
147.202	0.3	Win2	1.0	0.001	Yes	2.671	-0.001	1.0	GoodResponse	1	0.224	n/a	4	14	ButtonPress	Win	True
147.244	0.44	Win2	1.0	n/a	Yes	2.671	n/a	n/a	GoodResponse	1	n/a	n/a	4	14	Blank	Win	True
147.677	1.45	Win2	1.0	n/a	Yes	2.671	n/a	5.0	GoodResponse	1	0.007	146.684	4	14	Feedback	Win	True
149.127	2.671	Win2	1.0	n/a	Yes	2.671	n/a	n/a	GoodResponse	1	0.0	n/a	4	14	ISIslide	Win	True
151.826	0.25	Control	1.0	0.0	Yes	2.974	0.026	n/a	GoodResponse	0	n/a	n/a	4	15	Cue	Neutral	True
152.076	4.0	Control	1.0	0.0	Yes	2.974	0.0	n/a	GoodResponse	0	n/a	n/a	4	15	Fixation	Neutral	True
156.075	0.25	Control	1.0	0.001	Yes	2.974	-0.001	1.0	GoodResponse	0	0.238	155.313	4	15	Target	Neutral	True
156.313	0.3	Control	1.0	0.001	Yes	2.974	-0.001	1.0	GoodResponse	0	0.238	n/a	4	15	ButtonPress	Neutral	True
156.324	0.45	Control	1.0	n/a	Yes	2.974	n/a	n/a	GoodResponse	0	n/a	n/a	4	15	Blank	Neutral	True
156.774	1.45	Control	1.0	n/a	Yes	2.974	n/a	5.0	GoodResponse	0	0.032	155.806	4	15	Feedback	Neutral	True
158.224	2.974	Control	1.0	n/a	Yes	2.974	n/a	n/a	GoodResponse	0	0.0	n/a	4	15	ISIslide	Neutral	True
161.223	0.25	Win2	1.0	0.0	Yes	2.877	0.023	n/a	GoodResponse	1	n/a	n/a	5	16	Cue	Win	True
161.473	4.0	Win2	1.0	0.0	Yes	2.877	0.0	n/a	GoodResponse	1	n/a	n/a	5	16	Fixation	Win	True
165.471	0.24	Win2	1.0	0.002	Yes	2.877	-0.002	1.0	GoodResponse	1	0.235	164.706	5	16	Target	Win	True
165.706	0.3	Win2	1.0	0.002	Yes	2.877	-0.002	1.0	GoodResponse	1	0.235	n/a	5	16	ButtonPress	Win	True
165.721	0.46	Win2	1.0	n/a	Yes	2.877	n/a	n/a	GoodResponse	1	n/a	n/a	5	16	Blank	Win	True
166.171	1.45	Win2	1.0	n/a	Yes	2.877	n/a	5.0	GoodResponse	1	0.001	165.172	5	16	Feedback	Win	True
167.62	2.877	Win2	1.0	n/a	Yes	2.877	n/a	n/a	GoodResponse	1	0.0	n/a	5	16	ISIslide	Win	True
170.519	0.25	Lose2	1.0	0.001	Yes	2.731	0.019	n/a	GoodResponse	0	n/a	n/a	5	17	Cue	AvoidedLoss	True
170.769	3.95	Lose2	1.0	0.0	Yes	2.731	0.0	n/a	GoodResponse	0	n/a	n/a	5	17	Fixation	AvoidedLoss	True
174.718	0.23	Lose2	1.0	0.001	Yes	2.731	-0.001	1.0	GoodResponse	0	0.215	173.933	5	17	Target	AvoidedLoss	True
174.933	0.3	Lose2	1.0	0.001	Yes	2.731	-0.001	1.0	GoodResponse	0	0.215	n/a	5	17	ButtonPress	AvoidedLoss	True
174.951	0.47	Lose2	1.0	n/a	Yes	2.731	n/a	n/a	GoodResponse	0	n/a	n/a	5	17	Blank	AvoidedLoss	True
175.418	1.45	Lose2	1.0	n/a	Yes	2.731	n/a	5.0	GoodResponse	0	0.022	174.44	5	17	Feedback	AvoidedLoss	True
176.867	2.731	Lose2	1.0	n/a	Yes	2.731	n/a	n/a	GoodResponse	0	0.0	n/a	5	17	ISIslide	AvoidedLoss	True
179.616	0.25	Lose2	1.0	0.0	Yes	2.734	0.016	n/a	GoodResponse	0	n/a	n/a	5	18	Cue	AvoidedLoss	True
179.866	4.05	Lose2	1.0	0.0	Yes	2.734	0.0	n/a	GoodResponse	0	n/a	n/a	5	18	Fixation	AvoidedLoss	True
183.915	0.22	Lose2	1.0	0.001	Yes	2.734	-0.001	1.0	GoodResponse	0	0.201	183.116	5	18	Target	AvoidedLoss	True
184.116	0.3	Lose2	1.0	0.001	Yes	2.734	-0.001	1.0	GoodResponse	0	0.201	n/a	5	18	ButtonPress	AvoidedLoss	True
184.131	0.48	Lose2	1.0	n/a	Yes	2.734	n/a	n/a	GoodResponse	0	n/a	n/a	5	18	Blank	AvoidedLoss	True
184.615	1.45	Lose2	1.0	n/a	Yes	2.734	n/a	5.0	GoodResponse	0	0.044	183.659	5	18	Feedback	AvoidedLoss	True
186.064	2.734	Lose2	1.0	n/a	Yes	2.734	n/a	n/a	GoodResponse	0	0.0	n/a	5	18	ISIslide	AvoidedLoss	True
188.83	0.25	Control	0.95	0.0	No	2.92	0.03	n/a	NoResponse	0	n/a	n/a	5	19	Cue	Neutral	True
189.08	3.95	Control	0.95	0.0	No	2.92	0.0	1.0	NoResponse	0	3.895	191.975	5	19	Fixation	Neutral	True
192.975	0.3	Control	0.95	0.0	No	2.92	0.0	1.0	NoResponse	0	3.895	n/a	5	19	ButtonPress	Neutral	True
193.028	0.21	Control	0.95	0.002	No	2.92	-0.002	n/a	NoResponse	0	n/a	n/a	5	19	Target	Neutral	True
193.245	0.49	Control	0.95	n/a	No	2.92	n/a	n/a	NoResponse	0	n/a	n/a	5	19	Blank	Neutral	True
193.728	1.45	Control	0.95	n/a	No	2.92	n/a	5.0	NoResponse	0	0.007	192.735	5	19	Feedback	Neutral	True
195.178	2.92	Control	0.95	n/a	No	2.92	n/a	n/a	NoResponse	0	0.0	n/a	5	19	ISIslide	Neutral	True
198.127	0.25	Control	0.9048	0.0	No	2.623	0.027	n/a	NoResponse	0	n/a	n/a	5	20	Cue	Neutral	True
198.376	4.05	Control	0.9048	0.001	No	2.623	-0.001	n/a	NoResponse	0	n/a	n/a	5	20	Fixation	Neutral	True
202.425	0.2	Control	0.9048	0.002	No	2.623	-0.002	1.0	NoResponse	0	0.214	201.639	5	20	Target	Neutral	True
202.625	0.5	Control	0.9048	n/a	No	2.623	n/a	n/a	NoResponse	0	n/a	n/a	5	20	Blank	Neutral	True
202.639	0.3	Control	0.9048	0.002	No	2.623	-0.002	1.0	NoResponse	0	0.214	n/a	5	20	ButtonPress	Neutral	True
203.125	1.45	Control	0.9048	n/a	No	2.623	n/a	5.0	NoResponse	0	0.022	202.147	5	20	Feedback	Neutral	True
204.574	2.623	Control	0.9048	n/a	No	2.623	n/a	n/a	NoResponse	0	0.0	n/a	5	20	ISIslide	Neutral	True
207.223	0.25	Control	0.8636	0.0	No	2.777	0.023	n/a	NoResponse	0	n/a	n/a	5	21	Cue	Neutral	True
207.473	4.1	Control	0.8636	0.0	No	2.777	0.0	n/a	NoResponse	0	n/a	n/a	5	21	Fixation	Neutral	True
211.572	0.19	Control	0.8636	0.001	No	2.777	-0.001	1.0	NoResponse	0	0.209	210.781	5	21	Target	Neutral	True
211.772	0.51	Control	0.8636	n/a	No	2.777	n/a	n/a	NoResponse	0	n/a	n/a	5	21	Blank	Neutral	True
211.781	0.3	Control	0.8636	0.001	No	2.777	-0.001	1.0	NoResponse	0	0.209	n/a	5	21	ButtonPress	Neutral	True
212.272	1.45	Control	0.8636	n/a	No	2.777	n/a	5.0	NoResponse	0	0.046	211.318	5	21	Feedback	Neutral	True
213.721	2.777	Control	0.8636	n/a	No	2.777	n/a	n/a	NoResponse	0	0.0	n/a	5	21	ISIslide	Neutral	True
216.52	0.25	Control	0.8261	0.0	No	2.78	0.02	n/a	NoResponse	0	n/a	n/a	5	22	Cue	Neutral	True
216.77	4.0	Control	0.8261	0.0	No	2.78	0.0	n/a	NoResponse	0	n/a	n/a	5	22	Fixation	Neutral	True
220.769	0.18	Control	0.8261	0.001	No	2.78	-0.001	1.0	NoResponse	0	0.223	219.992	5	22	Target	Neutral	True
220.952	0.52	Control	0.8261	n/a	No	2.78	n/a	n/a	NoResponse	0	n/a	n/a	5	22	Blank	Neutral	True
220.992	0.3	Control	0.8261	0.001	No	2.78	-0.001	1.0	NoResponse	0	0.223	n/a	5	22	ButtonPress	Neutral	True
221.468	1.45	Control	0.8261	n/a	No	2.78	n/a	5.0	NoResponse	0	0.02	220.488	5	22	Feedback	Neutral	True
222.918	2.78	Control	0.8261	n/a	No	2.78	n/a	n/a	NoResponse	0	0.0	n/a	5	22	ISIslide	Neutral	True
225.717	0.25	Control	0.7917000000000001	0.0	No	2.783	0.017	n/a	NoResponse	0	n/a	n/a	5	23	Cue	Neutral	True
225.967	3.9	Control	0.7917000000000001	0.0	No	2.783	0.0	n/a	NoResponse	0	n/a	n/a	5	23	Fixation	Neutral	True
229.865	0.17	Control	0.7917000000000001	0.002	No	2.783	-0.002	1.0	NoResponse	0	0.232	229.097	5	23	Target	Neutral	True
230.049	0.53	Control	0.7917000000000001	n/a	No	2.783	n/a	n/a	NoResponse	0	n/a	n/a	5	23	Blank	Neutral	True
230.097	0.3	Control	0.7917000000000001	0.002	No	2.783	-0.002	1.0	NoResponse	0	0.232	n/a	5	23	ButtonPress	Neutral	True
230.565	1.45	Control	0.7917000000000001	n/a	No	2.783	n/a	5.0	NoResponse	0	0.045	229.61	5	23	Feedback	Neutral	True
232.015	2.783	Control	0.7917000000000001	n/a	No	2.783	n/a	n/a	NoResponse	0	0.0	n/a	5	23	ISIslide	Neutral	True
234.83	0.25	Win2	0.76	0.0	No	3.12	0.03	n/a	NoResponse	0	n/a	n/a	5	24	Cue	MissedWin	False
235.08	3.95	Win2	0.76	0.0	No	3.12	0.0	1.0	NoResponse	0	3.329	237.409	5	24	Fixation	MissedWin	False
238.409	0.3	Win2	0.76	0.0	No	3.12	0.0	1.0	NoResponse	0	3.329	n/a	5	24	ButtonPress	MissedWin	False
239.029	0.16	Win2	0.76	0.001	No	3.12	-0.001	1.0	NoResponse	0	0.185	238.214	5	24	Target	MissedWin	False
239.196	0.54	Win2	0.76	n/a	No	3.12	n/a	n/a	NoResponse	0	n/a	n/a	5	24	Blank	MissedWin	False
239.214	0.3	Win2	0.76	0.001	No	3.12	-0.001	1.0	NoResponse	0	0.185	n/a	5	24	ButtonPress	MissedWin	False
239.729	1.45	Win2	0.76	n/a	No	3.12	n/a	5.0	NoResponse	0	0.006	238.735	5	24	Feedback	MissedWin	False
241.178	3.12	Win2	0.76	n/a	No	3.12	n/a	1.0	NoResponse	0	1.591	n/a	5	24	ISIslide	MissedWin	False
244.31	0.25	Win2	0.7308	0.0	No	3.09	0.01	n/a	NoResponse	0	n/a	n/a	5	25	Cue	MissedWin	True
244.56	4.0	Win2	0.7308	0.0	No	3.09	0.0	n/a	NoResponse	0	n/a	n/a	5	25	Fixation	MissedWin	True
248.559	0.15	Win2	0.7308	0.001	No	3.09	-0.001	1.0	NoResponse	0	0.241	247.8	5	25	Target	MissedWin	True
248.709	0.55	Win2	0.7308	n/a	No	3.09	n/a	n/a	NoResponse	0	n/a	n/a	5	25	Blank	MissedWin	True
248.8	0.3	Win2	0.7308	0.001	No	3.09	-0.001	1.0	NoResponse	0	0.241	n/a	5	25	ButtonPress	MissedWin	True
249.259	1.45	Win2	0.7308	n/a	No	3.09	n/a	5.0	NoResponse	0	0.034	248.293	5	25	Feedback	MissedWin	True
250.708	3.09	Win2	0.7308	n/a	No	3.09	n/a	n/a	NoResponse	0	0.0	n/a	5	25	ISIslide	MissedWin	True
253.824	0.25	Win2	0.7037	0.0	No	2.926	0.024	n/a	NoResponse	0	n/a	n/a	5	26	Cue	MissedWin	True
254.074	3.95	Win2	0.7037	0.0	No	2.926	0.0	n/a	NoResponse	0	n/a	n/a	5	26	Fixation	MissedWin	True
258.022	0.15	Win2	0.7037	0.002	No	2.926	-0.002	1.0	NoResponse	0	0.272	257.294	5	26	Target	MissedWin	True
258.172	0.55	Win2	0.7037	n/a	No	2.926	n/a	n/a	NoResponse	0	n/a	n/a	5	26	Blank	MissedWin	True
258.294	0.3	Win2	0.7037	0.002	No	2.926	-0.002	1.0	NoResponse	0	0.272	n/a	5	26	ButtonPress	MissedWin	True
258.722	1.45	Win2	0.7037	n/a	No	2.926	n/a	5.0	NoResponse	0	0.035	257.757	5	26	Feedback	MissedWin	True
260.172	2.926	Win2	0.7037	n/a	No	2.926	n/a	n/a	NoResponse	0	0.0	n/a	5	26	ISIslide	MissedWin	True
263.121	0.25	Lose2	0.6786	0.0	No	2.829	0.021	n/a	NoResponse	-1	n/a	n/a	4	27	Cue	Loss	True
263.37	4.05	Lose2	0.6786	0.001	No	2.829	-0.001	n/a	NoResponse	-1	n/a	n/a	4	27	Fixation	Loss	True
267.419	0.15	Lose2	0.6786	0.002	No	2.829	-0.002	1.0	NoResponse	-1	0.175	266.594	4	27	Target	Loss	True
267.569	0.55	Lose2	0.6786	n/a	No	2.829	n/a	n/a	NoResponse	-1	n/a	n/a	4	27	Blank	Loss	True
267.594	0.3	Lose2	0.6786	0.002	No	2.829	-0.002	1.0	NoResponse	-1	0.175	n/a	4	27	ButtonPress	Loss	True
268.119	1.45	Lose2	0.6786	n/a	No	2.829	n/a	5.0	NoResponse	-1	0.007	267.126	4	27	Feedback	Loss	True
269.568	2.829	Lose2	0.6786	n/a	No	2.829	n/a	1.0	NoResponse	-1	2.332	n/a	4	27	ISIslide	Loss	True
272.401	0.25	Control	0.6552	0.0	No	2.849	0.001	n/a	NoResponse	0	n/a	n/a	4	28	Cue	Neutral	False
272.651	4.05	Control	0.6552	0.0	No	2.849	0.0	n/a	NoResponse	0	n/a	n/a	4	28	Fixation	Neutral	False
276.699	0.15	Control	0.6552	0.002	No	2.849	-0.002	n/a	NoResponse	0	n/a	n/a	4	28	Target	Neutral	False
276.849	0.55	Control	0.6552	n/a	No	2.849	n/a	n/a	NoResponse	0	n/a	n/a	4	28	Blank	Neutral	False
277.399	1.45	Control	0.6552	n/a	No	2.849	n/a	5.0	NoResponse	0	0.04	276.439	4	28	Feedback	Neutral	False
278.848	2.849	Control	0.6552	n/a	No	2.849	n/a	n/a	NoResponse	0	0.0	n/a	4	28	ISIslide	Neutral	False
281.714	0.25	Lose2	0.6333	0.0	No	2.836	0.014	n/a	NoResponse	-1	n/a	n/a	3	29	Cue	Loss	True
281.964	3.95	Lose2	0.6333	0.0	No	2.836	0.0	n/a	NoResponse	-1	n/a	n/a	3	29	Fixation	Loss	True
285.913	0.15	Lose2	0.6333	0.001	No	2.836	-0.001	1.0	NoResponse	-1	0.208	285.121	3	29	Target	Loss	True
286.063	0.55	Lose2	0.6333	n/a	No	2.836	n/a	n/a	NoResponse	-1	n/a	n/a	3	29	Blank	Loss	True
286.121	0.3	Lose2	0.6333	0.001	No	2.836	-0.001	1.0	NoResponse	-1	0.208	n/a	3	29	ButtonPress	Loss	True
286.612	1.45	Lose2	0.6333	n/a	No	2.836	n/a	5.0	NoResponse	-1	0.046	285.658	3	29	Feedback	Loss	True
288.062	2.836	Lose2	0.6333	n/a	No	2.836	n/a	n/a	NoResponse	-1	0.0	n/a	3	29	ISIslide	Loss	True
290.927	0.25	Win2	0.6129	0.001	No	2.773	0.027	n/a	NoResponse	0	n/a	n/a	3	30	Cue	MissedWin	True
291.177	3.9	Win2	0.6129	0.0	No	2.773	0.0	n/a	NoResponse	0	n/a	n/a	3	30	Fixation	MissedWin	True
295.076	0.16	Win2	0.6129	0.001	No	2.773	-0.001	1.0	NoResponse	0	0.232	294.308	3	30	Target	MissedWin	True
295.243	0.54	Win2	0.6129	n/a	No	2.773	n/a	n/a	NoResponse	0	n/a	n/a	3	30	Blank	MissedWin	True
295.308	0.3	Win2	0.6129	0.001	No	2.773	-0.001	1.0	NoResponse	0	0.232	n/a	3	30	ButtonPress	MissedWin	True
295.776	1.45	Win2	0.6129	n/a	No	2.773	n/a	5.0	NoResponse	0	0.006	294.782	3	30	Feedback	MissedWin	True
297.225	2.773	Win2	0.6129	n/a	No	2.773	n/a	n/a	NoResponse	0	0.0	n/a	3	30	ISIslide	MissedWin	True
300.024	0.25	Lose2	0.5938	0.0	No	2.826	0.024	n/a	NoResponse	-1	n/a	n/a	2	31	Cue	Loss	True
300.274	4.05	Lose2	0.5938	0.0	No	2.826	0.0	n/a	NoResponse	-1	n/a	n/a	2	31	Fixation	Loss	True
304.323	0.17	Lose2	0.5938	0.001	No	2.826	-0.001	1.0	NoResponse	-1	0.229	303.552	2	31	Target	Loss	True
304.489	0.53	Lose2	0.5938	n/a	No	2.826	n/a	n/a	NoResponse	-1	n/a	n/a	2	31	Blank	Loss	True
304.552	0.3	Lose2	0.5938	0.001	No	2.826	-0.001	1.0	NoResponse	-1	0.229	n/a	2	31	ButtonPress	Loss	True
305.023	1.45	Lose2	0.5938	n/a	No	2.826	n/a	5.0	NoResponse	-1	0.026	304.049	2	31	Feedback	Loss	True
306.472	2.826	Lose2	0.5938	n/a	No	2.826	n/a	n/a	NoResponse	-1	0.0	n/a	2	31	ISIslide	Loss	True
309.321	0.25	Lose2	0.5758	0.0	No	2.629	0.021	n/a	NoResponse	-1	n/a	n/a	1	32	Cue	Loss	True
309.571	4.15	Lose2	0.5758	0.0	No	2.629	0.0	n/a	NoResponse	-1	n/a	n/a	1	32	Fixation	Loss	True
313.72	0.18	Lose2	0.5758	0.001	No	2.629	-0.001	1.0	NoResponse	-1	0.225	312.945	1	32	Target	Loss	True
313.903	0.52	Lose2	0.5758	n/a	No	2.629	n/a	n/a	NoResponse	-1	n/a	n/a	1	32	Blank	Loss	True
313.945	0.3	Lose2	0.5758	0.001	No	2.629	-0.001	1.0	NoResponse	-1	0.225	n/a	1	32	ButtonPress	Loss	True
314.419	1.45	Lose2	0.5758	n/a	No	2.629	n/a	5.0	NoResponse	-1	0.045	313.464	1	32	Feedback	Loss	True
315.869	2.629	Lose2	0.5758	n/a	No	2.629	n/a	n/a	NoResponse	-1	0.0	n/a	1	32	ISIslide	Loss	True
318.518	0.25	Win2	0.5588000000000001	0.0	No	2.682	0.018	n/a	NoResponse	0	n/a	n/a	1	33	Cue	MissedWin	True
318.768	4.0	Win2	0.5588000000000001	0.0	No	2.682	0.0	n/a	NoResponse	0	n/a	n/a	1	33	Fixation	MissedWin	True
322.766	0.19	Win2	0.5588000000000001	0.002	No	2.682	-0.002	1.0	NoResponse	0	0.215	321.981	1	33	Target	MissedWin	True
322.966	0.51	Win2	0.5588000000000001	n/a	No	2.682	n/a	n/a	NoResponse	0	n/a	n/a	1	33	Blank	MissedWin	True
322.981	0.3	Win2	0.5588000000000001	0.002	No	2.682	-0.002	1.0	NoResponse	0	0.215	n/a	1	33	ButtonPress	MissedWin	True
323.466	1.45	Win2	0.5588000000000001	n/a	No	2.682	n/a	5.0	NoResponse	0	0.021	322.487	1	33	Feedback	MissedWin	True
324.916	2.682	Win2	0.5588000000000001	n/a	No	2.682	n/a	n/a	NoResponse	0	0.0	n/a	1	33	ISIslide	MissedWin	True
327.615	0.25	Lose2	0.5714	0.0	Yes	2.635	0.015	n/a	GoodResponse	0	n/a	n/a	1	34	Cue	AvoidedLoss	True
327.865	4.05	Lose2	0.5714	0.0	Yes	2.635	0.0	n/a	GoodResponse	0	n/a	n/a	1	34	Fixation	AvoidedLoss	True
331.913	0.2	Lose2	0.5714	0.002	Yes	2.635	-0.002	1.0	GoodResponse	0	0.189	331.102	1	34	Target	AvoidedLoss	True
332.102	0.3	Lose2	0.5714	0.002	Yes	2.635	-0.002	1.0	GoodResponse	0	0.189	n/a	1	34	ButtonPress	AvoidedLoss	True
332.113	0.5	Lose2	0.5714	n/a	Yes	2.635	n/a	n/a	GoodResponse	0	n/a	n/a	1	34	Blank	AvoidedLoss	True
332.613	1.45	Lose2	0.5714	n/a	Yes	2.635	n/a	5.0	GoodResponse	0	0.045	331.658	1	34	Feedback	AvoidedLoss	True
334.062	2.635	Lose2	0.5714	n/a	Yes	2.635	n/a	n/a	GoodResponse	0	0.0	n/a	1	34	ISIslide	AvoidedLoss	True
336.728	0.25	Lose2	0.5556	0.0	No	2.672	0.028	n/a	NoResponse	-1	n/a	n/a	0	35	Cue	Loss	True
336.978	4.0	Lose2	0.5556	0.0	No	2.672	0.0	n/a	NoResponse	-1	n/a	n/a	0	35	Fixation	Loss	True
340.977	0.21	Lose2	0.5556	0.001	No	2.672	-0.001	1.0	NoResponse	-1	0.224	340.201	0	35	Target	Loss	True
341.193	0.49	Lose2	0.5556	n/a	No	2.672	n/a	n/a	NoResponse	-1	n/a	n/a	0	35	Blank	Loss	True
341.201	0.3	Lose2	0.5556	0.001	No	2.672	-0.001	1.0	NoResponse	-1	0.224	n/a	0	35	ButtonPress	Loss	True
341.676	1.45	Lose2	0.5556	n/a	No	2.672	n/a	5.0	NoResponse	-1	0.007	340.683	0	35	Feedback	Loss	True
343.126	2.672	Lose2	0.5556	n/a	No	2.672	n/a	n/a	NoResponse	-1	0.0	n/a	0	35	ISIslide	Loss	True
345.825	0.25	Control	0.5676	0.0	Yes	2.675	0.025	n/a	GoodResponse	0	n/a	n/a	0	36	Cue	Neutral	True
346.075	4.0	Control	0.5676	0.0	Yes	2.675	0.0	n/a	GoodResponse	0	n/a	n/a	0	36	Fixation	Neutral	True
350.074	0.22	Control	0.5676	0.001	Yes	2.675	-0.001	1.0	GoodResponse	0	0.217	349.291	0	36	Target	Neutral	True
350.291	0.3	Control	0.5676	0.001	Yes	2.675	-0.001	1.0	GoodResponse	0	0.217	n/a	0	36	ButtonPress	Neutral	True
350.307	0.48	Control	0.5676	n/a	Yes	2.675	n/a	n/a	GoodResponse	0	n/a	n/a	0	36	Blank	Neutral	True
350.773	1.45	Control	0.5676	n/a	Yes	2.675	n/a	5.0	GoodResponse	0	0.032	349.805	0	36	Feedback	Neutral	True
352.223	2.675	Control	0.5676	n/a	Yes	2.675	n/a	n/a	GoodResponse	0	0.0	n/a	0	36	ISIslide	Neutral	True
354.922	0.25	Win2	0.5526	0.0	No	2.878	0.022	n/a	NoResponse	0	n/a	n/a	0	37	Cue	MissedWin	True
355.172	4.0	Win2	0.5526	0.0	No	2.878	0.0	n/a	NoResponse	0	n/a	n/a	0	37	Fixation	MissedWin	True
359.17	0.23	Win2	0.5526	0.002	No	2.878	-0.002	1.0	NoResponse	0	0.242	358.412	0	37	Target	MissedWin	True
359.404	0.47	Win2	0.5526	n/a	No	2.878	n/a	n/a	NoResponse	0	n/a	n/a	0	37	Blank	MissedWin	True
359.412	0.3	Win2	0.5526	0.002	No	2.878	-0.002	1.0	NoResponse	0	0.242	n/a	0	37	ButtonPress	MissedWin	True
359.87	1.45	Win2	0.5526	n/a	No	2.878	n/a	5.0	NoResponse	0	0.008	358.878	0	37	Feedback	MissedWin	True
361.32	2.878	Win2	0.5526	n/a	No	2.878	n/a	n/a	NoResponse	0	0.0	n/a	0	37	ISIslide	MissedWin	True
364.219	0.25	Lose2	0.5640999999999999	0.0	Yes	2.831	0.019	n/a	GoodResponse	0	n/a	n/a	0	38	Cue	AvoidedLoss	True
364.468	3.95	Lose2	0.5640999999999999	0.001	Yes	2.831	-0.001	n/a	GoodResponse	0	n/a	n/a	0	38	Fixation	AvoidedLoss	True
368.417	0.24	Lose2	0.5640999999999999	0.002	Yes	2.831	-0.002	1.0	GoodResponse	0	0.205	367.622	0	38	Target	AvoidedLoss	True
368.622	0.3	Lose2	0.5640999999999999	0.002	Yes	2.831	-0.002	1.0	GoodResponse	0	0.205	n/a	0	38	ButtonPress	AvoidedLoss	True
368.667	0.46	Lose2	0.5640999999999999	n/a	Yes	2.831	n/a	n/a	GoodResponse	0	n/a	n/a	0	38	Blank	AvoidedLoss	True
369.117	1.45	Lose2	0.5640999999999999	n/a	Yes	2.831	n/a	5.0	GoodResponse	0	0.029	368.146	0	38	Feedback	AvoidedLoss	True
370.566	2.831	Lose2	0.5640999999999999	n/a	Yes	2.831	n/a	n/a	GoodResponse	0	0.0	n/a	0	38	ISIslide	AvoidedLoss	True
373.415	0.25	Win2	0.575	0.0	Yes	2.985	0.015	n/a	GoodResponse	1	n/a	n/a	1	39	Cue	Win	True
373.665	4.1	Win2	0.575	0.0	Yes	2.985	0.0	n/a	GoodResponse	1	n/a	n/a	1	39	Fixation	Win	True
377.764	0.25	Win2	0.575	0.001	Yes	2.985	-0.001	1.0	GoodResponse	1	0.204	376.968	1	39	Target	Win	True
377.968	0.3	Win2	0.575	0.001	Yes	2.985	-0.001	1.0	GoodResponse	1	0.204	n/a	1	39	ButtonPress	Win	True
378.014	0.45	Win2	0.575	n/a	Yes	2.985	n/a	n/a	GoodResponse	1	n/a	n/a	1	39	Blank	Win	True
378.464	1.45	Win2	0.575	n/a	Yes	2.985	n/a	5.0	GoodResponse	1	0.047	377.511	1	39	Feedback	Win	True
379.913	2.985	Win2	0.575	n/a	Yes	2.985	n/a	n/a	GoodResponse	1	0.0	n/a	1	39	ISIslide	Win	True
382.929	0.25	Win2	0.5854	0.0	Yes	2.721	0.029	n/a	GoodResponse	1	n/a	n/a	2	40	Cue	Win	True
383.179	3.95	Win2	0.5854	0.0	Yes	2.721	0.0	n/a	GoodResponse	1	n/a	n/a	2	40	Fixation	Win	True
387.127	0.26	Win2	0.5854	0.002	Yes	2.721	-0.002	1.0	GoodResponse	1	0.227	386.354	2	40	Target	Win	True
387.354	0.3	Win2	0.5854	0.002	Yes	2.721	-0.002	1.0	GoodResponse	1	0.227	n/a	2	40	ButtonPress	Win	True
387.394	0.44	Win2	0.5854	n/a	Yes	2.721	n/a	n/a	GoodResponse	1	n/a	n/a	2	40	Blank	Win	True
387.827	1.45	Win2	0.5854	n/a	Yes	2.721	n/a	5.0	GoodResponse	1	0.002	386.829	2	40	Feedback	Win	True
389.276	2.721	Win2	0.5854	n/a	Yes	2.721	n/a	n/a	GoodResponse	1	0.0	n/a	2	40	ISIslide	Win	True
392.026	0.25	Win2	0.5952000000000001	0.0	Yes	2.774	0.026	n/a	GoodResponse	1	n/a	n/a	3	41	Cue	Win	True
392.275	3.9	Win2	0.5952000000000001	0.001	Yes	2.774	-0.001	n/a	GoodResponse	1	n/a	n/a	3	41	Fixation	Win	True
396.174	0.27	Win2	0.5952000000000001	0.002	Yes	2.774	-0.002	1.0	GoodResponse	1	0.228	395.402	3	41	Target	Win	True
396.402	0.3	Win2	0.5952000000000001	0.002	Yes	2.774	-0.002	1.0	GoodResponse	1	0.228	n/a	3	41	ButtonPress	Win	True
396.457	0.43	Win2	0.5952000000000001	n/a	Yes	2.774	n/a	n/a	GoodResponse	1	n/a	n/a	3	41	Blank	Win	True
396.874	1.45	Win2	0.5952000000000001	n/a	Yes	2.774	n/a	5.0	GoodResponse	1	0.028	395.902	3	41	Feedback	Win	True
398.323	2.774	Win2	0.5952000000000001	n/a	Yes	2.774	n/a	n/a	GoodResponse	1	0.0	n/a	3	41	ISIslide	Win	True
401.122	0.25	Control	0.6047	0.0	Yes	2.928	0.022	n/a	GoodResponse	0	n/a	n/a	3	42	Cue	Neutral	True
401.372	3.85	Control	0.6047	0.0	Yes	2.928	0.0	n/a	GoodResponse	0	n/a	n/a	3	42	Fixation	Neutral	True
405.221	0.28	Control	0.6047	0.001	Yes	2.928	-0.001	1.0	GoodResponse	0	0.236	404.457	3	42	Target	Neutral	True
405.457	0.3	Control	0.6047	0.001	Yes	2.928	-0.001	1.0	GoodResponse	0	0.236	n/a	3	42	ButtonPress	Neutral	True
405.504	0.42	Control	0.6047	n/a	Yes	2.928	n/a	n/a	GoodResponse	0	n/a	n/a	3	42	Blank	Neutral	True
405.921	1.45	Control	0.6047	n/a	Yes	2.928	n/a	5.0	GoodResponse	0	0.005	404.926	3	42	Feedback	Neutral	True
407.37	2.928	Control	0.6047	n/a	Yes	2.928	n/a	n/a	GoodResponse	0	0.0	n/a	3	42	ISIslide	Neutral	True
410.319	0.25	Win2	0.6136	0.0	Yes	3.181	0.019	n/a	GoodResponse	1	n/a	n/a	4	43	Cue	Win	True
410.569	4.0	Win2	0.6136	0.0	Yes	3.181	0.0	n/a	GoodResponse	1	n/a	n/a	4	43	Fixation	Win	True
414.568	0.29	Win2	0.6136	0.001	Yes	3.181	-0.001	1.0	GoodResponse	1	0.242	413.81	4	43	Target	Win	True
414.81	0.3	Win2	0.6136	0.001	Yes	3.181	-0.001	1.0	GoodResponse	1	0.242	n/a	4	43	ButtonPress	Win	True
414.868	0.41	Win2	0.6136	n/a	Yes	3.181	n/a	n/a	GoodResponse	1	n/a	n/a	4	43	Blank	Win	True
415.267	1.45	Win2	0.6136	n/a	Yes	3.181	n/a	5.0	GoodResponse	1	0.025	414.292	4	43	Feedback	Win	True
416.717	3.181	Win2	0.6136	n/a	Yes	3.181	n/a	n/a	GoodResponse	1	0.0	n/a	4	43	ISIslide	Win	True
419.916	0.25	Win2	0.6222	0.0	Yes	2.984	0.016	n/a	GoodResponse	1	n/a	n/a	5	44	Cue	Win	True
420.166	4.0	Win2	0.6222	0.0	Yes	2.984	0.0	n/a	GoodResponse	1	n/a	n/a	5	44	Fixation	Win	True
424.164	0.3	Win2	0.6222	0.002	Yes	2.984	-0.002	1.0	GoodResponse	1	0.225	423.389	5	44	Target	Win	True
424.389	0.3	Win2	0.6222	0.002	Yes	2.984	-0.002	1.0	GoodResponse	1	0.225	n/a	5	44	ButtonPress	Win	True
424.464	0.4	Win2	0.6222	n/a	Yes	2.984	n/a	n/a	GoodResponse	1	n/a	n/a	5	44	Blank	Win	True
424.864	1.45	Win2	0.6222	n/a	Yes	2.984	n/a	5.0	GoodResponse	1	0.037	423.901	5	44	Feedback	Win	True
426.314	2.984	Win2	0.6222	n/a	Yes	2.984	n/a	n/a	GoodResponse	1	0.0	n/a	5	44	ISIslide	Win	True
429.313	0.25	Control	0.6304	0.0	Yes	2.887	0.013	n/a	GoodResponse	0	n/a	n/a	5	45	Cue	Neutral	True
429.562	4.1	Control	0.6304	0.001	Yes	2.887	-0.001	n/a	GoodResponse	0	n/a	n/a	5	45	Fixation	Neutral	True
433.661	0.31	Control	0.6304	0.002	Yes	2.887	-0.002	1.0	GoodResponse	0	0.241	432.902	5	45	Target	Neutral	True
433.902	0.3	Control	0.6304	0.002	Yes	2.887	-0.002	1.0	GoodResponse	0	0.241	n/a	5	45	ButtonPress	Neutral	True
433.978	0.39	Control	0.6304	n/a	Yes	2.887	n/a	n/a	GoodResponse	0	n/a	n/a	5	45	Blank	Neutral	True
434.361	1.45	Control	0.6304	n/a	Yes	2.887	n/a	5.0	GoodResponse	0	0.007	433.368	5	45	Feedback	Neutral	True
435.81	2.887	Control	0.6304	n/a	Yes	2.887	n/a	n/a	GoodResponse	0	0.0	n/a	5	45	ISIslide	Neutral	True
438.726	0.25	Lose2	0.6383	0.0	Yes	3.374	0.026	n/a	GoodResponse	0	n/a	n/a	5	46	Cue	AvoidedLoss	True
438.976	4.0	Lose2	0.6383	0.0	Yes	3.374	0.0	n/a	GoodResponse	0	n/a	n/a	5	46	Fixation	AvoidedLoss	True
442.974	0.32	Lose2	0.6383	0.002	Yes	3.374	-0.002	1.0	GoodResponse	0	0.213	442.187	5	46	Target	AvoidedLoss	True
443.187	0.3	Lose2	0.6383	0.002	Yes	3.374	-0.002	1.0	GoodResponse	0	0.213	n/a	5	46	ButtonPress	AvoidedLoss	True
443.308	0.38	Lose2	0.6383	n/a	Yes	3.374	n/a	n/a	GoodResponse	0	n/a	n/a	5	46	Blank	AvoidedLoss	True
443.674	1.45	Lose2	0.6383	n/a	Yes	3.374	n/a	5.0	GoodResponse	0	0.008	442.682	5	46	Feedback	AvoidedLoss	True
445.124	3.374	Lose2	0.6383	n/a	Yes	3.374	n/a	n/a	GoodResponse	0	0.0	n/a	5	46	ISIslide	AvoidedLoss	True
448.522	0.25	Lose2	0.6457999999999999	0.001	Yes	2.678	0.022	n/a	GoodResponse	0	n/a	n/a	5	47	Cue	AvoidedLoss	True
448.772	4.0	Lose2	0.6457999999999999	0.0	Yes	2.678	0.0	n/a	GoodResponse	0	n/a	n/a	5	47	Fixation	AvoidedLoss	True
452.771	0.33	Lose2	0.6457999999999999	0.001	Yes	2.678	-0.001	1.0	GoodResponse	0	0.237	452.008	5	47	Target	AvoidedLoss	True
453.008	0.3	Lose2	0.6457999999999999	0.001	Yes	2.678	-0.001	1.0	GoodResponse	0	0.237	n/a	5	47	ButtonPress	AvoidedLoss	True
453.104	0.37	Lose2	0.6457999999999999	n/a	Yes	2.678	n/a	n/a	GoodResponse	0	n/a	n/a	5	47	Blank	AvoidedLoss	True
453.471	1.45	Lose2	0.6457999999999999	n/a	Yes	2.678	n/a	5.0	GoodResponse	0	0.016	452.487	5	47	Feedback	AvoidedLoss	True
454.92	2.678	Lose2	0.6457999999999999	n/a	Yes	2.678	n/a	n/a	GoodResponse	0	0.0	n/a	5	47	ISIslide	AvoidedLoss	True
457.619	0.25	Lose2	0.6531	0.0	Yes	3.031	0.019	n/a	GoodResponse	0	n/a	n/a	5	48	Cue	AvoidedLoss	False
457.869	3.95	Lose2	0.6531	0.0	Yes	3.031	0.0	1.0	GoodResponse	0	3.776	460.645	5	48	Fixation	AvoidedLoss	False
461.645	0.3	Lose2	0.6531	0.0	Yes	3.031	0.0	1.0	GoodResponse	0	3.776	n/a	5	48	ButtonPress	AvoidedLoss	False
461.818	0.34	Lose2	0.6531	0.001	Yes	3.031	-0.001	1.0	GoodResponse	0	0.288	461.106	5	48	Target	AvoidedLoss	False
462.106	0.3	Lose2	0.6531	0.001	Yes	3.031	-0.001	1.0	GoodResponse	0	0.288	n/a	5	48	ButtonPress	AvoidedLoss	False
462.168	0.36	Lose2	0.6531	n/a	Yes	3.031	n/a	n/a	GoodResponse	0	n/a	n/a	5	48	Blank	AvoidedLoss	False
462.518	1.45	Lose2	0.6531	n/a	Yes	3.031	n/a	5.0	GoodResponse	0	0.042	461.56	5	48	Feedback	AvoidedLoss	False
463.967	3.031	Lose2	0.6531	n/a	Yes	3.031	n/a	n/a	GoodResponse	0	0.0	n/a	5	48	ISIslide	AvoidedLoss	False
467.016	0.25	Control	0.66	0.0	Yes	2.884	0.016	n/a	GoodResponse	0	n/a	n/a	5	49	Cue	Neutral	True
467.266	4.0	Control	0.66	0.0	Yes	2.884	0.0	n/a	GoodResponse	0	n/a	n/a	5	49	Fixation	Neutral	True
471.265	0.35	Control	0.66	0.001	Yes	2.884	-0.001	1.0	GoodResponse	0	0.251	470.516	5	49	Target	Neutral	True
471.516	0.3	Control	0.66	0.001	Yes	2.884	-0.001	1.0	GoodResponse	0	0.251	n/a	5	49	ButtonPress	Neutral	True
471.614	0.35	Control	0.66	n/a	Yes	2.884	n/a	n/a	GoodResponse	0	n/a	n/a	5	49	Blank	Neutral	True
471.964	1.45	Control	0.66	n/a	Yes	2.884	n/a	5.0	GoodResponse	0	0.01	470.974	5	49	Feedback	Neutral	True
473.414	2.884	Control	0.66	n/a	Yes	2.884	n/a	n/a	GoodResponse	0	0.0	n/a	5	49	ISIslide	Neutral	True
476.313	0.25	Control	0.6667000000000001	0.0	Yes	2.787	0.013	n/a	GoodResponse	0	n/a	n/a	5	50	Cue	Neutral	True
476.563	4.0	Control	0.6667000000000001	0.0	Yes	2.787	0.0	n/a	GoodResponse	0	n/a	n/a	5	50	Fixation	Neutral	True
480.561	0.35	Control	0.6667000000000001	0.002	Yes	2.787	-0.002	1.0	GoodResponse	0	0.226	479.787	5	50	Target	Neutral	True
480.787	0.3	Control	0.6667000000000001	0.002	Yes	2.787	-0.002	1.0	GoodResponse	0	0.226	n/a	5	50	ButtonPress	Neutral	True
480.911	0.35	Control	0.6667000000000001	n/a	Yes	2.787	n/a	n/a	GoodResponse	0	n/a	n/a	5	50	Blank	Neutral	True
481.261	1.45	Control	0.6667000000000001	n/a	Yes	2.787	n/a	5.0	GoodResponse	0	0.03	480.291	5	50	Feedback	Neutral	True
482.711	2.787	Control	0.6667000000000001	n/a	Yes	2.787	n/a	n/a	GoodResponse	0	0.0	n/a	5	50	ISIslide	Neutral	True
485.526	0.25	Control	0.6731	0.0	Yes	2.724	0.026	n/a	GoodResponse	0	n/a	n/a	5	51	Cue	Neutral	True
485.776	3.95	Control	0.6731	0.0	Yes	2.724	0.0	n/a	GoodResponse	0	n/a	n/a	5	51	Fixation	Neutral	True
489.725	0.34	Control	0.6731	0.001	Yes	2.724	-0.001	1.0	GoodResponse	0	0.24	488.965	5	51	Target	Neutral	True
489.965	0.3	Control	0.6731	0.001	Yes	2.724	-0.001	1.0	GoodResponse	0	0.24	n/a	5	51	ButtonPress	Neutral	True
490.075	0.36	Control	0.6731	n/a	Yes	2.724	n/a	n/a	GoodResponse	0	n/a	n/a	5	51	Blank	Neutral	True
490.425	1.45	Control	0.6731	n/a	Yes	2.724	n/a	5.0	GoodResponse	0	0.037	489.462	5	51	Feedback	Neutral	True
491.874	2.724	Control	0.6731	n/a	Yes	2.724	n/a	n/a	GoodResponse	0	0.0	n/a	5	51	ISIslide	Neutral	True
494.623	0.25	Control	0.6792	0.0	Yes	2.627	0.023	n/a	GoodResponse	0	n/a	n/a	5	52	Cue	Neutral	True
494.873	4.05	Control	0.6792	0.0	Yes	2.627	0.0	n/a	GoodResponse	0	n/a	n/a	5	52	Fixation	Neutral	True
498.922	0.33	Control	0.6792	0.001	Yes	2.627	-0.001	1.0	GoodResponse	0	0.238	498.16	5	52	Target	Neutral	True
499.16	0.3	Control	0.6792	0.001	Yes	2.627	-0.001	1.0	GoodResponse	0	0.238	n/a	5	52	ButtonPress	Neutral	True
499.255	0.37	Control	0.6792	n/a	Yes	2.627	n/a	n/a	GoodResponse	0	n/a	n/a	5	52	Blank	Neutral	True
499.621	1.45	Control	0.6792	n/a	Yes	2.627	n/a	5.0	GoodResponse	0	0.012	498.633	5	52	Feedback	Neutral	True
501.071	2.627	Control	0.6792	n/a	Yes	2.627	n/a	n/a	GoodResponse	0	0.0	n/a	5	52	ISIslide	Neutral	True
503.72	0.25	Win2	0.6851999999999999	0.0	Yes	2.93	0.02	n/a	GoodResponse	1	n/a	n/a	6	53	Cue	Win	True
503.97	4.05	Win2	0.6851999999999999	0.0	Yes	2.93	0.0	n/a	GoodResponse	1	n/a	n/a	6	53	Fixation	Win	True
508.018	0.32	Win2	0.6851999999999999	0.002	Yes	2.93	-0.002	1.0	GoodResponse	1	0.23	507.248	6	53	Target	Win	True
508.248	0.3	Win2	0.6851999999999999	0.002	Yes	2.93	-0.002	1.0	GoodResponse	1	0.23	n/a	6	53	ButtonPress	Win	True
508.352	0.38	Win2	0.6851999999999999	n/a	Yes	2.93	n/a	n/a	GoodResponse	1	n/a	n/a	6	53	Blank	Win	True
508.718	1.45	Win2	0.6851999999999999	n/a	Yes	2.93	n/a	5.0	GoodResponse	1	0.037	507.755	6	53	Feedback	Win	True
510.168	2.93	Win2	0.6851999999999999	n/a	Yes	2.93	n/a	n/a	GoodResponse	1	0.0	n/a	6	53	ISIslide	Win	True
513.117	0.25	Win2	0.6909000000000001	0.0	Yes	2.733	0.017	n/a	GoodResponse	1	n/a	n/a	7	54	Cue	Win	True
513.367	3.95	Win2	0.6909000000000001	0.0	Yes	2.733	0.0	n/a	GoodResponse	1	n/a	n/a	7	54	Fixation	Win	True
517.315	0.31	Win2	0.6909000000000001	0.002	Yes	2.733	-0.002	1.0	GoodResponse	1	0.234	516.549	7	54	Target	Win	True
517.549	0.3	Win2	0.6909000000000001	0.002	Yes	2.733	-0.002	1.0	GoodResponse	1	0.234	n/a	7	54	ButtonPress	Win	True
517.632	0.39	Win2	0.6909000000000001	n/a	Yes	2.733	n/a	n/a	GoodResponse	1	n/a	n/a	7	54	Blank	Win	True
518.015	1.45	Win2	0.6909000000000001	n/a	Yes	2.733	n/a	5.0	GoodResponse	1	0.008	517.023	7	54	Feedback	Win	True
519.464	2.733	Win2	0.6909000000000001	n/a	Yes	2.733	n/a	n/a	GoodResponse	1	0.0	n/a	7	54	ISIslide	Win	True
522.213	0.25	Control	0.6964	0.001	Yes	3.037	0.013	n/a	GoodResponse	0	n/a	n/a	7	55	Cue	Neutral	True
522.463	3.95	Control	0.6964	0.0	Yes	3.037	0.0	n/a	GoodResponse	0	n/a	n/a	7	55	Fixation	Neutral	True
526.412	0.3	Control	0.6964	0.001	Yes	3.037	-0.001	1.0	GoodResponse	0	0.273	525.685	7	55	Target	Neutral	True
526.685	0.3	Control	0.6964	0.001	Yes	3.037	-0.001	1.0	GoodResponse	0	0.273	n/a	7	55	ButtonPress	Neutral	True
526.712	0.4	Control	0.6964	n/a	Yes	3.037	n/a	n/a	GoodResponse	0	n/a	n/a	7	55	Blank	Neutral	True
527.112	1.45	Control	0.6964	n/a	Yes	3.037	n/a	5.0	GoodResponse	0	0.032	526.144	7	55	Feedback	Neutral	True
528.561	3.037	Control	0.6964	n/a	Yes	3.037	n/a	n/a	GoodResponse	0	0.0	n/a	7	55	ISIslide	Neutral	True
531.627	0.25	Control	0.7018000000000001	0.0	Yes	2.823	0.027	n/a	GoodResponse	0	n/a	n/a	7	56	Cue	Neutral	True
531.877	3.95	Control	0.7018000000000001	0.0	Yes	2.823	0.0	n/a	GoodResponse	0	n/a	n/a	7	56	Fixation	Neutral	True
535.825	0.29	Control	0.7018000000000001	0.002	Yes	2.823	-0.002	1.0	GoodResponse	0	0.245	535.07	7	56	Target	Neutral	True
536.07	0.3	Control	0.7018000000000001	0.002	Yes	2.823	-0.002	1.0	GoodResponse	0	0.245	n/a	7	56	ButtonPress	Neutral	True
536.125	0.41	Control	0.7018000000000001	n/a	Yes	2.823	n/a	n/a	GoodResponse	0	n/a	n/a	7	56	Blank	Neutral	True
536.525	1.45	Control	0.7018000000000001	n/a	Yes	2.823	n/a	5.0	GoodResponse	0	0.034	535.559	7	56	Feedback	Neutral	True
537.975	2.823	Control	0.7018000000000001	n/a	Yes	2.823	n/a	n/a	GoodResponse	0	0.0	n/a	7	56	ISIslide	Neutral	True
540.824	0.25	Control	0.6897	0.0	No	3.476	0.024	n/a	NoResponse	0	n/a	n/a	7	57	Cue	Neutral	True
541.074	4.0	Control	0.6897	0.0	No	3.476	0.0	n/a	NoResponse	0	n/a	n/a	7	57	Fixation	Neutral	True
545.072	0.28	Control	0.6897	0.002	No	3.476	-0.002	1.0	NoResponse	0	0.292	544.364	7	57	Target	Neutral	True
545.355	0.42	Control	0.6897	n/a	No	3.476	n/a	n/a	NoResponse	0	n/a	n/a	7	57	Blank	Neutral	True
545.364	0.3	Control	0.6897	0.002	No	3.476	-0.002	1.0	NoResponse	0	0.292	n/a	7	57	ButtonPress	Neutral	True
545.772	1.45	Control	0.6897	n/a	No	3.476	n/a	5.0	NoResponse	0	0.007	544.779	7	57	Feedback	Neutral	True
547.221	3.476	Control	0.6897	n/a	No	3.476	n/a	n/a	NoResponse	0	0.0	n/a	7	57	ISIslide	Neutral	True
550.72	0.25	Win2	0.6949	0.0	Yes	2.73	0.02	n/a	GoodResponse	1	n/a	n/a	8	58	Cue	Win	True
550.97	4.05	Win2	0.6949	0.0	Yes	2.73	0.0	n/a	GoodResponse	1	n/a	n/a	8	58	Fixation	Win	True
555.019	0.27	Win2	0.6949	0.001	Yes	2.73	-0.001	1.0	GoodResponse	1	0.225	554.244	8	58	Target	Win	True
555.244	0.3	Win2	0.6949	0.001	Yes	2.73	-0.001	1.0	GoodResponse	1	0.225	n/a	8	58	ButtonPress	Win	True
555.302	0.43	Win2	0.6949	n/a	Yes	2.73	n/a	n/a	GoodResponse	1	n/a	n/a	8	58	Blank	Win	True
555.718	1.45	Win2	0.6949	n/a	Yes	2.73	n/a	5.0	GoodResponse	1	0.012	554.73	8	58	Feedback	Win	True
557.168	2.73	Win2	0.6949	n/a	Yes	2.73	n/a	n/a	GoodResponse	1	0.0	n/a	8	58	ISIslide	Win	True
559.917	0.25	Lose2	0.7	0.0	Yes	2.683	0.017	n/a	GoodResponse	0	n/a	n/a	8	59	Cue	AvoidedLoss	True
560.167	4.0	Lose2	0.7	0.0	Yes	2.683	0.0	n/a	GoodResponse	0	n/a	n/a	8	59	Fixation	AvoidedLoss	True
564.165	0.26	Lose2	0.7	0.002	Yes	2.683	-0.002	1.0	GoodResponse	0	0.217	563.382	8	59	Target	AvoidedLoss	True
564.382	0.3	Lose2	0.7	0.002	Yes	2.683	-0.002	1.0	GoodResponse	0	0.217	n/a	8	59	ButtonPress	AvoidedLoss	True
564.432	0.44	Lose2	0.7	n/a	Yes	2.683	n/a	n/a	GoodResponse	0	n/a	n/a	8	59	Blank	AvoidedLoss	True
564.865	1.45	Lose2	0.7	n/a	Yes	2.683	n/a	5.0	GoodResponse	0	0.036	563.901	8	59	Feedback	AvoidedLoss	True
566.315	2.683	Lose2	0.7	n/a	Yes	2.683	n/a	n/a	GoodResponse	0	0.0	n/a	8	59	ISIslide	AvoidedLoss	True
569.014	0.25	Control	0.7049	0.0	Yes	2.686	0.014	n/a	GoodResponse	0	n/a	n/a	8	60	Cue	Neutral	True
569.264	4.0	Control	0.7049	0.0	Yes	2.686	0.0	n/a	GoodResponse	0	n/a	n/a	8	60	Fixation	Neutral	True
573.262	0.25	Control	0.7049	0.002	Yes	2.686	-0.002	1.0	GoodResponse	0	0.246	572.508	8	60	Target	Neutral	True
573.508	0.3	Control	0.7049	0.002	Yes	2.686	-0.002	1.0	GoodResponse	0	0.246	n/a	8	60	ButtonPress	Neutral	True
573.512	0.45	Control	0.7049	n/a	Yes	2.686	n/a	n/a	GoodResponse	0	n/a	n/a	8	60	Blank	Neutral	True
573.962	1.45	Control	0.7049	n/a	Yes	2.686	n/a	5.0	GoodResponse	0	0.011	572.973	8	60	Feedback	Neutral	True
575.412	2.686	Control	0.7049	n/a	Yes	2.686	n/a	n/a	GoodResponse	0	0.0	n/a	8	60	ISIslide	Neutral	True
578.127	0.25	Lose2	0.7097	0.0	Yes	2.973	0.027	n/a	GoodResponse	0	n/a	n/a	8	61	Cue	AvoidedLoss	True
578.377	4.0	Lose2	0.7097	0.0	Yes	2.973	0.0	n/a	GoodResponse	0	n/a	n/a	8	61	Fixation	AvoidedLoss	True
582.376	0.24	Lose2	0.7097	0.001	Yes	2.973	-0.001	1.0	GoodResponse	0	0.209	581.585	8	61	Target	AvoidedLoss	True
582.585	0.3	Lose2	0.7097	0.001	Yes	2.973	-0.001	1.0	GoodResponse	0	0.209	n/a	8	61	ButtonPress	AvoidedLoss	True
582.626	0.46	Lose2	0.7097	n/a	Yes	2.973	n/a	n/a	GoodResponse	0	n/a	n/a	8	61	Blank	AvoidedLoss	True
583.076	1.45	Lose2	0.7097	n/a	Yes	2.973	n/a	5.0	GoodResponse	0	0.019	582.095	8	61	Feedback	AvoidedLoss	True
584.525	2.973	Lose2	0.7097	n/a	Yes	2.973	n/a	n/a	GoodResponse	0	0.0	n/a	8	61	ISIslide	AvoidedLoss	True
587.524	0.25	Lose2	0.6984	0.0	No	2.876	0.024	n/a	LatePress	-1	n/a	n/a	7	62	Cue	Loss	True
587.774	3.9	Lose2	0.6984	0.0	No	2.876	0.0	n/a	LatePress	-1	n/a	n/a	7	62	Fixation	Loss	True
591.673	0.23	Lose2	0.6984	0.001	No	2.876	-0.001	1.0	LatePress	-1	0.231	590.904	7	62	Target	Loss	True
591.904	0.3	Lose2	0.6984	0.001	No	2.876	-0.001	1.0	LatePress	-1	0.231	n/a	7	62	ButtonPress	Loss	True
591.906	0.47	Lose2	0.6984	n/a	No	2.876	n/a	n/a	LatePress	-1	n/a	n/a	7	62	Blank	Loss	True
592.372	1.45	Lose2	0.6984	n/a	No	2.876	n/a	5.0	LatePress	-1	0.041	591.413	7	62	Feedback	Loss	True
593.822	2.876	Lose2	0.6984	n/a	No	2.876	n/a	n/a	LatePress	-1	0.0	n/a	7	62	ISIslide	Loss	True
596.721	0.25	Lose2	0.7031000000000001	0.0	Yes	2.629	0.021	n/a	GoodResponse	0	n/a	n/a	7	63	Cue	AvoidedLoss	True
596.971	4.05	Lose2	0.7031000000000001	0.0	Yes	2.629	0.0	n/a	GoodResponse	0	n/a	n/a	7	63	Fixation	AvoidedLoss	True
601.019	0.22	Lose2	0.7031000000000001	0.002	Yes	2.629	-0.002	1.0	GoodResponse	0	0.198	600.217	7	63	Target	AvoidedLoss	True
601.217	0.3	Lose2	0.7031000000000001	0.002	Yes	2.629	-0.002	1.0	GoodResponse	0	0.198	n/a	7	63	ButtonPress	AvoidedLoss	True
601.253	0.48	Lose2	0.7031000000000001	n/a	Yes	2.629	n/a	n/a	GoodResponse	0	n/a	n/a	7	63	Blank	AvoidedLoss	True
601.719	1.45	Lose2	0.7031000000000001	n/a	Yes	2.629	n/a	5.0	GoodResponse	0	0.011	600.73	7	63	Feedback	AvoidedLoss	True
603.169	2.629	Lose2	0.7031000000000001	n/a	Yes	2.629	n/a	n/a	GoodResponse	0	0.0	n/a	7	63	ISIslide	AvoidedLoss	True
605.818	0.25	Win2	0.6923	0.0	No	3.132	0.018	n/a	NoResponse	0	n/a	n/a	7	64	Cue	MissedWin	True
606.068	4.15	Win2	0.6923	0.0	No	3.132	0.0	n/a	NoResponse	0	n/a	n/a	7	64	Fixation	MissedWin	True
610.216	0.21	Win2	0.6923	0.002	No	3.132	-0.002	1.0	NoResponse	0	0.225	609.441	7	64	Target	MissedWin	True
610.433	0.49	Win2	0.6923	n/a	No	3.132	n/a	n/a	NoResponse	0	n/a	n/a	7	64	Blank	MissedWin	True
610.441	0.3	Win2	0.6923	0.002	No	3.132	-0.002	1.0	NoResponse	0	0.225	n/a	7	64	ButtonPress	MissedWin	True
610.916	1.45	Win2	0.6923	n/a	No	3.132	n/a	5.0	NoResponse	0	0.033	609.949	7	64	Feedback	MissedWin	True
612.365	3.132	Win2	0.6923	n/a	No	3.132	n/a	n/a	NoResponse	0	0.0	n/a	7	64	ISIslide	MissedWin	True
615.514	0.25	Control	0.6818000000000001	0.0	No	2.786	0.014	n/a	NoResponse	0	n/a	n/a	7	65	Cue	Neutral	True
615.764	4.0	Control	0.6818000000000001	0.0	No	2.786	0.0	n/a	NoResponse	0	n/a	n/a	7	65	Fixation	Neutral	True
619.763	0.2	Control	0.6818000000000001	0.001	No	2.786	-0.001	1.0	NoResponse	0	0.259	619.022	7	65	Target	Neutral	True
619.963	0.5	Control	0.6818000000000001	n/a	No	2.786	n/a	n/a	NoResponse	0	n/a	n/a	7	65	Blank	Neutral	True
620.022	0.3	Control	0.6818000000000001	0.001	No	2.786	-0.001	1.0	NoResponse	0	0.259	n/a	7	65	ButtonPress	Neutral	True
620.463	1.45	Control	0.6818000000000001	n/a	No	2.786	n/a	5.0	NoResponse	0	0.047	619.51	7	65	Feedback	Neutral	True
621.912	2.786	Control	0.6818000000000001	n/a	No	2.786	n/a	n/a	NoResponse	0	0.0	n/a	7	65	ISIslide	Neutral	True
624.728	0.25	Win2	0.6716	0.0	No	2.772	0.028	n/a	LatePress	0	n/a	n/a	7	66	Cue	MissedWin	True
624.978	3.9	Win2	0.6716	0.0	No	2.772	0.0	n/a	LatePress	0	n/a	n/a	7	66	Fixation	MissedWin	True
628.876	0.19	Win2	0.6716	0.002	No	2.772	-0.002	1.0	LatePress	0	0.193	628.069	7	66	Target	MissedWin	True
629.069	0.3	Win2	0.6716	0.002	No	2.772	-0.002	1.0	LatePress	0	0.193	n/a	7	66	ButtonPress	MissedWin	True
629.076	0.51	Win2	0.6716	n/a	No	2.772	n/a	n/a	LatePress	0	n/a	n/a	7	66	Blank	MissedWin	True
629.576	1.45	Win2	0.6716	n/a	No	2.772	n/a	5.0	LatePress	0	0.007	628.583	7	66	Feedback	MissedWin	True
631.025	2.772	Win2	0.6716	n/a	No	2.772	n/a	n/a	LatePress	0	0.0	n/a	7	66	ISIslide	MissedWin	True
633.825	0.25	Control	0.6618	0.0	No	2.725	0.025	n/a	NoResponse	0	n/a	n/a	7	67	Cue	Neutral	True
634.074	3.95	Control	0.6618	0.001	No	2.725	-0.001	n/a	NoResponse	0	n/a	n/a	7	67	Fixation	Neutral	True
638.023	0.18	Control	0.6618	0.002	No	2.725	-0.002	1.0	NoResponse	0	0.224	637.247	7	67	Target	Neutral	True
638.206	0.52	Control	0.6618	n/a	No	2.725	n/a	n/a	NoResponse	0	n/a	n/a	7	67	Blank	Neutral	True
638.247	0.3	Control	0.6618	0.002	No	2.725	-0.002	1.0	NoResponse	0	0.224	n/a	7	67	ButtonPress	Neutral	True
638.723	1.45	Control	0.6618	n/a	No	2.725	n/a	5.0	NoResponse	0	0.031	637.754	7	67	Feedback	Neutral	True
640.172	2.725	Control	0.6618	n/a	No	2.725	n/a	n/a	NoResponse	0	0.0	n/a	7	67	ISIslide	Neutral	True
642.921	0.25	Win2	0.6522	0.0	No	3.079	0.021	n/a	NoResponse	0	n/a	n/a	7	68	Cue	MissedWin	True
643.171	4.0	Win2	0.6522	0.0	No	3.079	0.0	n/a	NoResponse	0	n/a	n/a	7	68	Fixation	MissedWin	True
647.17	0.18	Win2	0.6522	0.001	No	3.079	-0.001	1.0	NoResponse	0	0.203	646.373	7	68	Target	MissedWin	True
647.353	0.52	Win2	0.6522	n/a	No	3.079	n/a	n/a	NoResponse	0	n/a	n/a	7	68	Blank	MissedWin	True
647.373	0.3	Win2	0.6522	0.001	No	3.079	-0.001	1.0	NoResponse	0	0.203	n/a	7	68	ButtonPress	MissedWin	True
647.87	1.45	Win2	0.6522	n/a	No	3.079	n/a	5.0	NoResponse	0	0.006	646.876	7	68	Feedback	MissedWin	True
649.319	3.079	Win2	0.6522	n/a	No	3.079	n/a	n/a	NoResponse	0	0.0	n/a	7	68	ISIslide	MissedWin	True
652.418	0.25	Win2	0.6429	0.0	No	3.232	0.018	n/a	NoResponse	0	n/a	n/a	7	69	Cue	MissedWin	True
652.668	3.95	Win2	0.6429	0.0	No	3.232	0.0	n/a	NoResponse	0	n/a	n/a	7	69	Fixation	MissedWin	True
656.617	0.19	Win2	0.6429	0.001	No	3.232	-0.001	1.0	NoResponse	0	0.255	655.872	7	69	Target	MissedWin	True
656.816	0.51	Win2	0.6429	n/a	No	3.232	n/a	n/a	NoResponse	0	n/a	n/a	7	69	Blank	MissedWin	True
656.872	0.3	Win2	0.6429	0.001	No	3.232	-0.001	1.0	NoResponse	0	0.255	n/a	7	69	ButtonPress	MissedWin	True
657.316	1.45	Win2	0.6429	n/a	No	3.232	n/a	5.0	NoResponse	0	0.023	656.339	7	69	Feedback	MissedWin	True
658.766	3.232	Win2	0.6429	n/a	No	3.232	n/a	n/a	NoResponse	0	0.0	n/a	7	69	ISIslide	MissedWin	True
662.015	0.25	Lose2	0.6338	0.0	No	3.035	0.015	n/a	LatePress	-1	n/a	n/a	6	70	Cue	Loss	True
662.265	4.05	Lose2	0.6338	0.0	No	3.035	0.0	n/a	LatePress	-1	n/a	n/a	6	70	Fixation	Loss	True
666.313	0.2	Lose2	0.6338	0.002	No	3.035	-0.002	1.0	LatePress	-1	0.201	665.514	6	70	Target	Loss	True
666.513	0.5	Lose2	0.6338	n/a	No	3.035	n/a	n/a	LatePress	-1	n/a	n/a	6	70	Blank	Loss	True
666.514	0.3	Lose2	0.6338	0.002	No	3.035	-0.002	1.0	LatePress	-1	0.201	n/a	6	70	ButtonPress	Loss	True
667.013	1.45	Lose2	0.6338	n/a	No	3.035	n/a	5.0	LatePress	-1	0.034	666.047	6	70	Feedback	Loss	True
668.462	3.035	Lose2	0.6338	n/a	No	3.035	n/a	n/a	LatePress	-1	0.0	n/a	6	70	ISIslide	Loss	True
671.511	0.25	Win2	0.625	0.0	No	2.739	0.011	n/a	PrematurePress	0	n/a	n/a	6	71	Cue	MissedWin	True
671.761	4.05	Win2	0.625	0.0	No	2.739	0.0	n/a	PrematurePress	0	n/a	n/a	6	71	Fixation	MissedWin	True
675.81	0.21	Win2	0.625	0.001	No	2.739	-0.001	1.0	PrematurePress	0	0.057	674.867	6	71	Target	MissedWin	True
675.867	0.3	Win2	0.625	0.001	No	2.739	-0.001	1.0	PrematurePress	0	0.057	n/a	6	71	ButtonPress	MissedWin	True
676.026	0.49	Win2	0.625	n/a	No	2.739	n/a	n/a	PrematurePress	0	n/a	n/a	6	71	Blank	MissedWin	True
676.51	1.45	Win2	0.625	n/a	No	2.739	n/a	5.0	PrematurePress	0	0.048	675.558	6	71	Feedback	MissedWin	True
677.959	2.739	Win2	0.625	n/a	No	2.739	n/a	n/a	PrematurePress	0	0.0	n/a	6	71	ISIslide	MissedWin	True
680.725	0.25	Win2	0.6164000000000001	0.0	No	2.775	0.025	n/a	LatePress	0	n/a	n/a	6	72	Cue	MissedWin	True
680.975	4.1	Win2	0.6164000000000001	0.0	No	2.775	0.0	n/a	LatePress	0	n/a	n/a	6	72	Fixation	MissedWin	True
685.073	0.22	Win2	0.6164000000000001	0.002	No	2.775	-0.002	1.0	LatePress	0	0.228	684.301	6	72	Target	MissedWin	True
685.301	0.3	Win2	0.6164000000000001	0.002	No	2.775	-0.002	1.0	LatePress	0	0.228	n/a	6	72	ButtonPress	MissedWin	True
685.307	0.48	Win2	0.6164000000000001	n/a	No	2.775	n/a	n/a	LatePress	0	n/a	n/a	6	72	Blank	MissedWin	True
685.773	1.45	Win2	0.6164000000000001	n/a	No	2.775	n/a	5.0	LatePress	0	0.005	684.778	6	72	Feedback	MissedWin	True
687.223	2.775	Win2	0.6164000000000001	n/a	No	2.775	n/a	n/a	LatePress	0	0.0	n/a	6	72	ISIslide	MissedWin	True
690.022	0.25	Win2	0.6215999999999999	0.0	Yes	2.678	0.022	n/a	GoodResponse	1	n/a	n/a	7	73	Cue	Win	True
690.271	4.0	Win2	0.6215999999999999	0.001	Yes	2.678	-0.001	n/a	GoodResponse	1	n/a	n/a	7	73	Fixation	Win	True
694.27	0.23	Win2	0.6215999999999999	0.002	Yes	2.678	-0.002	1.0	GoodResponse	1	0.228	693.498	7	73	Target	Win	True
694.498	0.3	Win2	0.6215999999999999	0.002	Yes	2.678	-0.002	1.0	GoodResponse	1	0.228	n/a	7	73	ButtonPress	Win	True
694.503	0.47	Win2	0.6215999999999999	n/a	Yes	2.678	n/a	n/a	GoodResponse	1	n/a	n/a	7	73	Blank	Win	True
694.97	1.45	Win2	0.6215999999999999	n/a	Yes	2.678	n/a	5.0	GoodResponse	1	0.027	693.997	7	73	Feedback	Win	True
696.419	2.678	Win2	0.6215999999999999	n/a	Yes	2.678	n/a	n/a	GoodResponse	1	0.0	n/a	7	73	ISIslide	Win	True
699.118	0.25	Lose2	0.6267	0.001	Yes	2.632	0.018	n/a	GoodResponse	0	n/a	n/a	7	74	Cue	AvoidedLoss	True
699.368	4.05	Lose2	0.6267	0.0	Yes	2.632	0.0	n/a	GoodResponse	0	n/a	n/a	7	74	Fixation	AvoidedLoss	True
703.417	0.24	Lose2	0.6267	0.001	Yes	2.632	-0.001	1.0	GoodResponse	0	0.202	702.619	7	74	Target	AvoidedLoss	True
703.619	0.3	Lose2	0.6267	0.001	Yes	2.632	-0.001	1.0	GoodResponse	0	0.202	n/a	7	74	ButtonPress	AvoidedLoss	True
703.667	0.46	Lose2	0.6267	n/a	Yes	2.632	n/a	n/a	GoodResponse	0	n/a	n/a	7	74	Blank	AvoidedLoss	True
704.117	1.45	Lose2	0.6267	n/a	Yes	2.632	n/a	5.0	GoodResponse	0	0.003	703.12	7	74	Feedback	AvoidedLoss	True
705.566	2.632	Lose2	0.6267	n/a	Yes	2.632	n/a	n/a	GoodResponse	0	0.0	n/a	7	74	ISIslide	AvoidedLoss	True
708.215	0.25	Lose2	0.6184000000000001	0.0	No	2.935	0.015	n/a	LatePress	-1	n/a	n/a	6	75	Cue	Loss	True
708.465	3.95	Lose2	0.6184000000000001	0.0	No	2.935	0.0	n/a	LatePress	-1	n/a	n/a	6	75	Fixation	Loss	True
712.414	0.25	Lose2	0.6184000000000001	0.001	No	2.935	-0.001	1.0	LatePress	-1	0.251	711.665	6	75	Target	Loss	True
712.664	0.45	Lose2	0.6184000000000001	n/a	No	2.935	n/a	n/a	LatePress	-1	n/a	n/a	6	75	Blank	Loss	True
712.665	0.3	Lose2	0.6184000000000001	0.001	No	2.935	-0.001	1.0	LatePress	-1	0.251	n/a	6	75	ButtonPress	Loss	True
713.114	1.45	Lose2	0.6184000000000001	n/a	No	2.935	n/a	5.0	LatePress	-1	0.03	712.144	6	75	Feedback	Loss	True
714.563	2.935	Lose2	0.6184000000000001	n/a	No	2.935	n/a	n/a	LatePress	-1	0.0	n/a	6	75	ISIslide	Loss	True
717.512	0.25	Control	0.6234000000000001	0.0	Yes	3.238	0.012	n/a	GoodResponse	0	n/a	n/a	6	76	Cue	Neutral	True
717.762	4.05	Control	0.6234000000000001	0.0	Yes	3.238	0.0	n/a	GoodResponse	0	n/a	n/a	6	76	Fixation	Neutral	True
721.81	0.26	Control	0.6234000000000001	0.002	Yes	3.238	-0.002	1.0	GoodResponse	0	0.213	721.023	6	76	Target	Neutral	True
722.023	0.3	Control	0.6234000000000001	0.002	Yes	3.238	-0.002	1.0	GoodResponse	0	0.213	n/a	6	76	ButtonPress	Neutral	True
722.077	0.44	Control	0.6234000000000001	n/a	Yes	3.238	n/a	n/a	GoodResponse	0	n/a	n/a	6	76	Blank	Neutral	True
722.51	1.45	Control	0.6234000000000001	n/a	Yes	3.238	n/a	5.0	GoodResponse	0	0.049	721.559	6	76	Feedback	Neutral	True
723.96	3.238	Control	0.6234000000000001	n/a	Yes	3.238	n/a	n/a	GoodResponse	0	0.0	n/a	6	76	ISIslide	Neutral	True
727.225	0.25	Lose2	0.6282	0.0	Yes	2.575	0.025	n/a	GoodResponse	0	n/a	n/a	6	77	Cue	AvoidedLoss	True
727.475	3.95	Lose2	0.6282	0.0	Yes	2.575	0.0	n/a	GoodResponse	0	n/a	n/a	6	77	Fixation	AvoidedLoss	True
731.424	0.27	Lose2	0.6282	0.001	Yes	2.575	-0.001	1.0	GoodResponse	0	0.236	730.66	6	77	Target	AvoidedLoss	True
731.66	0.3	Lose2	0.6282	0.001	Yes	2.575	-0.001	1.0	GoodResponse	0	0.236	n/a	6	77	ButtonPress	AvoidedLoss	True
731.69	0.43	Lose2	0.6282	n/a	Yes	2.575	n/a	n/a	GoodResponse	0	n/a	n/a	6	77	Blank	AvoidedLoss	True
732.124	1.45	Lose2	0.6282	n/a	Yes	2.575	n/a	5.0	GoodResponse	0	0.043	731.167	6	77	Feedback	AvoidedLoss	True
733.573	2.575	Lose2	0.6282	n/a	Yes	2.575	n/a	n/a	GoodResponse	0	0.0	n/a	6	77	ISIslide	AvoidedLoss	True
