onset	duration	cue_type	current_mean_accuracy	duration_error	is_hit	isi_adjusted	onset_delay	response	response_type	reward	rt	rt_time	total_reward	trial_number	trial_phase	trial_type	one_press
11.096	0.25	Control	1.0	0.0	Yes	2.954	-0.004	n/a	GoodResponse	0	n/a	n/a	0	0	Cue	Neutral	True
11.346	3.85	Control	1.0	0.0	Yes	2.954	0.0	n/a	GoodResponse	0	n/a	n/a	0	0	Fixation	Neutral	True
15.195	0.4	Control	1.0	0.001	Yes	2.954	-0.001	2.0	GoodResponse	0	0.281	14.476	0	0	Target	Neutral	True
15.476	0.3	Control	1.0	0.001	Yes	2.954	-0.001	2.0	GoodResponse	0	0.281	n/a	0	0	ButtonPress	Neutral	True
15.595	0.3	Control	1.0	n/a	Yes	2.954	n/a	n/a	GoodResponse	0	n/a	n/a	0	0	Blank	Neutral	True
15.895	1.45	Control	1.0	n/a	Yes	2.954	n/a	5.0	GoodResponse	0	0.034	14.929	0	0	Feedback	Neutral	True
17.344	2.954	Control	1.0	n/a	Yes	2.954	n/a	n/a	GoodResponse	0	0.0	n/a	0	0	ISIslide	Neutral	True
20.326	0.25	Lose2	1.0	0.0	Yes	2.774	0.026	n/a	GoodResponse	0	n/a	n/a	0	1	Cue	AvoidedLoss	True
20.576	4.0	Lose2	1.0	0.0	Yes	2.774	0.0	n/a	GoodResponse	0	n/a	n/a	0	1	Fixation	AvoidedLoss	True
24.575	0.39	Lose2	1.0	0.001	Yes	2.774	-0.001	2.0	GoodResponse	0	0.258	23.833	0	1	Target	AvoidedLoss	True
24.833	0.3	Lose2	1.0	0.001	Yes	2.774	-0.001	2.0	GoodResponse	0	0.258	n/a	0	1	ButtonPress	AvoidedLoss	True
24.975	0.31	Lose2	1.0	n/a	Yes	2.774	n/a	n/a	GoodResponse	0	n/a	n/a	0	1	Blank	AvoidedLoss	True
25.275	1.45	Lose2	1.0	n/a	Yes	2.774	n/a	5.0	GoodResponse	0	0.02	24.295	0	1	Feedback	AvoidedLoss	True
26.724	2.774	Lose2	1.0	n/a	Yes	2.774	n/a	n/a	GoodResponse	0	0.0	n/a	0	1	ISIslide	AvoidedLoss	True
29.523	0.25	Control	1.0	0.0	Yes	2.577	0.023	n/a	GoodResponse	0	n/a	n/a	0	2	Cue	Neutral	True
29.773	4.1	Control	1.0	0.0	Yes	2.577	0.0	n/a	GoodResponse	0	n/a	n/a	0	2	Fixation	Neutral	True
33.872	0.38	Control	1.0	0.001	Yes	2.577	-0.001	2.0	GoodResponse	0	0.256	33.128	0	2	Target	Neutral	True
34.128	0.3	Control	1.0	0.001	Yes	2.577	-0.001	2.0	GoodResponse	0	0.256	n/a	0	2	ButtonPress	Neutral	True
34.255	0.32	Control	1.0	n/a	Yes	2.577	n/a	n/a	GoodResponse	0	n/a	n/a	0	2	Blank	Neutral	True
34.571	1.45	Control	1.0	n/a	Yes	2.577	n/a	5.0	GoodResponse	0	0.041	33.612	0	2	Feedback	Neutral	True
36.021	2.577	Control	1.0	n/a	Yes	2.577	n/a	n/a	GoodResponse	0	0.0	n/a	0	2	ISIslide	Neutral	True
38.62	0.25	Win2	1.0	0.0	Yes	2.83	0.02	n/a	GoodResponse	1	n/a	n/a	1	3	Cue	Win	True
38.87	3.95	Win2	1.0	0.0	Yes	2.83	0.0	n/a	GoodResponse	1	n/a	n/a	1	3	Fixation	Win	True
42.818	0.37	Win2	1.0	0.002	Yes	2.83	-0.002	2.0	GoodResponse	1	0.327	42.145	1	3	Target	Win	True
43.145	0.3	Win2	1.0	0.002	Yes	2.83	-0.002	2.0	GoodResponse	1	0.327	n/a	1	3	ButtonPress	Win	True
43.202	0.33	Win2	1.0	n/a	Yes	2.83	n/a	n/a	GoodResponse	1	n/a	n/a	1	3	Blank	Win	True
43.518	1.45	Win2	1.0	n/a	Yes	2.83	n/a	5.0	GoodResponse	1	0.02	42.538	1	3	Feedback	Win	True
44.968	2.83	Win2	1.0	n/a	Yes	2.83	n/a	n/a	GoodResponse	1	0.0	n/a	1	3	ISIslide	Win	True
47.817	0.25	Win2	1.0	0.0	Yes	3.283	0.017	n/a	GoodResponse	1	n/a	n/a	2	4	Cue	Win	True
48.066	4.0	Win2	1.0	0.001	Yes	3.283	-0.001	n/a	GoodResponse	1	n/a	n/a	2	4	Fixation	Win	True
52.065	0.36	Win2	1.0	0.002	Yes	3.283	-0.002	2.0	GoodResponse	1	0.258	51.323	2	4	Target	Win	True
52.323	0.3	Win2	1.0	0.002	Yes	3.283	-0.002	2.0	GoodResponse	1	0.258	n/a	2	4	ButtonPress	Win	True
52.432	0.34	Win2	1.0	n/a	Yes	3.283	n/a	n/a	GoodResponse	1	n/a	n/a	2	4	Blank	Win	True
52.765	1.45	Win2	1.0	n/a	Yes	3.283	n/a	5.0	GoodResponse	1	0.041	51.806	2	4	Feedback	Win	True
54.214	3.283	Win2	1.0	n/a	Yes	3.283	n/a	n/a	GoodResponse	1	0.0	n/a	2	4	ISIslide	Win	True
57.513	0.25	Win2	1.0	0.0	Yes	2.787	0.013	n/a	GoodResponse	1	n/a	n/a	3	5	Cue	Win	True
57.763	4.0	Win2	1.0	0.0	Yes	2.787	0.0	n/a	GoodResponse	1	n/a	n/a	3	5	Fixation	Win	True
61.762	0.35	Win2	1.0	0.001	Yes	2.787	-0.001	2.0	GoodResponse	1	0.299	61.061	3	5	Target	Win	True
62.061	0.3	Win2	1.0	0.001	Yes	2.787	-0.001	2.0	GoodResponse	1	0.299	n/a	3	5	ButtonPress	Win	True
62.111	0.35	Win2	1.0	n/a	Yes	2.787	n/a	n/a	GoodResponse	1	n/a	n/a	3	5	Blank	Win	True
62.461	1.45	Win2	1.0	n/a	Yes	2.787	n/a	5.0	GoodResponse	1	0.004	61.465	3	5	Feedback	Win	True
63.911	2.787	Win2	1.0	n/a	Yes	2.787	n/a	n/a	GoodResponse	1	0.0	n/a	3	5	ISIslide	Win	True
66.727	0.25	Lose2	0.8571	0.0	No	2.723	0.027	n/a	NoResponse	-1	n/a	n/a	2	6	Cue	Loss	True
66.976	3.95	Lose2	0.8571	0.001	No	2.723	-0.001	n/a	NoResponse	-1	n/a	n/a	2	6	Fixation	Loss	True
70.925	0.34	Lose2	0.8571	0.002	No	2.723	-0.002	2.0	NoResponse	-1	0.376	70.301	2	6	Target	Loss	True
71.275	0.36	Lose2	0.8571	n/a	No	2.723	n/a	n/a	NoResponse	-1	n/a	n/a	2	6	Blank	Loss	True
71.301	0.3	Lose2	0.8571	0.002	No	2.723	-0.002	2.0	NoResponse	-1	0.376	n/a	2	6	ButtonPress	Loss	True
71.625	1.45	Lose2	0.8571	n/a	No	2.723	n/a	5.0	NoResponse	-1	0.011	70.636	2	6	Feedback	Loss	True
73.074	2.723	Lose2	0.8571	n/a	No	2.723	n/a	n/a	NoResponse	-1	0.0	n/a	2	6	ISIslide	Loss	True
75.823	0.25	Lose2	0.875	0.0	Yes	4.027	0.023	n/a	GoodResponse	0	n/a	n/a	2	7	Cue	AvoidedLoss	True
76.073	4.05	Lose2	0.875	0.0	Yes	4.027	0.0	n/a	GoodResponse	0	n/a	n/a	2	7	Fixation	AvoidedLoss	True
80.122	0.33	Lose2	0.875	0.001	Yes	4.027	-0.001	2.0	GoodResponse	0	0.265	79.387	2	7	Target	AvoidedLoss	True
80.387	0.3	Lose2	0.875	0.001	Yes	4.027	-0.001	2.0	GoodResponse	0	0.265	n/a	2	7	ButtonPress	AvoidedLoss	True
80.455	0.37	Lose2	0.875	n/a	Yes	4.027	n/a	n/a	GoodResponse	0	n/a	n/a	2	7	Blank	AvoidedLoss	True
80.821	1.45	Lose2	0.875	n/a	Yes	4.027	n/a	5.0	GoodResponse	0	0.033	79.854	2	7	Feedback	AvoidedLoss	True
82.271	4.027	Lose2	0.875	n/a	Yes	4.027	n/a	n/a	GoodResponse	0	0.0	n/a	2	7	ISIslide	AvoidedLoss	True
86.32	0.25	Lose2	0.8889	0.0	Yes	3.03	0.02	n/a	GoodResponse	0	n/a	n/a	2	8	Cue	AvoidedLoss	False
86.569	3.95	Lose2	0.8889	0.001	Yes	3.03	-0.001	2.0	GoodResponse	0	0.034	85.603	2	8	Fixation	AvoidedLoss	False
86.603	0.3	Lose2	0.8889	0.001	Yes	3.03	-0.001	2.0	GoodResponse	0	0.034	n/a	2	8	ButtonPress	AvoidedLoss	False
90.518	0.32	Lose2	0.8889	0.002	Yes	3.03	-0.002	2.0	GoodResponse	0	0.293	89.811	2	8	Target	AvoidedLoss	False
90.811	0.3	Lose2	0.8889	0.002	Yes	3.03	-0.002	2.0	GoodResponse	0	0.293	n/a	2	8	ButtonPress	AvoidedLoss	False
90.851	0.38	Lose2	0.8889	n/a	Yes	3.03	n/a	n/a	GoodResponse	0	n/a	n/a	2	8	Blank	AvoidedLoss	False
91.218	1.45	Lose2	0.8889	n/a	Yes	3.03	n/a	5.0	GoodResponse	0	0.027	90.245	2	8	Feedback	AvoidedLoss	False
92.667	3.03	Lose2	0.8889	n/a	Yes	3.03	n/a	n/a	GoodResponse	0	0.0	n/a	2	8	ISIslide	AvoidedLoss	False
95.716	0.25	Lose2	0.8	0.0	No	3.134	0.016	n/a	NoResponse	-1	n/a	n/a	1	9	Cue	Loss	True
95.966	3.95	Lose2	0.8	0.0	No	3.134	0.0	n/a	NoResponse	-1	n/a	n/a	1	9	Fixation	Loss	True
99.915	0.31	Lose2	0.8	0.001	No	3.134	-0.001	2.0	NoResponse	-1	0.392	99.307	1	9	Target	Loss	True
100.231	0.39	Lose2	0.8	n/a	No	3.134	n/a	n/a	NoResponse	-1	n/a	n/a	1	9	Blank	Loss	True
100.307	0.3	Lose2	0.8	0.001	No	3.134	-0.001	2.0	NoResponse	-1	0.392	n/a	1	9	ButtonPress	Loss	True
100.614	1.45	Lose2	0.8	n/a	No	3.134	n/a	5.0	NoResponse	-1	0.045	99.659	1	9	Feedback	Loss	True
102.064	3.134	Lose2	0.8	n/a	No	3.134	n/a	n/a	NoResponse	-1	0.0	n/a	1	9	ISIslide	Loss	True
105.213	0.25	Control	0.8181999999999999	0.0	Yes	3.287	0.013	n/a	GoodResponse	0	n/a	n/a	1	10	Cue	Neutral	True
105.463	4.0	Control	0.8181999999999999	0.0	Yes	3.287	0.0	n/a	GoodResponse	0	n/a	n/a	1	10	Fixation	Neutral	True
109.461	0.3	Control	0.8181999999999999	0.002	Yes	3.287	-0.002	2.0	GoodResponse	0	0.263	108.724	1	10	Target	Neutral	True
109.724	0.3	Control	0.8181999999999999	0.002	Yes	3.287	-0.002	2.0	GoodResponse	0	0.263	n/a	1	10	ButtonPress	Neutral	True
109.761	0.4	Control	0.8181999999999999	n/a	Yes	3.287	n/a	n/a	GoodResponse	0	n/a	n/a	1	10	Blank	Neutral	True
110.161	1.45	Control	0.8181999999999999	n/a	Yes	3.287	n/a	5.0	GoodResponse	0	0.011	109.172	1	10	Feedback	Neutral	True
111.611	3.287	Control	0.8181999999999999	n/a	Yes	3.287	n/a	n/a	GoodResponse	0	0.0	n/a	1	10	ISIslide	Neutral	True
114.926	0.25	Lose2	0.8332999999999999	0.0	Yes	2.724	0.026	n/a	GoodResponse	0	n/a	n/a	1	11	Cue	AvoidedLoss	True
115.176	4.05	Lose2	0.8332999999999999	0.0	Yes	2.724	0.0	n/a	GoodResponse	0	n/a	n/a	1	11	Fixation	AvoidedLoss	True
119.224	0.29	Lose2	0.8332999999999999	0.002	Yes	2.724	-0.002	2.0	GoodResponse	0	0.279	118.503	1	11	Target	AvoidedLoss	True
119.503	0.3	Lose2	0.8332999999999999	0.002	Yes	2.724	-0.002	2.0	GoodResponse	0	0.279	n/a	1	11	ButtonPress	AvoidedLoss	True
119.524	0.41	Lose2	0.8332999999999999	n/a	Yes	2.724	n/a	n/a	GoodResponse	0	n/a	n/a	1	11	Blank	AvoidedLoss	True
119.924	1.45	Lose2	0.8332999999999999	n/a	Yes	2.724	n/a	5.0	GoodResponse	0	0.004	118.928	1	11	Feedback	AvoidedLoss	True
121.374	2.724	Lose2	0.8332999999999999	n/a	Yes	2.724	n/a	n/a	GoodResponse	0	0.0	n/a	1	11	ISIslide	AvoidedLoss	True
124.123	0.25	Control	0.7692	0.0	No	2.977	0.023	n/a	NoResponse	0	n/a	n/a	1	12	Cue	Neutral	True
124.373	3.9	Control	0.7692	0.0	No	2.977	0.0	n/a	NoResponse	0	n/a	n/a	1	12	Fixation	Neutral	True
128.271	0.28	Control	0.7692	0.002	No	2.977	-0.002	2.0	NoResponse	0	0.291	127.562	1	12	Target	Neutral	True
128.555	0.42	Control	0.7692	n/a	No	2.977	n/a	n/a	NoResponse	0	n/a	n/a	1	12	Blank	Neutral	True
128.562	0.3	Control	0.7692	0.002	No	2.977	-0.002	2.0	NoResponse	0	0.291	n/a	1	12	ButtonPress	Neutral	True
128.971	1.45	Control	0.7692	n/a	No	2.977	n/a	5.0	NoResponse	0	0.029	128.0	1	12	Feedback	Neutral	True
130.421	2.977	Control	0.7692	n/a	No	2.977	n/a	n/a	NoResponse	0	0.0	n/a	1	12	ISIslide	Neutral	True
133.419	0.25	Control	0.7143	0.001	No	2.781	0.019	n/a	NoResponse	0	n/a	n/a	1	13	Cue	Neutral	True
133.669	4.0	Control	0.7143	0.0	No	2.781	0.0	n/a	NoResponse	0	n/a	n/a	1	13	Fixation	Neutral	True
137.668	0.27	Control	0.7143	0.001	No	2.781	-0.001	2.0	NoResponse	0	0.336	137.004	1	13	Target	Neutral	True
137.935	0.43	Control	0.7143	n/a	No	2.781	n/a	n/a	NoResponse	0	n/a	n/a	1	13	Blank	Neutral	True
138.004	0.3	Control	0.7143	0.001	No	2.781	-0.001	2.0	NoResponse	0	0.336	n/a	1	13	ButtonPress	Neutral	True
138.368	1.45	Control	0.7143	n/a	No	2.781	n/a	5.0	NoResponse	0	0.047	137.415	1	13	Feedback	Neutral	True
139.817	2.781	Control	0.7143	n/a	No	2.781	n/a	n/a	NoResponse	0	0.0	n/a	1	13	ISIslide	Neutral	True
142.616	0.25	Win2	0.7333	0.0	Yes	2.684	0.016	n/a	GoodResponse	1	n/a	n/a	2	14	Cue	Win	True
142.866	4.1	Win2	0.7333	0.0	Yes	2.684	0.0	n/a	GoodResponse	1	n/a	n/a	2	14	Fixation	Win	True
146.965	0.26	Win2	0.7333	0.001	Yes	2.684	-0.001	2.0	GoodResponse	1	0.235	146.2	2	14	Target	Win	True
147.2	0.3	Win2	0.7333	0.001	Yes	2.684	-0.001	2.0	GoodResponse	1	0.235	n/a	2	14	ButtonPress	Win	True
147.231	0.44	Win2	0.7333	n/a	Yes	2.684	n/a	n/a	GoodResponse	1	n/a	n/a	2	14	Blank	Win	True
147.664	1.45	Win2	0.7333	n/a	Yes	2.684	n/a	5.0	GoodResponse	1	0.019	146.683	2	14	Feedback	Win	True
149.114	2.684	Win2	0.7333	n/a	Yes	2.684	n/a	n/a	GoodResponse	1	0.0	n/a	2	14	ISIslide	Win	True
151.813	0.25	Control	0.6875	0.0	No	2.987	0.013	n/a	NoResponse	0	n/a	n/a	2	15	Cue	Neutral	True
152.063	4.0	Control	0.6875	0.0	No	2.987	0.0	n/a	NoResponse	0	n/a	n/a	2	15	Fixation	Neutral	True
156.061	0.25	Control	0.6875	0.002	No	2.987	-0.002	2.0	NoResponse	0	0.281	155.342	2	15	Target	Neutral	True
156.311	0.45	Control	0.6875	n/a	No	2.987	n/a	n/a	NoResponse	0	n/a	n/a	2	15	Blank	Neutral	True
156.342	0.3	Control	0.6875	0.002	No	2.987	-0.002	2.0	NoResponse	0	0.281	n/a	2	15	ButtonPress	Neutral	True
156.761	1.45	Control	0.6875	n/a	No	2.987	n/a	5.0	NoResponse	0	0.043	155.804	2	15	Feedback	Neutral	True
158.211	2.987	Control	0.6875	n/a	No	2.987	n/a	n/a	NoResponse	0	0.0	n/a	2	15	ISIslide	Neutral	True
161.226	0.25	Win2	0.6470999999999999	0.0	No	2.874	0.026	n/a	NoResponse	0	n/a	n/a	2	16	Cue	MissedWin	True
161.476	4.0	Win2	0.6470999999999999	0.0	No	2.874	0.0	n/a	NoResponse	0	n/a	n/a	2	16	Fixation	MissedWin	True
165.475	0.24	Win2	0.6470999999999999	0.001	No	2.874	-0.001	2.0	NoResponse	0	0.273	164.748	2	16	Target	MissedWin	True
165.725	0.46	Win2	0.6470999999999999	n/a	No	2.874	n/a	n/a	NoResponse	0	n/a	n/a	2	16	Blank	MissedWin	True
165.748	0.3	Win2	0.6470999999999999	0.001	No	2.874	-0.001	2.0	NoResponse	0	0.273	n/a	2	16	ButtonPress	MissedWin	True
166.174	1.45	Win2	0.6470999999999999	n/a	No	2.874	n/a	5.0	NoResponse	0	0.045	165.219	2	16	Feedback	MissedWin	True
167.624	2.874	Win2	0.6470999999999999	n/a	No	2.874	n/a	n/a	NoResponse	0	0.0	n/a	2	16	ISIslide	MissedWin	True
170.523	0.25	Lose2	0.6667000000000001	0.0	Yes	2.727	0.023	n/a	GoodResponse	0	n/a	n/a	2	17	Cue	AvoidedLoss	True
170.773	3.95	Lose2	0.6667000000000001	0.0	Yes	2.727	0.0	n/a	GoodResponse	0	n/a	n/a	2	17	Fixation	AvoidedLoss	True
174.721	0.25	Lose2	0.6667000000000001	0.002	Yes	2.727	-0.002	2.0	GoodResponse	0	0.249	173.97	2	17	Target	AvoidedLoss	True
174.97	0.3	Lose2	0.6667000000000001	0.002	Yes	2.727	-0.002	2.0	GoodResponse	0	0.249	n/a	2	17	ButtonPress	AvoidedLoss	True
174.971	0.45	Lose2	0.6667000000000001	n/a	Yes	2.727	n/a	n/a	GoodResponse	0	n/a	n/a	2	17	Blank	AvoidedLoss	True
175.421	1.45	Lose2	0.6667000000000001	n/a	Yes	2.727	n/a	5.0	GoodResponse	0	0.018	174.439	2	17	Feedback	AvoidedLoss	True
176.871	2.727	Lose2	0.6667000000000001	n/a	Yes	2.727	n/a	n/a	GoodResponse	0	0.0	n/a	2	17	ISIslide	AvoidedLoss	True
179.62	0.25	Lose2	0.6315999999999999	0.0	No	2.73	0.02	n/a	LatePress	-1	n/a	n/a	1	18	Cue	Loss	True
179.87	4.05	Lose2	0.6315999999999999	0.0	No	2.73	0.0	n/a	LatePress	-1	n/a	n/a	1	18	Fixation	Loss	True
183.918	0.24	Lose2	0.6315999999999999	0.002	No	2.73	-0.002	2.0	LatePress	-1	0.246	183.164	1	18	Target	Loss	True
184.164	0.3	Lose2	0.6315999999999999	0.002	No	2.73	-0.002	2.0	LatePress	-1	0.246	n/a	1	18	ButtonPress	Loss	True
184.168	0.46	Lose2	0.6315999999999999	n/a	No	2.73	n/a	n/a	LatePress	-1	n/a	n/a	1	18	Blank	Loss	True
184.618	1.45	Lose2	0.6315999999999999	n/a	No	2.73	n/a	5.0	LatePress	-1	0.04	183.658	1	18	Feedback	Loss	True
186.067	2.73	Lose2	0.6315999999999999	n/a	No	2.73	n/a	n/a	LatePress	-1	0.0	n/a	1	18	ISIslide	Loss	True
188.816	0.25	Control	0.65	0.0	Yes	2.934	0.016	n/a	GoodResponse	0	n/a	n/a	1	19	Cue	Neutral	True
189.066	3.95	Control	0.65	0.0	Yes	2.934	0.0	n/a	GoodResponse	0	n/a	n/a	1	19	Fixation	Neutral	True
193.015	0.25	Control	0.65	0.001	Yes	2.934	-0.001	2.0	GoodResponse	0	0.221	192.236	1	19	Target	Neutral	True
193.236	0.3	Control	0.65	0.001	Yes	2.934	-0.001	2.0	GoodResponse	0	0.221	n/a	1	19	ButtonPress	Neutral	True
193.265	0.45	Control	0.65	n/a	Yes	2.934	n/a	n/a	GoodResponse	0	n/a	n/a	1	19	Blank	Neutral	True
193.715	1.45	Control	0.65	n/a	Yes	2.934	n/a	5.0	GoodResponse	0	0.016	192.731	1	19	Feedback	Neutral	True
195.164	2.934	Control	0.65	n/a	Yes	2.934	n/a	n/a	GoodResponse	0	0.0	n/a	1	19	ISIslide	Neutral	True
198.113	0.25	Control	0.619	0.0	No	2.637	0.013	n/a	LatePress	0	n/a	n/a	1	20	Cue	Neutral	True
198.363	4.05	Control	0.619	0.0	No	2.637	0.0	n/a	LatePress	0	n/a	n/a	1	20	Fixation	Neutral	True
202.412	0.26	Control	0.619	0.001	No	2.637	-0.001	2.0	LatePress	0	0.264	201.676	1	20	Target	Neutral	True
202.676	0.3	Control	0.619	0.001	No	2.637	-0.001	2.0	LatePress	0	0.264	n/a	1	20	ButtonPress	Neutral	True
202.678	0.44	Control	0.619	n/a	No	2.637	n/a	n/a	LatePress	0	n/a	n/a	1	20	Blank	Neutral	True
203.111	1.45	Control	0.619	n/a	No	2.637	n/a	5.0	LatePress	0	0.034	202.145	1	20	Feedback	Neutral	True
204.561	2.637	Control	0.619	n/a	No	2.637	n/a	n/a	LatePress	0	0.0	n/a	1	20	ISIslide	Neutral	True
207.227	0.25	Control	0.6364	0.0	Yes	2.773	0.027	n/a	GoodResponse	0	n/a	n/a	1	21	Cue	Neutral	True
207.476	4.1	Control	0.6364	0.001	Yes	2.773	-0.001	n/a	GoodResponse	0	n/a	n/a	1	21	Fixation	Neutral	True
211.575	0.27	Control	0.6364	0.002	Yes	2.773	-0.002	2.0	GoodResponse	0	0.249	210.824	1	21	Target	Neutral	True
211.824	0.3	Control	0.6364	0.002	Yes	2.773	-0.002	2.0	GoodResponse	0	0.249	n/a	1	21	ButtonPress	Neutral	True
211.858	0.43	Control	0.6364	n/a	Yes	2.773	n/a	n/a	GoodResponse	0	n/a	n/a	1	21	Blank	Neutral	True
212.275	1.45	Control	0.6364	n/a	Yes	2.773	n/a	5.0	GoodResponse	0	0.041	211.316	1	21	Feedback	Neutral	True
213.724	2.773	Control	0.6364	n/a	Yes	2.773	n/a	n/a	GoodResponse	0	0.0	n/a	1	21	ISIslide	Neutral	True
216.523	0.25	Control	0.6087	0.0	No	2.777	0.023	n/a	NoResponse	0	n/a	n/a	1	22	Cue	Neutral	True
216.773	4.0	Control	0.6087	0.0	No	2.777	0.0	n/a	NoResponse	0	n/a	n/a	1	22	Fixation	Neutral	True
220.772	0.28	Control	0.6087	0.001	No	2.777	-0.001	2.0	NoResponse	0	0.369	220.141	1	22	Target	Neutral	True
221.055	0.42	Control	0.6087	n/a	No	2.777	n/a	n/a	NoResponse	0	n/a	n/a	1	22	Blank	Neutral	True
221.141	0.3	Control	0.6087	0.001	No	2.777	-0.001	2.0	NoResponse	0	0.369	n/a	1	22	ButtonPress	Neutral	True
221.471	1.45	Control	0.6087	n/a	No	2.777	n/a	5.0	NoResponse	0	0.016	220.487	1	22	Feedback	Neutral	True
222.921	2.777	Control	0.6087	n/a	No	2.777	n/a	n/a	NoResponse	0	0.0	n/a	1	22	ISIslide	Neutral	True
225.72	0.25	Control	0.625	0.0	Yes	2.78	0.02	n/a	GoodResponse	0	n/a	n/a	1	23	Cue	Neutral	True
225.97	3.9	Control	0.625	0.0	Yes	2.78	0.0	n/a	GoodResponse	0	n/a	n/a	1	23	Fixation	Neutral	True
229.868	0.29	Control	0.625	0.002	Yes	2.78	-0.002	2.0	GoodResponse	0	0.272	229.14	1	23	Target	Neutral	True
230.14	0.3	Control	0.625	0.002	Yes	2.78	-0.002	2.0	GoodResponse	0	0.272	n/a	1	23	ButtonPress	Neutral	True
230.168	0.41	Control	0.625	n/a	Yes	2.78	n/a	n/a	GoodResponse	0	n/a	n/a	1	23	Blank	Neutral	True
230.568	1.45	Control	0.625	n/a	Yes	2.78	n/a	5.0	GoodResponse	0	0.04	229.608	1	23	Feedback	Neutral	True
232.018	2.78	Control	0.625	n/a	Yes	2.78	n/a	n/a	GoodResponse	0	0.0	n/a	1	23	ISIslide	Neutral	True
234.817	0.25	Win2	0.64	0.0	Yes	3.133	0.017	n/a	GoodResponse	1	n/a	n/a	2	24	Cue	Win	True
235.067	3.95	Win2	0.64	0.0	Yes	3.133	0.0	n/a	GoodResponse	1	n/a	n/a	2	24	Fixation	Win	True
239.015	0.3	Win2	0.64	0.002	Yes	3.133	-0.002	2.0	GoodResponse	1	0.236	238.251	2	24	Target	Win	True
239.251	0.3	Win2	0.64	0.002	Yes	3.133	-0.002	2.0	GoodResponse	1	0.236	n/a	2	24	ButtonPress	Win	True
239.315	0.4	Win2	0.64	n/a	Yes	3.133	n/a	n/a	GoodResponse	1	n/a	n/a	2	24	Blank	Win	True
239.715	1.45	Win2	0.64	n/a	Yes	3.133	n/a	5.0	GoodResponse	1	0.015	238.73	2	24	Feedback	Win	True
241.164	3.133	Win2	0.64	n/a	Yes	3.133	n/a	n/a	GoodResponse	1	0.0	n/a	2	24	ISIslide	Win	True
244.33	0.25	Win2	0.6537999999999999	0.0	Yes	3.07	0.03	n/a	GoodResponse	1	n/a	n/a	3	25	Cue	Win	True
244.58	4.0	Win2	0.6537999999999999	0.0	Yes	3.07	0.0	n/a	GoodResponse	1	n/a	n/a	3	25	Fixation	Win	True
248.578	0.31	Win2	0.6537999999999999	0.002	Yes	3.07	-0.002	2.0	GoodResponse	1	0.234	247.812	3	25	Target	Win	True
248.812	0.3	Win2	0.6537999999999999	0.002	Yes	3.07	-0.002	2.0	GoodResponse	1	0.234	n/a	3	25	ButtonPress	Win	True
248.895	0.39	Win2	0.6537999999999999	n/a	Yes	3.07	n/a	n/a	GoodResponse	1	n/a	n/a	3	25	Blank	Win	True
249.278	1.45	Win2	0.6537999999999999	n/a	Yes	3.07	n/a	5.0	GoodResponse	1	0.013	248.291	3	25	Feedback	Win	True
250.728	3.07	Win2	0.6537999999999999	n/a	Yes	3.07	n/a	n/a	GoodResponse	1	0.0	n/a	3	25	ISIslide	Win	True
253.827	0.25	Win2	0.6667000000000001	0.0	Yes	2.923	0.027	n/a	GoodResponse	1	n/a	n/a	4	26	Cue	Win	True
254.077	3.95	Win2	0.6667000000000001	0.0	Yes	2.923	0.0	n/a	GoodResponse	1	n/a	n/a	4	26	Fixation	Win	True
258.025	0.32	Win2	0.6667000000000001	0.002	Yes	2.923	-0.002	2.0	GoodResponse	1	0.252	257.277	4	26	Target	Win	True
258.277	0.3	Win2	0.6667000000000001	0.002	Yes	2.923	-0.002	2.0	GoodResponse	1	0.252	n/a	4	26	ButtonPress	Win	True
258.358	0.38	Win2	0.6667000000000001	n/a	Yes	2.923	n/a	n/a	GoodResponse	1	n/a	n/a	4	26	Blank	Win	True
258.725	1.45	Win2	0.6667000000000001	n/a	Yes	2.923	n/a	5.0	GoodResponse	1	0.03	257.755	4	26	Feedback	Win	True
260.174	2.923	Win2	0.6667000000000001	n/a	Yes	2.923	n/a	n/a	GoodResponse	1	0.0	n/a	4	26	ISIslide	Win	True
263.123	0.25	Lose2	0.6786	0.0	Yes	2.827	0.023	n/a	GoodResponse	0	n/a	n/a	4	27	Cue	AvoidedLoss	True
263.373	4.05	Lose2	0.6786	0.0	Yes	2.827	0.0	n/a	GoodResponse	0	n/a	n/a	4	27	Fixation	AvoidedLoss	True
267.422	0.31	Lose2	0.6786	0.001	Yes	2.827	-0.001	2.0	GoodResponse	0	0.271	266.693	4	27	Target	AvoidedLoss	True
267.693	0.3	Lose2	0.6786	0.001	Yes	2.827	-0.001	2.0	GoodResponse	0	0.271	n/a	4	27	ButtonPress	AvoidedLoss	True
267.738	0.39	Lose2	0.6786	n/a	Yes	2.827	n/a	n/a	GoodResponse	0	n/a	n/a	4	27	Blank	AvoidedLoss	True
268.122	1.45	Lose2	0.6786	n/a	Yes	2.827	n/a	5.0	GoodResponse	0	0.047	267.169	4	27	Feedback	AvoidedLoss	True
269.571	2.827	Lose2	0.6786	n/a	Yes	2.827	n/a	n/a	GoodResponse	0	0.0	n/a	4	27	ISIslide	AvoidedLoss	True
272.42	0.25	Control	0.6552	0.0	No	2.83	0.02	n/a	NoResponse	0	n/a	n/a	4	28	Cue	Neutral	True
272.67	4.05	Control	0.6552	0.0	No	2.83	0.0	n/a	NoResponse	0	n/a	n/a	4	28	Fixation	Neutral	True
276.718	0.3	Control	0.6552	0.002	No	2.83	-0.002	2.0	NoResponse	0	0.342	276.06	4	28	Target	Neutral	True
277.018	0.4	Control	0.6552	n/a	No	2.83	n/a	n/a	NoResponse	0	n/a	n/a	4	28	Blank	Neutral	True
277.06	0.3	Control	0.6552	0.002	No	2.83	-0.002	2.0	NoResponse	0	0.342	n/a	4	28	ButtonPress	Neutral	True
277.418	1.45	Control	0.6552	n/a	No	2.83	n/a	5.0	NoResponse	0	0.019	276.437	4	28	Feedback	Neutral	True
278.868	2.83	Control	0.6552	n/a	No	2.83	n/a	n/a	NoResponse	0	0.0	n/a	4	28	ISIslide	Neutral	True
281.717	0.25	Lose2	0.6667000000000001	0.0	Yes	2.833	0.017	n/a	GoodResponse	0	n/a	n/a	4	29	Cue	AvoidedLoss	True
281.967	3.95	Lose2	0.6667000000000001	0.0	Yes	2.833	0.0	n/a	GoodResponse	0	n/a	n/a	4	29	Fixation	AvoidedLoss	True
285.915	0.3	Lose2	0.6667000000000001	0.002	Yes	2.833	-0.002	2.0	GoodResponse	0	0.266	285.181	4	29	Target	AvoidedLoss	True
286.181	0.3	Lose2	0.6667000000000001	0.002	Yes	2.833	-0.002	2.0	GoodResponse	0	0.266	n/a	4	29	ButtonPress	AvoidedLoss	True
286.215	0.4	Lose2	0.6667000000000001	n/a	Yes	2.833	n/a	n/a	GoodResponse	0	n/a	n/a	4	29	Blank	AvoidedLoss	True
286.615	1.45	Lose2	0.6667000000000001	n/a	Yes	2.833	n/a	5.0	GoodResponse	0	0.042	285.657	4	29	Feedback	AvoidedLoss	True
288.064	2.833	Lose2	0.6667000000000001	n/a	Yes	2.833	n/a	n/a	GoodResponse	0	0.0	n/a	4	29	ISIslide	AvoidedLoss	True
290.913	0.25	Win2	0.6774	0.0	Yes	2.787	0.013	n/a	GoodResponse	1	n/a	n/a	5	30	Cue	Win	True
291.163	3.9	Win2	0.6774	0.0	Yes	2.787	0.0	n/a	GoodResponse	1	n/a	n/a	5	30	Fixation	Win	True
295.062	0.29	Win2	0.6774	0.001	Yes	2.787	-0.001	2.0	GoodResponse	1	0.239	294.301	5	30	Target	Win	True
295.301	0.3	Win2	0.6774	0.001	Yes	2.787	-0.001	2.0	GoodResponse	1	0.239	n/a	5	30	ButtonPress	Win	True
295.362	0.41	Win2	0.6774	n/a	Yes	2.787	n/a	n/a	GoodResponse	1	n/a	n/a	5	30	Blank	Win	True
295.762	1.45	Win2	0.6774	n/a	Yes	2.787	n/a	5.0	GoodResponse	1	0.017	294.779	5	30	Feedback	Win	True
297.211	2.787	Win2	0.6774	n/a	Yes	2.787	n/a	n/a	GoodResponse	1	0.0	n/a	5	30	ISIslide	Win	True
300.027	0.25	Lose2	0.6875	0.0	Yes	2.823	0.027	n/a	GoodResponse	0	n/a	n/a	5	31	Cue	AvoidedLoss	True
300.277	4.05	Lose2	0.6875	0.0	Yes	2.823	0.0	n/a	GoodResponse	0	n/a	n/a	5	31	Fixation	AvoidedLoss	True
304.325	0.28	Lose2	0.6875	0.002	Yes	2.823	-0.002	2.0	GoodResponse	0	0.266	303.591	5	31	Target	AvoidedLoss	True
304.591	0.3	Lose2	0.6875	0.002	Yes	2.823	-0.002	2.0	GoodResponse	0	0.266	n/a	5	31	ButtonPress	AvoidedLoss	True
304.609	0.42	Lose2	0.6875	n/a	Yes	2.823	n/a	n/a	GoodResponse	0	n/a	n/a	5	31	Blank	AvoidedLoss	True
305.025	1.45	Lose2	0.6875	n/a	Yes	2.823	n/a	5.0	GoodResponse	0	0.021	304.046	5	31	Feedback	AvoidedLoss	True
306.475	2.823	Lose2	0.6875	n/a	Yes	2.823	n/a	n/a	GoodResponse	0	0.0	n/a	5	31	ISIslide	AvoidedLoss	True
309.324	0.25	Lose2	0.6970000000000001	0.0	Yes	2.626	0.024	n/a	GoodResponse	0	n/a	n/a	5	32	Cue	AvoidedLoss	True
309.573	4.15	Lose2	0.6970000000000001	0.001	Yes	2.626	-0.001	n/a	GoodResponse	0	n/a	n/a	5	32	Fixation	AvoidedLoss	True
313.722	0.27	Lose2	0.6970000000000001	0.002	Yes	2.626	-0.002	2.0	GoodResponse	0	0.268	312.99	5	32	Target	AvoidedLoss	True
313.99	0.3	Lose2	0.6970000000000001	0.002	Yes	2.626	-0.002	2.0	GoodResponse	0	0.268	n/a	5	32	ButtonPress	AvoidedLoss	True
314.005	0.43	Lose2	0.6970000000000001	n/a	Yes	2.626	n/a	n/a	GoodResponse	0	n/a	n/a	5	32	Blank	AvoidedLoss	True
314.422	1.45	Lose2	0.6970000000000001	n/a	Yes	2.626	n/a	5.0	GoodResponse	0	0.039	313.461	5	32	Feedback	AvoidedLoss	True
315.871	2.626	Lose2	0.6970000000000001	n/a	Yes	2.626	n/a	n/a	GoodResponse	0	0.0	n/a	5	32	ISIslide	AvoidedLoss	True
318.52	0.25	Win2	0.7059000000000001	0.0	Yes	2.68	0.02	n/a	GoodResponse	1	n/a	n/a	6	33	Cue	Win	True
318.77	4.0	Win2	0.7059000000000001	0.0	Yes	2.68	0.0	n/a	GoodResponse	1	n/a	n/a	6	33	Fixation	Win	True
322.769	0.26	Win2	0.7059000000000001	0.001	Yes	2.68	-0.001	2.0	GoodResponse	1	0.242	322.011	6	33	Target	Win	True
323.011	0.3	Win2	0.7059000000000001	0.001	Yes	2.68	-0.001	2.0	GoodResponse	1	0.242	n/a	6	33	ButtonPress	Win	True
323.035	0.44	Win2	0.7059000000000001	n/a	Yes	2.68	n/a	n/a	GoodResponse	1	n/a	n/a	6	33	Blank	Win	True
323.469	1.45	Win2	0.7059000000000001	n/a	Yes	2.68	n/a	5.0	GoodResponse	1	0.016	322.485	6	33	Feedback	Win	True
324.918	2.68	Win2	0.7059000000000001	n/a	Yes	2.68	n/a	n/a	GoodResponse	1	0.0	n/a	6	33	ISIslide	Win	True
327.617	0.25	Lose2	0.6857	0.0	No	2.633	0.017	n/a	NoResponse	-1	n/a	n/a	5	34	Cue	Loss	True
327.867	4.05	Lose2	0.6857	0.0	No	2.633	0.0	n/a	NoResponse	-1	n/a	n/a	5	34	Fixation	Loss	True
331.916	0.25	Lose2	0.6857	0.001	No	2.633	-0.001	2.0	NoResponse	-1	0.287	331.203	5	34	Target	Loss	True
332.165	0.45	Lose2	0.6857	n/a	No	2.633	n/a	n/a	NoResponse	-1	n/a	n/a	5	34	Blank	Loss	True
332.203	0.3	Lose2	0.6857	0.001	No	2.633	-0.001	2.0	NoResponse	-1	0.287	n/a	5	34	ButtonPress	Loss	True
332.615	1.45	Lose2	0.6857	n/a	No	2.633	n/a	5.0	NoResponse	-1	0.041	331.656	5	34	Feedback	Loss	True
334.065	2.633	Lose2	0.6857	n/a	No	2.633	n/a	n/a	NoResponse	-1	0.0	n/a	5	34	ISIslide	Loss	True
336.714	0.25	Lose2	0.6944	0.0	Yes	2.686	0.014	n/a	GoodResponse	0	n/a	n/a	5	35	Cue	AvoidedLoss	True
336.964	4.0	Lose2	0.6944	0.0	Yes	2.686	0.0	n/a	GoodResponse	0	n/a	n/a	5	35	Fixation	AvoidedLoss	True
340.962	0.24	Lose2	0.6944	0.002	Yes	2.686	-0.002	2.0	GoodResponse	0	0.23	340.192	5	35	Target	AvoidedLoss	True
341.192	0.3	Lose2	0.6944	0.002	Yes	2.686	-0.002	2.0	GoodResponse	0	0.23	n/a	5	35	ButtonPress	AvoidedLoss	True
341.212	0.46	Lose2	0.6944	n/a	Yes	2.686	n/a	n/a	GoodResponse	0	n/a	n/a	5	35	Blank	AvoidedLoss	True
341.662	1.45	Lose2	0.6944	n/a	Yes	2.686	n/a	5.0	GoodResponse	0	0.019	340.681	5	35	Feedback	AvoidedLoss	True
343.112	2.686	Lose2	0.6944	n/a	Yes	2.686	n/a	n/a	GoodResponse	0	0.0	n/a	5	35	ISIslide	AvoidedLoss	True
345.827	0.25	Control	0.6757	0.0	No	2.673	0.027	n/a	NoResponse	0	n/a	n/a	5	36	Cue	Neutral	True
346.077	4.0	Control	0.6757	0.0	No	2.673	0.0	n/a	NoResponse	0	n/a	n/a	5	36	Fixation	Neutral	True
350.076	0.23	Control	0.6757	0.001	No	2.673	-0.001	2.0	NoResponse	0	0.296	349.372	5	36	Target	Neutral	True
350.309	0.47	Control	0.6757	n/a	No	2.673	n/a	n/a	NoResponse	0	n/a	n/a	5	36	Blank	Neutral	True
350.372	0.3	Control	0.6757	0.001	No	2.673	-0.001	2.0	NoResponse	0	0.296	n/a	5	36	ButtonPress	Neutral	True
350.775	1.45	Control	0.6757	n/a	No	2.673	n/a	5.0	NoResponse	0	0.027	349.802	5	36	Feedback	Neutral	True
352.225	2.673	Control	0.6757	n/a	No	2.673	n/a	n/a	NoResponse	0	0.0	n/a	5	36	ISIslide	Neutral	True
354.924	0.25	Win2	0.6579	0.0	No	2.876	0.024	n/a	LatePress	0	n/a	n/a	5	37	Cue	MissedWin	True
355.174	4.0	Win2	0.6579	0.0	No	2.876	0.0	n/a	LatePress	0	n/a	n/a	5	37	Fixation	MissedWin	True
359.172	0.22	Win2	0.6579	0.002	No	2.876	-0.002	2.0	LatePress	0	0.233	358.405	5	37	Target	MissedWin	True
359.405	0.3	Win2	0.6579	0.002	No	2.876	-0.002	2.0	LatePress	0	0.233	n/a	5	37	ButtonPress	MissedWin	True
359.406	0.48	Win2	0.6579	n/a	No	2.876	n/a	n/a	LatePress	0	n/a	n/a	5	37	Blank	MissedWin	True
359.872	1.45	Win2	0.6579	n/a	No	2.876	n/a	5.0	LatePress	0	0.005	358.877	5	37	Feedback	MissedWin	True
361.322	2.876	Win2	0.6579	n/a	No	2.876	n/a	n/a	LatePress	0	0.0	n/a	5	37	ISIslide	MissedWin	True
364.221	0.25	Lose2	0.6409999999999999	0.0	No	2.829	0.021	n/a	NoResponse	-1	n/a	n/a	4	38	Cue	Loss	True
364.471	3.95	Lose2	0.6409999999999999	0.0	No	2.829	0.0	n/a	NoResponse	-1	n/a	n/a	4	38	Fixation	Loss	True
368.419	0.22	Lose2	0.6409999999999999	0.002	No	2.829	-0.002	2.0	NoResponse	-1	0.259	367.678	4	38	Target	Loss	True
368.652	0.48	Lose2	0.6409999999999999	n/a	No	2.829	n/a	n/a	NoResponse	-1	n/a	n/a	4	38	Blank	Loss	True
368.678	0.3	Lose2	0.6409999999999999	0.002	No	2.829	-0.002	2.0	NoResponse	-1	0.259	n/a	4	38	ButtonPress	Loss	True
369.119	1.45	Lose2	0.6409999999999999	n/a	No	2.829	n/a	5.0	NoResponse	-1	0.025	368.144	4	38	Feedback	Loss	True
370.568	2.829	Lose2	0.6409999999999999	n/a	No	2.829	n/a	n/a	NoResponse	-1	0.0	n/a	4	38	ISIslide	Loss	True
373.417	0.25	Win2	0.65	0.0	Yes	2.983	0.017	n/a	GoodResponse	1	n/a	n/a	5	39	Cue	Win	True
373.667	4.1	Win2	0.65	0.0	Yes	2.983	0.0	n/a	GoodResponse	1	n/a	n/a	5	39	Fixation	Win	True
377.766	0.23	Win2	0.65	0.001	Yes	2.983	-0.001	2.0	GoodResponse	1	0.221	376.987	5	39	Target	Win	True
377.987	0.3	Win2	0.65	0.001	Yes	2.983	-0.001	2.0	GoodResponse	1	0.221	n/a	5	39	ButtonPress	Win	True
377.999	0.47	Win2	0.65	n/a	Yes	2.983	n/a	n/a	GoodResponse	1	n/a	n/a	5	39	Blank	Win	True
378.466	1.45	Win2	0.65	n/a	Yes	2.983	n/a	5.0	GoodResponse	1	0.044	377.51	5	39	Feedback	Win	True
379.915	2.983	Win2	0.65	n/a	Yes	2.983	n/a	n/a	GoodResponse	1	0.0	n/a	5	39	ISIslide	Win	True
382.914	0.25	Win2	0.6585	0.0	Yes	2.736	0.014	n/a	GoodResponse	1	n/a	n/a	6	40	Cue	Win	True
383.164	3.95	Win2	0.6585	0.0	Yes	2.736	0.0	n/a	GoodResponse	1	n/a	n/a	6	40	Fixation	Win	True
387.113	0.24	Win2	0.6585	0.001	Yes	2.736	-0.001	2.0	GoodResponse	1	0.237	386.35	6	40	Target	Win	True
387.35	0.3	Win2	0.6585	0.001	Yes	2.736	-0.001	2.0	GoodResponse	1	0.237	n/a	6	40	ButtonPress	Win	True
387.362	0.46	Win2	0.6585	n/a	Yes	2.736	n/a	n/a	GoodResponse	1	n/a	n/a	6	40	Blank	Win	True
387.812	1.45	Win2	0.6585	n/a	Yes	2.736	n/a	5.0	GoodResponse	1	0.014	386.826	6	40	Feedback	Win	True
389.262	2.736	Win2	0.6585	n/a	Yes	2.736	n/a	n/a	GoodResponse	1	0.0	n/a	6	40	ISIslide	Win	True
392.027	0.25	Win2	0.6429	0.001	No	2.773	0.027	n/a	NoResponse	0	n/a	n/a	6	41	Cue	MissedWin	True
392.277	3.9	Win2	0.6429	0.0	No	2.773	0.0	n/a	NoResponse	0	n/a	n/a	6	41	Fixation	MissedWin	True
396.176	0.24	Win2	0.6429	0.001	No	2.773	-0.001	2.0	NoResponse	0	0.267	395.443	6	41	Target	MissedWin	True
396.426	0.46	Win2	0.6429	n/a	No	2.773	n/a	n/a	NoResponse	0	n/a	n/a	6	41	Blank	MissedWin	True
396.443	0.3	Win2	0.6429	0.001	No	2.773	-0.001	2.0	NoResponse	0	0.267	n/a	6	41	ButtonPress	MissedWin	True
396.876	1.45	Win2	0.6429	n/a	No	2.773	n/a	5.0	NoResponse	0	0.023	395.899	6	41	Feedback	MissedWin	True
398.325	2.773	Win2	0.6429	n/a	No	2.773	n/a	n/a	NoResponse	0	0.0	n/a	6	41	ISIslide	MissedWin	True
401.124	0.25	Control	0.6512	0.0	Yes	2.926	0.024	n/a	GoodResponse	0	n/a	n/a	6	42	Cue	Neutral	True
401.374	3.85	Control	0.6512	0.0	Yes	2.926	0.0	n/a	GoodResponse	0	n/a	n/a	6	42	Fixation	Neutral	True
405.223	0.25	Control	0.6512	0.001	Yes	2.926	-0.001	2.0	GoodResponse	0	0.233	404.456	6	42	Target	Neutral	True
405.456	0.3	Control	0.6512	0.001	Yes	2.926	-0.001	2.0	GoodResponse	0	0.233	n/a	6	42	ButtonPress	Neutral	True
405.473	0.45	Control	0.6512	n/a	Yes	2.926	n/a	n/a	GoodResponse	0	n/a	n/a	6	42	Blank	Neutral	True
405.923	1.45	Control	0.6512	n/a	Yes	2.926	n/a	5.0	GoodResponse	0	0.001	404.924	6	42	Feedback	Neutral	True
407.372	2.926	Control	0.6512	n/a	Yes	2.926	n/a	n/a	GoodResponse	0	0.0	n/a	6	42	ISIslide	Neutral	True
410.321	0.25	Win2	0.6591	0.0	Yes	3.179	0.021	n/a	GoodResponse	1	n/a	n/a	7	43	Cue	Win	True
410.571	4.0	Win2	0.6591	0.0	Yes	3.179	0.0	n/a	GoodResponse	1	n/a	n/a	7	43	Fixation	Win	True
414.569	0.26	Win2	0.6591	0.002	Yes	3.179	-0.002	2.0	GoodResponse	1	0.248	413.817	7	43	Target	Win	True
414.817	0.3	Win2	0.6591	0.002	Yes	3.179	-0.002	2.0	GoodResponse	1	0.248	n/a	7	43	ButtonPress	Win	True
414.836	0.44	Win2	0.6591	n/a	Yes	3.179	n/a	n/a	GoodResponse	1	n/a	n/a	7	43	Blank	Win	True
415.269	1.45	Win2	0.6591	n/a	Yes	3.179	n/a	5.0	GoodResponse	1	0.021	414.29	7	43	Feedback	Win	True
416.719	3.179	Win2	0.6591	n/a	Yes	3.179	n/a	n/a	GoodResponse	1	0.0	n/a	7	43	ISIslide	Win	True
419.918	0.25	Win2	0.6667000000000001	0.0	Yes	2.982	0.018	n/a	GoodResponse	1	n/a	n/a	8	44	Cue	Win	True
420.167	4.0	Win2	0.6667000000000001	0.001	Yes	2.982	-0.001	n/a	GoodResponse	1	n/a	n/a	8	44	Fixation	Win	True
424.166	0.26	Win2	0.6667000000000001	0.002	Yes	2.982	-0.002	2.0	GoodResponse	1	0.228	423.394	8	44	Target	Win	True
424.394	0.3	Win2	0.6667000000000001	0.002	Yes	2.982	-0.002	2.0	GoodResponse	1	0.228	n/a	8	44	ButtonPress	Win	True
424.433	0.44	Win2	0.6667000000000001	n/a	Yes	2.982	n/a	n/a	GoodResponse	1	n/a	n/a	8	44	Blank	Win	True
424.866	1.45	Win2	0.6667000000000001	n/a	Yes	2.982	n/a	5.0	GoodResponse	1	0.032	423.898	8	44	Feedback	Win	True
426.315	2.982	Win2	0.6667000000000001	n/a	Yes	2.982	n/a	n/a	GoodResponse	1	0.0	n/a	8	44	ISIslide	Win	True
429.314	0.25	Control	0.6522	0.0	No	2.886	0.014	n/a	NoResponse	0	n/a	n/a	8	45	Cue	Neutral	True
429.564	4.1	Control	0.6522	0.0	No	2.886	0.0	n/a	NoResponse	0	n/a	n/a	8	45	Fixation	Neutral	True
433.663	0.25	Control	0.6522	0.001	No	2.886	-0.001	2.0	NoResponse	0	0.308	432.971	8	45	Target	Neutral	True
433.913	0.45	Control	0.6522	n/a	No	2.886	n/a	n/a	NoResponse	0	n/a	n/a	8	45	Blank	Neutral	True
433.971	0.3	Control	0.6522	0.001	No	2.886	-0.001	2.0	NoResponse	0	0.308	n/a	8	45	ButtonPress	Neutral	True
434.362	1.45	Control	0.6522	n/a	No	2.886	n/a	5.0	NoResponse	0	0.049	433.411	8	45	Feedback	Neutral	True
435.812	2.886	Control	0.6522	n/a	No	2.886	n/a	n/a	NoResponse	0	0.0	n/a	8	45	ISIslide	Neutral	True
438.728	0.25	Lose2	0.6596	0.0	Yes	3.372	0.028	n/a	GoodResponse	0	n/a	n/a	8	46	Cue	AvoidedLoss	True
438.977	4.0	Lose2	0.6596	0.001	Yes	3.372	-0.001	n/a	GoodResponse	0	n/a	n/a	8	46	Fixation	AvoidedLoss	True
442.976	0.26	Lose2	0.6596	0.002	Yes	3.372	-0.002	2.0	GoodResponse	0	0.222	442.198	8	46	Target	AvoidedLoss	True
443.198	0.3	Lose2	0.6596	0.002	Yes	3.372	-0.002	2.0	GoodResponse	0	0.222	n/a	8	46	ButtonPress	AvoidedLoss	True
443.243	0.44	Lose2	0.6596	n/a	Yes	3.372	n/a	n/a	GoodResponse	0	n/a	n/a	8	46	Blank	AvoidedLoss	True
443.676	1.45	Lose2	0.6596	n/a	Yes	3.372	n/a	5.0	GoodResponse	0	0.005	442.681	8	46	Feedback	AvoidedLoss	True
445.125	3.372	Lose2	0.6596	n/a	Yes	3.372	n/a	n/a	GoodResponse	0	0.0	n/a	8	46	ISIslide	AvoidedLoss	True
448.524	0.25	Lose2	0.6667000000000001	0.0	Yes	2.676	0.024	n/a	GoodResponse	0	n/a	n/a	8	47	Cue	AvoidedLoss	True
448.774	4.0	Lose2	0.6667000000000001	0.0	Yes	2.676	0.0	n/a	GoodResponse	0	n/a	n/a	8	47	Fixation	AvoidedLoss	True
452.773	0.26	Lose2	0.6667000000000001	0.001	Yes	2.676	-0.001	2.0	GoodResponse	0	0.214	451.987	8	47	Target	AvoidedLoss	True
452.987	0.3	Lose2	0.6667000000000001	0.001	Yes	2.676	-0.001	2.0	GoodResponse	0	0.214	n/a	8	47	ButtonPress	AvoidedLoss	True
453.039	0.44	Lose2	0.6667000000000001	n/a	Yes	2.676	n/a	n/a	GoodResponse	0	n/a	n/a	8	47	Blank	AvoidedLoss	True
453.472	1.45	Lose2	0.6667000000000001	n/a	Yes	2.676	n/a	5.0	GoodResponse	0	0.012	452.484	8	47	Feedback	AvoidedLoss	True
454.922	2.676	Lose2	0.6667000000000001	n/a	Yes	2.676	n/a	n/a	GoodResponse	0	0.0	n/a	8	47	ISIslide	AvoidedLoss	True
457.621	0.25	Lose2	0.6531	0.0	No	3.029	0.021	n/a	NoResponse	-1	n/a	n/a	7	48	Cue	Loss	True
457.871	3.95	Lose2	0.6531	0.0	No	3.029	0.0	n/a	NoResponse	-1	n/a	n/a	7	48	Fixation	Loss	True
461.819	0.25	Lose2	0.6531	0.002	No	3.029	-0.002	2.0	NoResponse	-1	0.425	461.244	7	48	Target	Loss	True
462.069	0.45	Lose2	0.6531	n/a	No	3.029	n/a	n/a	NoResponse	-1	n/a	n/a	7	48	Blank	Loss	True
462.244	0.3	Lose2	0.6531	0.002	No	3.029	-0.002	2.0	NoResponse	-1	0.425	n/a	7	48	ButtonPress	Loss	True
462.519	1.45	Lose2	0.6531	n/a	No	3.029	n/a	5.0	NoResponse	-1	0.037	461.556	7	48	Feedback	Loss	True
463.969	3.029	Lose2	0.6531	n/a	No	3.029	n/a	n/a	NoResponse	-1	0.0	n/a	7	48	ISIslide	Loss	True
467.017	0.25	Control	0.66	0.001	Yes	2.883	0.017	n/a	GoodResponse	0	n/a	n/a	7	49	Cue	Neutral	True
467.267	4.0	Control	0.66	0.0	Yes	2.883	0.0	n/a	GoodResponse	0	n/a	n/a	7	49	Fixation	Neutral	True
471.266	0.26	Control	0.66	0.001	Yes	2.883	-0.001	2.0	GoodResponse	0	0.234	470.5	7	49	Target	Neutral	True
471.5	0.3	Control	0.66	0.001	Yes	2.883	-0.001	2.0	GoodResponse	0	0.234	n/a	7	49	ButtonPress	Neutral	True
471.533	0.44	Control	0.66	n/a	Yes	2.883	n/a	n/a	GoodResponse	0	n/a	n/a	7	49	Blank	Neutral	True
471.966	1.45	Control	0.66	n/a	Yes	2.883	n/a	5.0	GoodResponse	0	0.005	470.971	7	49	Feedback	Neutral	True
473.415	2.883	Control	0.66	n/a	Yes	2.883	n/a	n/a	GoodResponse	0	0.0	n/a	7	49	ISIslide	Neutral	True
476.314	0.25	Control	0.6470999999999999	0.0	No	2.786	0.014	n/a	LatePress	0	n/a	n/a	7	50	Cue	Neutral	True
476.564	4.0	Control	0.6470999999999999	0.0	No	2.786	0.0	n/a	LatePress	0	n/a	n/a	7	50	Fixation	Neutral	True
480.563	0.26	Control	0.6470999999999999	0.001	No	2.786	-0.001	2.0	LatePress	0	0.26	479.823	7	50	Target	Neutral	True
480.823	0.3	Control	0.6470999999999999	0.001	No	2.786	-0.001	2.0	LatePress	0	0.26	n/a	7	50	ButtonPress	Neutral	True
480.829	0.44	Control	0.6470999999999999	n/a	No	2.786	n/a	n/a	LatePress	0	n/a	n/a	7	50	Blank	Neutral	True
481.262	1.45	Control	0.6470999999999999	n/a	No	2.786	n/a	5.0	LatePress	0	0.026	480.288	7	50	Feedback	Neutral	True
482.712	2.786	Control	0.6470999999999999	n/a	No	2.786	n/a	n/a	LatePress	0	0.0	n/a	7	50	ISIslide	Neutral	True
485.528	0.25	Control	0.6537999999999999	0.0	Yes	2.722	0.028	n/a	GoodResponse	0	n/a	n/a	7	51	Cue	Neutral	True
485.777	3.95	Control	0.6537999999999999	0.001	Yes	2.722	-0.001	n/a	GoodResponse	0	n/a	n/a	7	51	Fixation	Neutral	True
489.726	0.27	Control	0.6537999999999999	0.002	Yes	2.722	-0.002	2.0	GoodResponse	0	0.225	488.951	7	51	Target	Neutral	True
489.951	0.3	Control	0.6537999999999999	0.002	Yes	2.722	-0.002	2.0	GoodResponse	0	0.225	n/a	7	51	ButtonPress	Neutral	True
490.009	0.43	Control	0.6537999999999999	n/a	Yes	2.722	n/a	n/a	GoodResponse	0	n/a	n/a	7	51	Blank	Neutral	True
490.426	1.45	Control	0.6537999999999999	n/a	Yes	2.722	n/a	5.0	GoodResponse	0	0.033	489.459	7	51	Feedback	Neutral	True
491.875	2.722	Control	0.6537999999999999	n/a	Yes	2.722	n/a	n/a	GoodResponse	0	0.0	n/a	7	51	ISIslide	Neutral	True
494.624	0.25	Control	0.6604000000000001	0.0	Yes	2.626	0.024	n/a	GoodResponse	0	n/a	n/a	7	52	Cue	Neutral	True
494.874	4.05	Control	0.6604000000000001	0.0	Yes	2.626	0.0	n/a	GoodResponse	0	n/a	n/a	7	52	Fixation	Neutral	True
498.923	0.28	Control	0.6604000000000001	0.001	Yes	2.626	-0.001	2.0	GoodResponse	0	0.201	498.124	7	52	Target	Neutral	True
499.124	0.3	Control	0.6604000000000001	0.001	Yes	2.626	-0.001	2.0	GoodResponse	0	0.201	n/a	7	52	ButtonPress	Neutral	True
499.206	0.42	Control	0.6604000000000001	n/a	Yes	2.626	n/a	n/a	GoodResponse	0	n/a	n/a	7	52	Blank	Neutral	True
499.623	1.45	Control	0.6604000000000001	n/a	Yes	2.626	n/a	5.0	GoodResponse	0	0.006	498.629	7	52	Feedback	Neutral	True
501.072	2.626	Control	0.6604000000000001	n/a	Yes	2.626	n/a	n/a	GoodResponse	0	0.0	n/a	7	52	ISIslide	Neutral	True
503.721	0.25	Win2	0.6667000000000001	0.0	Yes	2.929	0.021	n/a	GoodResponse	1	n/a	n/a	8	53	Cue	Win	False
503.971	4.05	Win2	0.6667000000000001	0.0	Yes	2.929	0.0	2.0	GoodResponse	1	0.058	503.029	8	53	Fixation	Win	False
504.029	0.3	Win2	0.6667000000000001	0.0	Yes	2.929	0.0	2.0	GoodResponse	1	0.058	n/a	8	53	ButtonPress	Win	False
508.02	0.28	Win2	0.6667000000000001	0.001	Yes	2.929	-0.001	2.0	GoodResponse	1	0.231	507.251	8	53	Target	Win	False
508.251	0.3	Win2	0.6667000000000001	0.001	Yes	2.929	-0.001	2.0	GoodResponse	1	0.231	n/a	8	53	ButtonPress	Win	False
508.303	0.42	Win2	0.6667000000000001	n/a	Yes	2.929	n/a	n/a	GoodResponse	1	n/a	n/a	8	53	Blank	Win	False
508.719	1.45	Win2	0.6667000000000001	n/a	Yes	2.929	n/a	5.0	GoodResponse	1	0.032	507.751	8	53	Feedback	Win	False
510.169	2.929	Win2	0.6667000000000001	n/a	Yes	2.929	n/a	n/a	GoodResponse	1	0.0	n/a	8	53	ISIslide	Win	False
513.118	0.25	Win2	0.6545000000000001	0.0	No	2.732	0.018	n/a	NoResponse	0	n/a	n/a	8	54	Cue	MissedWin	True
513.368	3.95	Win2	0.6545000000000001	0.0	No	2.732	0.0	n/a	NoResponse	0	n/a	n/a	8	54	Fixation	MissedWin	True
517.316	0.27	Win2	0.6545000000000001	0.002	No	2.732	-0.002	2.0	NoResponse	0	0.344	516.66	8	54	Target	MissedWin	True
517.599	0.43	Win2	0.6545000000000001	n/a	No	2.732	n/a	n/a	NoResponse	0	n/a	n/a	8	54	Blank	MissedWin	True
517.66	0.3	Win2	0.6545000000000001	0.002	No	2.732	-0.002	2.0	NoResponse	0	0.344	n/a	8	54	ButtonPress	MissedWin	True
518.016	1.45	Win2	0.6545000000000001	n/a	No	2.732	n/a	5.0	NoResponse	0	0.004	517.02	8	54	Feedback	MissedWin	True
519.465	2.732	Win2	0.6545000000000001	n/a	No	2.732	n/a	n/a	NoResponse	0	0.0	n/a	8	54	ISIslide	MissedWin	True
522.214	0.25	Control	0.6607	0.001	Yes	3.036	0.014	n/a	GoodResponse	0	n/a	n/a	8	55	Cue	Neutral	True
522.464	3.95	Control	0.6607	0.0	Yes	3.036	0.0	n/a	GoodResponse	0	n/a	n/a	8	55	Fixation	Neutral	True
526.413	0.28	Control	0.6607	0.001	Yes	3.036	-0.001	2.0	GoodResponse	0	0.246	525.659	8	55	Target	Neutral	True
526.659	0.3	Control	0.6607	0.001	Yes	3.036	-0.001	2.0	GoodResponse	0	0.246	n/a	8	55	ButtonPress	Neutral	True
526.696	0.42	Control	0.6607	n/a	Yes	3.036	n/a	n/a	GoodResponse	0	n/a	n/a	8	55	Blank	Neutral	True
527.113	1.45	Control	0.6607	n/a	Yes	3.036	n/a	5.0	GoodResponse	0	0.029	526.142	8	55	Feedback	Neutral	True
528.562	3.036	Control	0.6607	n/a	Yes	3.036	n/a	n/a	GoodResponse	0	0.0	n/a	8	55	ISIslide	Neutral	True
531.611	0.25	Control	0.6491	0.0	No	2.839	0.011	n/a	NoResponse	0	n/a	n/a	8	56	Cue	Neutral	True
531.861	3.95	Control	0.6491	0.0	No	2.839	0.0	n/a	NoResponse	0	n/a	n/a	8	56	Fixation	Neutral	True
535.81	0.28	Control	0.6491	0.001	No	2.839	-0.001	2.0	NoResponse	0	0.288	535.098	8	56	Target	Neutral	True
536.093	0.42	Control	0.6491	n/a	No	2.839	n/a	n/a	NoResponse	0	n/a	n/a	8	56	Blank	Neutral	True
536.098	0.3	Control	0.6491	0.001	No	2.839	-0.001	2.0	NoResponse	0	0.288	n/a	8	56	ButtonPress	Neutral	True
536.509	1.45	Control	0.6491	n/a	No	2.839	n/a	5.0	NoResponse	0	0.046	535.555	8	56	Feedback	Neutral	True
537.959	2.839	Control	0.6491	n/a	No	2.839	n/a	n/a	NoResponse	0	0.0	n/a	8	56	ISIslide	Neutral	True
540.825	0.25	Control	0.6552	0.0	Yes	3.475	0.025	n/a	GoodResponse	0	n/a	n/a	8	57	Cue	Neutral	True
541.074	4.0	Control	0.6552	0.001	Yes	3.475	-0.001	n/a	GoodResponse	0	n/a	n/a	8	57	Fixation	Neutral	True
545.073	0.29	Control	0.6552	0.002	Yes	3.475	-0.002	2.0	GoodResponse	0	0.227	544.3	8	57	Target	Neutral	True
545.3	0.3	Control	0.6552	0.002	Yes	3.475	-0.002	2.0	GoodResponse	0	0.227	n/a	8	57	ButtonPress	Neutral	True
545.373	0.41	Control	0.6552	n/a	Yes	3.475	n/a	n/a	GoodResponse	0	n/a	n/a	8	57	Blank	Neutral	True
545.773	1.45	Control	0.6552	n/a	Yes	3.475	n/a	5.0	GoodResponse	0	0.002	544.775	8	57	Feedback	Neutral	True
547.222	3.475	Control	0.6552	n/a	Yes	3.475	n/a	n/a	GoodResponse	0	0.0	n/a	8	57	ISIslide	Neutral	True
550.721	0.25	Win2	0.6609999999999999	0.0	Yes	2.729	0.021	n/a	GoodResponse	1	n/a	n/a	9	58	Cue	Win	True
550.971	4.05	Win2	0.6609999999999999	0.0	Yes	2.729	0.0	n/a	GoodResponse	1	n/a	n/a	9	58	Fixation	Win	True
555.019	0.29	Win2	0.6609999999999999	0.002	Yes	2.729	-0.002	2.0	GoodResponse	1	0.214	554.233	9	58	Target	Win	True
555.233	0.3	Win2	0.6609999999999999	0.002	Yes	2.729	-0.002	2.0	GoodResponse	1	0.214	n/a	9	58	ButtonPress	Win	True
555.319	0.41	Win2	0.6609999999999999	n/a	Yes	2.729	n/a	n/a	GoodResponse	1	n/a	n/a	9	58	Blank	Win	True
555.719	1.45	Win2	0.6609999999999999	n/a	Yes	2.729	n/a	5.0	GoodResponse	1	0.007	554.726	9	58	Feedback	Win	True
557.169	2.729	Win2	0.6609999999999999	n/a	Yes	2.729	n/a	n/a	GoodResponse	1	0.0	n/a	9	58	ISIslide	Win	True
559.918	0.25	Lose2	0.6667000000000001	0.0	Yes	2.682	0.018	n/a	GoodResponse	0	n/a	n/a	9	59	Cue	AvoidedLoss	True
560.168	4.0	Lose2	0.6667000000000001	0.0	Yes	2.682	0.0	n/a	GoodResponse	0	n/a	n/a	9	59	Fixation	AvoidedLoss	True
564.166	0.29	Lose2	0.6667000000000001	0.002	Yes	2.682	-0.002	2.0	GoodResponse	0	0.255	563.421	9	59	Target	AvoidedLoss	True
564.421	0.3	Lose2	0.6667000000000001	0.002	Yes	2.682	-0.002	2.0	GoodResponse	0	0.255	n/a	9	59	ButtonPress	AvoidedLoss	True
564.466	0.41	Lose2	0.6667000000000001	n/a	Yes	2.682	n/a	n/a	GoodResponse	0	n/a	n/a	9	59	Blank	AvoidedLoss	True
564.866	1.45	Lose2	0.6667000000000001	n/a	Yes	2.682	n/a	5.0	GoodResponse	0	0.031	563.897	9	59	Feedback	AvoidedLoss	True
566.315	2.682	Lose2	0.6667000000000001	n/a	Yes	2.682	n/a	n/a	GoodResponse	0	0.0	n/a	9	59	ISIslide	AvoidedLoss	True
569.014	0.25	Control	0.6720999999999999	0.001	Yes	2.686	0.014	n/a	GoodResponse	0	n/a	n/a	9	60	Cue	Neutral	True
569.264	4.0	Control	0.6720999999999999	0.001	Yes	2.686	0.0	n/a	GoodResponse	0	n/a	n/a	9	60	Fixation	Neutral	True
573.263	0.28	Control	0.6720999999999999	0.001	Yes	2.686	-0.001	2.0	GoodResponse	0	0.232	572.495	9	60	Target	Neutral	True
573.495	0.3	Control	0.6720999999999999	0.001	Yes	2.686	-0.001	2.0	GoodResponse	0	0.232	n/a	9	60	ButtonPress	Neutral	True
573.546	0.42	Control	0.6720999999999999	n/a	Yes	2.686	n/a	n/a	GoodResponse	0	n/a	n/a	9	60	Blank	Neutral	True
573.963	1.45	Control	0.6720999999999999	n/a	Yes	2.686	n/a	5.0	GoodResponse	0	0.007	572.97	9	60	Feedback	Neutral	True
575.412	2.686	Control	0.6720999999999999	n/a	Yes	2.686	n/a	n/a	GoodResponse	0	0.0	n/a	9	60	ISIslide	Neutral	True
578.111	0.25	Lose2	0.6774	0.0	Yes	2.989	0.011	n/a	GoodResponse	0	n/a	n/a	9	61	Cue	AvoidedLoss	True
578.361	4.0	Lose2	0.6774	0.0	Yes	2.989	0.0	n/a	GoodResponse	0	n/a	n/a	9	61	Fixation	AvoidedLoss	True
582.36	0.27	Lose2	0.6774	0.001	Yes	2.989	-0.001	2.0	GoodResponse	0	0.221	581.581	9	61	Target	AvoidedLoss	True
582.581	0.3	Lose2	0.6774	0.001	Yes	2.989	-0.001	2.0	GoodResponse	0	0.221	n/a	9	61	ButtonPress	AvoidedLoss	True
582.626	0.43	Lose2	0.6774	n/a	Yes	2.989	n/a	n/a	GoodResponse	0	n/a	n/a	9	61	Blank	AvoidedLoss	True
583.06	1.45	Lose2	0.6774	n/a	Yes	2.989	n/a	5.0	GoodResponse	0	0.032	582.092	9	61	Feedback	AvoidedLoss	True
584.509	2.989	Lose2	0.6774	n/a	Yes	2.989	n/a	n/a	GoodResponse	0	0.0	n/a	9	61	ISIslide	AvoidedLoss	True
587.525	0.25	Lose2	0.6667000000000001	0.0	No	2.875	0.025	n/a	NoResponse	-1	n/a	n/a	8	62	Cue	Loss	True
587.774	3.9	Lose2	0.6667000000000001	0.001	No	2.875	-0.001	n/a	NoResponse	-1	n/a	n/a	8	62	Fixation	Loss	True
591.673	0.26	Lose2	0.6667000000000001	0.002	No	2.875	-0.002	2.0	NoResponse	-1	0.444	591.117	8	62	Target	Loss	True
591.94	0.44	Lose2	0.6667000000000001	n/a	No	2.875	n/a	n/a	NoResponse	-1	n/a	n/a	8	62	Blank	Loss	True
592.117	0.3	Lose2	0.6667000000000001	0.002	No	2.875	-0.002	2.0	NoResponse	-1	0.444	n/a	8	62	ButtonPress	Loss	True
592.373	1.45	Lose2	0.6667000000000001	n/a	No	2.875	n/a	5.0	NoResponse	-1	0.036	591.409	8	62	Feedback	Loss	True
593.822	2.875	Lose2	0.6667000000000001	n/a	No	2.875	n/a	n/a	NoResponse	-1	0.0	n/a	8	62	ISIslide	Loss	True
596.721	0.25	Lose2	0.6718999999999999	0.0	Yes	2.629	0.021	n/a	GoodResponse	0	n/a	n/a	8	63	Cue	AvoidedLoss	True
596.971	4.05	Lose2	0.6718999999999999	0.0	Yes	2.629	0.0	n/a	GoodResponse	0	n/a	n/a	8	63	Fixation	AvoidedLoss	True
601.02	0.25	Lose2	0.6718999999999999	0.001	Yes	2.629	-0.001	2.0	GoodResponse	0	0.226	600.246	8	63	Target	AvoidedLoss	True
601.246	0.3	Lose2	0.6718999999999999	0.001	Yes	2.629	-0.001	2.0	GoodResponse	0	0.226	n/a	8	63	ButtonPress	AvoidedLoss	True
601.27	0.45	Lose2	0.6718999999999999	n/a	Yes	2.629	n/a	n/a	GoodResponse	0	n/a	n/a	8	63	Blank	AvoidedLoss	True
601.72	1.45	Lose2	0.6718999999999999	n/a	Yes	2.629	n/a	5.0	GoodResponse	0	0.006	600.726	8	63	Feedback	AvoidedLoss	True
603.169	2.629	Lose2	0.6718999999999999	n/a	Yes	2.629	n/a	n/a	GoodResponse	0	0.0	n/a	8	63	ISIslide	AvoidedLoss	True
605.818	0.25	Win2	0.6615000000000001	0.0	No	3.132	0.018	n/a	NoResponse	0	n/a	n/a	8	64	Cue	MissedWin	True
606.068	4.15	Win2	0.6615000000000001	0.0	No	3.132	0.0	n/a	NoResponse	0	n/a	n/a	8	64	Fixation	MissedWin	True
610.217	0.24	Win2	0.6615000000000001	0.001	No	3.132	-0.001	2.0	NoResponse	0	0.255	609.472	8	64	Target	MissedWin	True
610.466	0.46	Win2	0.6615000000000001	n/a	No	3.132	n/a	n/a	NoResponse	0	n/a	n/a	8	64	Blank	MissedWin	True
610.472	0.3	Win2	0.6615000000000001	0.001	No	3.132	-0.001	2.0	NoResponse	0	0.255	n/a	8	64	ButtonPress	MissedWin	True
610.916	1.45	Win2	0.6615000000000001	n/a	No	3.132	n/a	5.0	NoResponse	0	0.029	609.945	8	64	Feedback	MissedWin	True
612.366	3.132	Win2	0.6615000000000001	n/a	No	3.132	n/a	n/a	NoResponse	0	0.0	n/a	8	64	ISIslide	MissedWin	True
615.515	0.25	Control	0.6667000000000001	0.0	Yes	2.785	0.015	n/a	GoodResponse	0	n/a	n/a	8	65	Cue	Neutral	True
615.765	4.0	Control	0.6667000000000001	0.0	Yes	2.785	0.0	n/a	GoodResponse	0	n/a	n/a	8	65	Fixation	Neutral	True
619.763	0.24	Control	0.6667000000000001	0.002	Yes	2.785	-0.002	2.0	GoodResponse	0	0.228	618.991	8	65	Target	Neutral	True
619.991	0.3	Control	0.6667000000000001	0.002	Yes	2.785	-0.002	2.0	GoodResponse	0	0.228	n/a	8	65	ButtonPress	Neutral	True
620.013	0.46	Control	0.6667000000000001	n/a	Yes	2.785	n/a	n/a	GoodResponse	0	n/a	n/a	8	65	Blank	Neutral	True
620.463	1.45	Control	0.6667000000000001	n/a	Yes	2.785	n/a	5.0	GoodResponse	0	0.043	619.506	8	65	Feedback	Neutral	True
621.912	2.785	Control	0.6667000000000001	n/a	Yes	2.785	n/a	n/a	GoodResponse	0	0.0	n/a	8	65	ISIslide	Neutral	True
624.711	0.25	Win2	0.6567000000000001	0.0	No	2.789	0.011	n/a	NoResponse	0	n/a	n/a	8	66	Cue	MissedWin	True
624.961	3.9	Win2	0.6567000000000001	0.0	No	2.789	0.0	n/a	NoResponse	0	n/a	n/a	8	66	Fixation	MissedWin	True
628.86	0.23	Win2	0.6567000000000001	0.001	No	2.789	-0.001	2.0	NoResponse	0	0.256	628.116	8	66	Target	MissedWin	True
629.093	0.47	Win2	0.6567000000000001	n/a	No	2.789	n/a	n/a	NoResponse	0	n/a	n/a	8	66	Blank	MissedWin	True
629.116	0.3	Win2	0.6567000000000001	0.001	No	2.789	-0.001	2.0	NoResponse	0	0.256	n/a	8	66	ButtonPress	MissedWin	True
629.56	1.45	Win2	0.6567000000000001	n/a	No	2.789	n/a	5.0	NoResponse	0	0.019	628.579	8	66	Feedback	MissedWin	True
631.009	2.789	Win2	0.6567000000000001	n/a	No	2.789	n/a	n/a	NoResponse	0	0.0	n/a	8	66	ISIslide	MissedWin	True
633.825	0.25	Control	0.6470999999999999	0.0	No	2.725	0.025	n/a	NoResponse	0	n/a	n/a	8	67	Cue	Neutral	False
634.075	3.95	Control	0.6470999999999999	0.0	No	2.725	0.0	2.0	NoResponse	0	0.365	633.44	8	67	Fixation	Neutral	False
634.44	0.3	Control	0.6470999999999999	0.0	No	2.725	0.0	2.0	NoResponse	0	0.365	n/a	8	67	ButtonPress	Neutral	False
638.023	0.23	Control	0.6470999999999999	0.002	No	2.725	-0.002	2.0	NoResponse	0	0.241	637.264	8	67	Target	Neutral	False
638.257	0.47	Control	0.6470999999999999	n/a	No	2.725	n/a	n/a	NoResponse	0	n/a	n/a	8	67	Blank	Neutral	False
638.264	0.3	Control	0.6470999999999999	0.002	No	2.725	-0.002	2.0	NoResponse	0	0.241	n/a	8	67	ButtonPress	Neutral	False
638.723	1.45	Control	0.6470999999999999	n/a	No	2.725	n/a	5.0	NoResponse	0	0.027	637.75	8	67	Feedback	Neutral	False
640.173	2.725	Control	0.6470999999999999	n/a	No	2.725	n/a	n/a	NoResponse	0	0.0	n/a	8	67	ISIslide	Neutral	False
642.922	0.25	Win2	0.6377	0.0	No	3.078	0.022	n/a	LatePress	0	n/a	n/a	8	68	Cue	MissedWin	True
643.171	4.0	Win2	0.6377	0.001	No	3.078	-0.001	n/a	LatePress	0	n/a	n/a	8	68	Fixation	MissedWin	True
647.17	0.24	Win2	0.6377	0.002	No	3.078	-0.002	2.0	LatePress	0	0.247	646.417	8	68	Target	MissedWin	True
647.417	0.3	Win2	0.6377	0.002	No	3.078	-0.002	2.0	LatePress	0	0.247	n/a	8	68	ButtonPress	MissedWin	True
647.42	0.46	Win2	0.6377	n/a	No	3.078	n/a	n/a	LatePress	0	n/a	n/a	8	68	Blank	MissedWin	True
647.87	1.45	Win2	0.6377	n/a	No	3.078	n/a	5.0	LatePress	0	0.001	646.871	8	68	Feedback	MissedWin	True
649.319	3.078	Win2	0.6377	n/a	No	3.078	n/a	n/a	LatePress	0	0.0	n/a	8	68	ISIslide	MissedWin	True
652.418	0.25	Win2	0.6286	0.0	No	3.232	0.018	n/a	NoResponse	0	n/a	n/a	8	69	Cue	MissedWin	True
652.668	3.95	Win2	0.6286	0.0	No	3.232	0.0	n/a	NoResponse	0	n/a	n/a	8	69	Fixation	MissedWin	True
656.617	0.25	Win2	0.6286	0.001	No	3.232	-0.001	2.0	NoResponse	0	0.294	655.911	8	69	Target	MissedWin	True
656.867	0.45	Win2	0.6286	n/a	No	3.232	n/a	n/a	NoResponse	0	n/a	n/a	8	69	Blank	MissedWin	True
656.911	0.3	Win2	0.6286	0.001	No	3.232	-0.001	2.0	NoResponse	0	0.294	n/a	8	69	ButtonPress	MissedWin	True
657.316	1.45	Win2	0.6286	n/a	No	3.232	n/a	5.0	NoResponse	0	0.019	656.335	8	69	Feedback	MissedWin	True
658.766	3.232	Win2	0.6286	n/a	No	3.232	n/a	n/a	NoResponse	0	0.0	n/a	8	69	ISIslide	MissedWin	True
662.015	0.25	Lose2	0.6338	0.0	Yes	3.035	0.015	n/a	GoodResponse	0	n/a	n/a	8	70	Cue	AvoidedLoss	True
662.265	4.05	Lose2	0.6338	0.0	Yes	3.035	0.0	n/a	GoodResponse	0	n/a	n/a	8	70	Fixation	AvoidedLoss	True
666.313	0.26	Lose2	0.6338	0.002	Yes	3.035	-0.002	2.0	GoodResponse	0	0.218	665.531	8	70	Target	AvoidedLoss	True
666.531	0.3	Lose2	0.6338	0.002	Yes	3.035	-0.002	2.0	GoodResponse	0	0.218	n/a	8	70	ButtonPress	AvoidedLoss	True
666.58	0.44	Lose2	0.6338	n/a	Yes	3.035	n/a	n/a	GoodResponse	0	n/a	n/a	8	70	Blank	AvoidedLoss	True
667.013	1.45	Lose2	0.6338	n/a	Yes	3.035	n/a	5.0	GoodResponse	0	0.029	666.042	8	70	Feedback	AvoidedLoss	True
668.462	3.035	Lose2	0.6338	n/a	Yes	3.035	n/a	n/a	GoodResponse	0	0.0	n/a	8	70	ISIslide	AvoidedLoss	True
671.511	0.25	Win2	0.6389	0.0	Yes	2.739	0.011	n/a	GoodResponse	1	n/a	n/a	9	71	Cue	Win	True
671.761	4.05	Win2	0.6389	0.0	Yes	2.739	0.0	n/a	GoodResponse	1	n/a	n/a	9	71	Fixation	Win	True
675.81	0.27	Win2	0.6389	0.001	Yes	2.739	-0.001	2.0	GoodResponse	1	0.266	675.076	9	71	Target	Win	True
676.076	0.43	Win2	0.6389	n/a	Yes	2.739	n/a	n/a	GoodResponse	1	n/a	n/a	9	71	Blank	Win	True
676.076	0.3	Win2	0.6389	0.001	Yes	2.739	-0.001	2.0	GoodResponse	1	0.266	n/a	9	71	ButtonPress	Win	True
676.51	1.45	Win2	0.6389	n/a	Yes	2.739	n/a	5.0	GoodResponse	1	0.044	675.554	9	71	Feedback	Win	True
677.959	2.739	Win2	0.6389	n/a	Yes	2.739	n/a	n/a	GoodResponse	1	0.0	n/a	9	71	ISIslide	Win	True
680.725	0.25	Win2	0.6437999999999999	0.0	Yes	2.775	0.025	n/a	GoodResponse	1	n/a	n/a	10	72	Cue	Win	True
680.975	4.1	Win2	0.6437999999999999	0.0	Yes	2.775	0.0	n/a	GoodResponse	1	n/a	n/a	10	72	Fixation	Win	True
685.073	0.28	Win2	0.6437999999999999	0.002	Yes	2.775	-0.002	2.0	GoodResponse	1	0.213	684.286	10	72	Target	Win	True
685.286	0.3	Win2	0.6437999999999999	0.002	Yes	2.775	-0.002	2.0	GoodResponse	1	0.213	n/a	10	72	ButtonPress	Win	True
685.356	0.42	Win2	0.6437999999999999	n/a	Yes	2.775	n/a	n/a	GoodResponse	1	n/a	n/a	10	72	Blank	Win	True
685.773	1.45	Win2	0.6437999999999999	n/a	Yes	2.775	n/a	5.0	GoodResponse	1	0.0	684.773	10	72	Feedback	Win	True
687.222	2.775	Win2	0.6437999999999999	n/a	Yes	2.775	n/a	n/a	GoodResponse	1	0.0	n/a	10	72	ISIslide	Win	True
690.021	0.25	Win2	0.6351	0.001	No	2.679	0.021	n/a	NoResponse	0	n/a	n/a	10	73	Cue	MissedWin	True
690.271	4.0	Win2	0.6351	0.0	No	2.679	0.0	n/a	NoResponse	0	n/a	n/a	10	73	Fixation	MissedWin	True
694.27	0.29	Win2	0.6351	0.001	No	2.679	-0.001	2.0	NoResponse	0	0.365	693.635	10	73	Target	MissedWin	True
694.57	0.41	Win2	0.6351	n/a	No	2.679	n/a	n/a	NoResponse	0	n/a	n/a	10	73	Blank	MissedWin	True
694.635	0.3	Win2	0.6351	0.001	No	2.679	-0.001	2.0	NoResponse	0	0.365	n/a	10	73	ButtonPress	MissedWin	True
694.97	1.45	Win2	0.6351	n/a	No	2.679	n/a	5.0	NoResponse	0	0.023	693.993	10	73	Feedback	MissedWin	True
696.419	2.679	Win2	0.6351	n/a	No	2.679	n/a	n/a	NoResponse	0	0.0	n/a	10	73	ISIslide	MissedWin	True
699.118	0.25	Lose2	0.64	0.0	Yes	2.632	0.018	n/a	GoodResponse	0	n/a	n/a	10	74	Cue	AvoidedLoss	True
699.368	4.05	Lose2	0.64	0.0	Yes	2.632	0.0	n/a	GoodResponse	0	n/a	n/a	10	74	Fixation	AvoidedLoss	True
703.417	0.3	Lose2	0.64	0.001	Yes	2.632	-0.001	2.0	GoodResponse	0	0.271	702.688	10	74	Target	AvoidedLoss	True
703.688	0.3	Lose2	0.64	0.001	Yes	2.632	-0.001	2.0	GoodResponse	0	0.271	n/a	10	74	ButtonPress	AvoidedLoss	True
703.717	0.4	Lose2	0.64	n/a	Yes	2.632	n/a	n/a	GoodResponse	0	n/a	n/a	10	74	Blank	AvoidedLoss	True
704.116	1.45	Lose2	0.64	n/a	Yes	2.632	n/a	5.0	GoodResponse	0	0.047	703.163	10	74	Feedback	AvoidedLoss	True
705.566	2.632	Lose2	0.64	n/a	Yes	2.632	n/a	n/a	GoodResponse	0	0.0	n/a	10	74	ISIslide	AvoidedLoss	True
708.215	0.25	Lose2	0.6446999999999999	0.0	Yes	2.935	0.015	n/a	GoodResponse	0	n/a	n/a	10	75	Cue	AvoidedLoss	True
708.465	3.95	Lose2	0.6446999999999999	0.0	Yes	2.935	0.0	n/a	GoodResponse	0	n/a	n/a	10	75	Fixation	AvoidedLoss	True
712.413	0.31	Lose2	0.6446999999999999	0.002	Yes	2.935	-0.002	2.0	GoodResponse	0	0.217	711.63	10	75	Target	AvoidedLoss	True
712.63	0.3	Lose2	0.6446999999999999	0.002	Yes	2.935	-0.002	2.0	GoodResponse	0	0.217	n/a	10	75	ButtonPress	AvoidedLoss	True
712.73	0.39	Lose2	0.6446999999999999	n/a	Yes	2.935	n/a	n/a	GoodResponse	0	n/a	n/a	10	75	Blank	AvoidedLoss	True
713.113	1.45	Lose2	0.6446999999999999	n/a	Yes	2.935	n/a	5.0	GoodResponse	0	0.026	712.139	10	75	Feedback	AvoidedLoss	True
714.563	2.935	Lose2	0.6446999999999999	n/a	Yes	2.935	n/a	n/a	GoodResponse	0	0.0	n/a	10	75	ISIslide	AvoidedLoss	True
717.528	0.25	Control	0.6494	0.0	Yes	3.222	0.028	n/a	GoodResponse	0	n/a	n/a	10	76	Cue	Neutral	True
717.778	4.05	Control	0.6494	0.0	Yes	3.222	0.0	n/a	GoodResponse	0	n/a	n/a	10	76	Fixation	Neutral	True
721.827	0.32	Control	0.6494	0.001	Yes	3.222	-0.001	2.0	GoodResponse	0	0.243	721.07	10	76	Target	Neutral	True
722.07	0.3	Control	0.6494	0.001	Yes	3.222	-0.001	2.0	GoodResponse	0	0.243	n/a	10	76	ButtonPress	Neutral	True
722.143	0.38	Control	0.6494	n/a	Yes	3.222	n/a	n/a	GoodResponse	0	n/a	n/a	10	76	Blank	Neutral	True
722.527	1.45	Control	0.6494	n/a	Yes	3.222	n/a	5.0	GoodResponse	0	0.026	721.553	10	76	Feedback	Neutral	True
723.976	3.222	Control	0.6494	n/a	Yes	3.222	n/a	n/a	GoodResponse	0	0.0	n/a	10	76	ISIslide	Neutral	True
727.225	0.25	Lose2	0.6537999999999999	0.0	Yes	2.575	0.025	n/a	GoodResponse	0	n/a	n/a	10	77	Cue	AvoidedLoss	True
727.475	3.95	Lose2	0.6537999999999999	0.0	Yes	2.575	0.0	n/a	GoodResponse	0	n/a	n/a	10	77	Fixation	AvoidedLoss	True
731.423	0.33	Lose2	0.6537999999999999	0.002	Yes	2.575	-0.002	2.0	GoodResponse	0	0.299	730.722	10	77	Target	AvoidedLoss	True
731.722	0.3	Lose2	0.6537999999999999	0.002	Yes	2.575	-0.002	2.0	GoodResponse	0	0.299	n/a	10	77	ButtonPress	AvoidedLoss	True
731.757	0.37	Lose2	0.6537999999999999	n/a	Yes	2.575	n/a	n/a	GoodResponse	0	n/a	n/a	10	77	Blank	AvoidedLoss	True
732.123	1.45	Lose2	0.6537999999999999	n/a	Yes	2.575	n/a	5.0	GoodResponse	0	0.04	731.163	10	77	Feedback	AvoidedLoss	True
733.573	2.575	Lose2	0.6537999999999999	n/a	Yes	2.575	n/a	n/a	GoodResponse	0	0.0	n/a	10	77	ISIslide	AvoidedLoss	True
