onset	duration	cue_type	current_mean_accuracy	duration_error	is_hit	isi_adjusted	onset_delay	response	response_type	reward	rt	rt_time	total_reward	trial_number	trial_phase	trial_type	one_press
11.098	0.25	Control	0.0	0.001	No	2.952	-0.002	n/a	NoResponse	0	n/a	n/a	0	0	Cue	Neutral	False
11.348	3.85	Control	0.0	0.0	No	2.952	0.0	n/a	NoResponse	0	n/a	n/a	0	0	Fixation	Neutral	False
15.197	0.4	Control	0.0	0.001	No	2.952	-0.001	n/a	NoResponse	0	n/a	n/a	0	0	Target	Neutral	False
15.597	0.3	Control	0.0	n/a	No	2.952	n/a	n/a	NoResponse	0	n/a	n/a	0	0	Blank	Neutral	False
15.897	1.45	Control	0.0	n/a	No	2.952	n/a	5.0	NoResponse	0	0.029	14.926	0	0	Feedback	Neutral	False
17.346	2.952	Control	0.0	n/a	No	2.952	n/a	n/a	NoResponse	0	0.0	n/a	0	0	ISIslide	Neutral	False
20.329	0.25	Lose2	0.5	0.0	Yes	2.771	0.029	n/a	GoodResponse	0	n/a	n/a	0	1	Cue	AvoidedLoss	False
20.578	4.0	Lose2	0.5	0.001	Yes	2.771	-0.001	2.0	GoodResponse	0	3.444	23.022	0	1	Fixation	AvoidedLoss	False
24.022	0.3	Lose2	0.5	0.001	Yes	2.771	-0.001	2.0	GoodResponse	0	3.444	n/a	0	1	ButtonPress	AvoidedLoss	False
24.577	0.41	Lose2	0.5	0.002	Yes	2.771	-0.002	2.0	GoodResponse	0	0.399	23.976	0	1	Target	AvoidedLoss	False
24.976	0.3	Lose2	0.5	0.002	Yes	2.771	-0.002	2.0	GoodResponse	0	0.399	n/a	0	1	ButtonPress	AvoidedLoss	False
24.994	0.29	Lose2	0.5	n/a	Yes	2.771	n/a	n/a	GoodResponse	0	n/a	n/a	0	1	Blank	AvoidedLoss	False
25.277	1.45	Lose2	0.5	n/a	Yes	2.771	n/a	5.0	GoodResponse	0	0.015	24.292	0	1	Feedback	AvoidedLoss	False
26.726	2.771	Lose2	0.5	n/a	Yes	2.771	n/a	n/a	GoodResponse	0	0.0	n/a	0	1	ISIslide	AvoidedLoss	False
29.525	0.25	Control	0.3333	0.0	No	2.575	0.025	n/a	NoResponse	0	n/a	n/a	0	2	Cue	Neutral	False
29.775	4.1	Control	0.3333	0.0	No	2.575	0.0	n/a	NoResponse	0	n/a	n/a	0	2	Fixation	Neutral	False
33.874	0.42	Control	0.3333	0.001	No	2.575	-0.001	n/a	NoResponse	0	n/a	n/a	0	2	Target	Neutral	False
34.29	0.28	Control	0.3333	n/a	No	2.575	n/a	n/a	NoResponse	0	n/a	n/a	0	2	Blank	Neutral	False
34.574	1.45	Control	0.3333	n/a	No	2.575	n/a	5.0	NoResponse	0	0.035	33.609	0	2	Feedback	Neutral	False
36.023	2.575	Control	0.3333	n/a	No	2.575	n/a	n/a	NoResponse	0	0.0	n/a	0	2	ISIslide	Neutral	False
38.622	0.25	Win2	0.5	0.0	Yes	2.828	0.022	n/a	GoodResponse	1	n/a	n/a	1	3	Cue	Win	True
38.872	3.95	Win2	0.5	0.0	Yes	2.828	0.0	n/a	GoodResponse	1	n/a	n/a	1	3	Fixation	Win	True
42.821	0.43	Win2	0.5	0.001	Yes	2.828	-0.001	2.0	GoodResponse	1	0.248	42.069	1	3	Target	Win	True
43.069	0.3	Win2	0.5	0.001	Yes	2.828	-0.001	2.0	GoodResponse	1	0.248	n/a	1	3	ButtonPress	Win	True
43.254	0.27	Win2	0.5	n/a	Yes	2.828	n/a	n/a	GoodResponse	1	n/a	n/a	1	3	Blank	Win	True
43.521	1.45	Win2	0.5	n/a	Yes	2.828	n/a	5.0	GoodResponse	1	0.015	42.536	1	3	Feedback	Win	True
44.97	2.828	Win2	0.5	n/a	Yes	2.828	n/a	n/a	GoodResponse	1	0.0	n/a	1	3	ISIslide	Win	True
47.819	0.25	Win2	0.6	0.0	Yes	3.281	0.019	n/a	GoodResponse	1	n/a	n/a	2	4	Cue	Win	True
48.069	4.0	Win2	0.6	0.0	Yes	3.281	0.0	n/a	GoodResponse	1	n/a	n/a	2	4	Fixation	Win	True
52.068	0.44	Win2	0.6	0.001	Yes	3.281	-0.001	2.0	GoodResponse	1	0.314	51.382	2	4	Target	Win	True
52.382	0.3	Win2	0.6	0.001	Yes	3.281	-0.001	2.0	GoodResponse	1	0.314	n/a	2	4	ButtonPress	Win	True
52.517	0.26	Win2	0.6	n/a	Yes	3.281	n/a	n/a	GoodResponse	1	n/a	n/a	2	4	Blank	Win	True
52.767	1.45	Win2	0.6	n/a	Yes	3.281	n/a	5.0	GoodResponse	1	0.037	51.804	2	4	Feedback	Win	True
54.217	3.281	Win2	0.6	n/a	Yes	3.281	n/a	n/a	GoodResponse	1	0.0	n/a	2	4	ISIslide	Win	True
57.516	0.25	Win2	0.6667000000000001	0.0	Yes	2.784	0.016	n/a	GoodResponse	1	n/a	n/a	3	5	Cue	Win	True
57.766	4.0	Win2	0.6667000000000001	0.0	Yes	2.784	0.0	n/a	GoodResponse	1	n/a	n/a	3	5	Fixation	Win	True
61.764	0.45	Win2	0.6667000000000001	0.002	Yes	2.784	-0.002	2.0	GoodResponse	1	0.271	61.035	3	5	Target	Win	True
62.035	0.3	Win2	0.6667000000000001	0.002	Yes	2.784	-0.002	2.0	GoodResponse	1	0.271	n/a	3	5	ButtonPress	Win	True
62.214	0.25	Win2	0.6667000000000001	n/a	Yes	2.784	n/a	n/a	GoodResponse	1	n/a	n/a	3	5	Blank	Win	True
62.464	1.45	Win2	0.6667000000000001	n/a	Yes	2.784	n/a	5.0	GoodResponse	1	0.047	61.511	3	5	Feedback	Win	True
63.913	2.784	Win2	0.6667000000000001	n/a	Yes	2.784	n/a	n/a	GoodResponse	1	0.0	n/a	3	5	ISIslide	Win	True
66.713	0.25	Lose2	0.7143	0.0	Yes	2.737	0.013	n/a	GoodResponse	0	n/a	n/a	3	6	Cue	AvoidedLoss	True
66.962	3.95	Lose2	0.7143	0.001	Yes	2.737	-0.001	n/a	GoodResponse	0	n/a	n/a	3	6	Fixation	AvoidedLoss	True
70.911	0.44	Lose2	0.7143	0.002	Yes	2.737	-0.002	2.0	GoodResponse	0	0.221	70.132	3	6	Target	AvoidedLoss	True
71.132	0.3	Lose2	0.7143	0.002	Yes	2.737	-0.002	2.0	GoodResponse	0	0.221	n/a	3	6	ButtonPress	AvoidedLoss	True
71.361	0.26	Lose2	0.7143	n/a	Yes	2.737	n/a	n/a	GoodResponse	0	n/a	n/a	3	6	Blank	AvoidedLoss	True
71.611	1.45	Lose2	0.7143	n/a	Yes	2.737	n/a	5.0	GoodResponse	0	0.022	70.633	3	6	Feedback	AvoidedLoss	True
73.06	2.737	Lose2	0.7143	n/a	Yes	2.737	n/a	n/a	GoodResponse	0	0.0	n/a	3	6	ISIslide	AvoidedLoss	True
75.826	0.25	Lose2	0.75	0.0	Yes	4.024	0.026	n/a	GoodResponse	0	n/a	n/a	3	7	Cue	AvoidedLoss	True
76.076	4.05	Lose2	0.75	0.0	Yes	4.024	0.0	n/a	GoodResponse	0	n/a	n/a	3	7	Fixation	AvoidedLoss	True
80.125	0.43	Lose2	0.75	0.001	Yes	4.024	-0.001	2.0	GoodResponse	0	0.194	79.319	3	7	Target	AvoidedLoss	True
80.319	0.3	Lose2	0.75	0.001	Yes	4.024	-0.001	2.0	GoodResponse	0	0.194	n/a	3	7	ButtonPress	AvoidedLoss	True
80.558	0.27	Lose2	0.75	n/a	Yes	4.024	n/a	n/a	GoodResponse	0	n/a	n/a	3	7	Blank	AvoidedLoss	True
80.824	1.45	Lose2	0.75	n/a	Yes	4.024	n/a	5.0	GoodResponse	0	0.028	79.852	3	7	Feedback	AvoidedLoss	True
82.274	4.024	Lose2	0.75	n/a	Yes	4.024	n/a	n/a	GoodResponse	0	0.0	n/a	3	7	ISIslide	AvoidedLoss	True
86.322	0.25	Lose2	0.7778	0.001	Yes	3.028	0.022	n/a	GoodResponse	0	n/a	n/a	3	8	Cue	AvoidedLoss	True
86.572	3.95	Lose2	0.7778	0.0	Yes	3.028	0.0	n/a	GoodResponse	0	n/a	n/a	3	8	Fixation	AvoidedLoss	True
90.521	0.42	Lose2	0.7778	0.001	Yes	3.028	-0.001	2.0	GoodResponse	0	0.218	89.739	3	8	Target	AvoidedLoss	True
90.739	0.3	Lose2	0.7778	0.001	Yes	3.028	-0.001	2.0	GoodResponse	0	0.218	n/a	3	8	ButtonPress	AvoidedLoss	True
90.937	0.28	Lose2	0.7778	n/a	Yes	3.028	n/a	n/a	GoodResponse	0	n/a	n/a	3	8	Blank	AvoidedLoss	True
91.221	1.45	Lose2	0.7778	n/a	Yes	3.028	n/a	5.0	GoodResponse	0	0.022	90.243	3	8	Feedback	AvoidedLoss	True
92.67	3.028	Lose2	0.7778	n/a	Yes	3.028	n/a	n/a	GoodResponse	0	0.0	n/a	3	8	ISIslide	AvoidedLoss	True
95.719	0.25	Lose2	0.8	0.0	Yes	3.131	0.019	n/a	GoodResponse	0	n/a	n/a	3	9	Cue	AvoidedLoss	True
95.969	3.95	Lose2	0.8	0.0	Yes	3.131	0.0	n/a	GoodResponse	0	n/a	n/a	3	9	Fixation	AvoidedLoss	True
99.918	0.41	Lose2	0.8	0.001	Yes	3.131	-0.001	2.0	GoodResponse	0	0.247	99.165	3	9	Target	AvoidedLoss	True
100.165	0.3	Lose2	0.8	0.001	Yes	3.131	-0.001	2.0	GoodResponse	0	0.247	n/a	3	9	ButtonPress	AvoidedLoss	True
100.334	0.29	Lose2	0.8	n/a	Yes	3.131	n/a	n/a	GoodResponse	0	n/a	n/a	3	9	Blank	AvoidedLoss	True
100.617	1.45	Lose2	0.8	n/a	Yes	3.131	n/a	5.0	GoodResponse	0	0.04	99.657	3	9	Feedback	AvoidedLoss	True
102.067	3.131	Lose2	0.8	n/a	Yes	3.131	n/a	n/a	GoodResponse	0	0.0	n/a	3	9	ISIslide	AvoidedLoss	True
105.216	0.25	Control	0.8181999999999999	0.0	Yes	3.284	0.016	n/a	GoodResponse	0	n/a	n/a	3	10	Cue	Neutral	True
105.466	4.0	Control	0.8181999999999999	0.0	Yes	3.284	0.0	n/a	GoodResponse	0	n/a	n/a	3	10	Fixation	Neutral	True
109.464	0.4	Control	0.8181999999999999	0.002	Yes	3.284	-0.002	2.0	GoodResponse	0	0.212	108.676	3	10	Target	Neutral	True
109.676	0.3	Control	0.8181999999999999	0.002	Yes	3.284	-0.002	2.0	GoodResponse	0	0.212	n/a	3	10	ButtonPress	Neutral	True
109.864	0.3	Control	0.8181999999999999	n/a	Yes	3.284	n/a	n/a	GoodResponse	0	n/a	n/a	3	10	Blank	Neutral	True
110.164	1.45	Control	0.8181999999999999	n/a	Yes	3.284	n/a	5.0	GoodResponse	0	0.008	109.172	3	10	Feedback	Neutral	True
111.614	3.284	Control	0.8181999999999999	n/a	Yes	3.284	n/a	n/a	GoodResponse	0	0.0	n/a	3	10	ISIslide	Neutral	True
114.929	0.25	Lose2	0.8332999999999999	0.0	Yes	2.721	0.029	n/a	GoodResponse	0	n/a	n/a	3	11	Cue	AvoidedLoss	True
115.179	4.05	Lose2	0.8332999999999999	0.0	Yes	2.721	0.0	n/a	GoodResponse	0	n/a	n/a	3	11	Fixation	AvoidedLoss	True
119.228	0.39	Lose2	0.8332999999999999	0.001	Yes	2.721	-0.001	2.0	GoodResponse	0	0.237	118.465	3	11	Target	AvoidedLoss	True
119.465	0.3	Lose2	0.8332999999999999	0.001	Yes	2.721	-0.001	2.0	GoodResponse	0	0.237	n/a	3	11	ButtonPress	AvoidedLoss	True
119.628	0.31	Lose2	0.8332999999999999	n/a	Yes	2.721	n/a	n/a	GoodResponse	0	n/a	n/a	3	11	Blank	AvoidedLoss	True
119.927	1.45	Lose2	0.8332999999999999	n/a	Yes	2.721	n/a	5.0	GoodResponse	0	0.048	118.975	3	11	Feedback	AvoidedLoss	True
121.377	2.721	Lose2	0.8332999999999999	n/a	Yes	2.721	n/a	n/a	GoodResponse	0	0.0	n/a	3	11	ISIslide	AvoidedLoss	True
124.126	0.25	Control	0.8462000000000001	0.0	Yes	2.974	0.026	n/a	GoodResponse	0	n/a	n/a	3	12	Cue	Neutral	True
124.376	3.9	Control	0.8462000000000001	0.0	Yes	2.974	0.0	n/a	GoodResponse	0	n/a	n/a	3	12	Fixation	Neutral	True
128.275	0.38	Control	0.8462000000000001	0.001	Yes	2.974	-0.001	2.0	GoodResponse	0	0.28	127.555	3	12	Target	Neutral	True
128.555	0.3	Control	0.8462000000000001	0.001	Yes	2.974	-0.001	2.0	GoodResponse	0	0.28	n/a	3	12	ButtonPress	Neutral	True
128.658	0.32	Control	0.8462000000000001	n/a	Yes	2.974	n/a	n/a	GoodResponse	0	n/a	n/a	3	12	Blank	Neutral	True
128.974	1.45	Control	0.8462000000000001	n/a	Yes	2.974	n/a	5.0	GoodResponse	0	0.024	127.998	3	12	Feedback	Neutral	True
130.424	2.974	Control	0.8462000000000001	n/a	Yes	2.974	n/a	n/a	GoodResponse	0	0.0	n/a	3	12	ISIslide	Neutral	True
133.423	0.25	Control	0.7857	0.0	No	2.777	0.023	n/a	NoResponse	0	n/a	n/a	3	13	Cue	Neutral	True
133.673	4.0	Control	0.7857	0.0	No	2.777	0.0	n/a	NoResponse	0	n/a	n/a	3	13	Fixation	Neutral	True
137.671	0.37	Control	0.7857	0.002	No	2.777	-0.002	2.0	NoResponse	0	0.411	137.082	3	13	Target	Neutral	True
138.055	0.33	Control	0.7857	n/a	No	2.777	n/a	n/a	NoResponse	0	n/a	n/a	3	13	Blank	Neutral	True
138.082	0.3	Control	0.7857	0.002	No	2.777	-0.002	2.0	NoResponse	0	0.411	n/a	3	13	ButtonPress	Neutral	True
138.371	1.45	Control	0.7857	n/a	No	2.777	n/a	5.0	NoResponse	0	0.042	137.413	3	13	Feedback	Neutral	True
139.821	2.777	Control	0.7857	n/a	No	2.777	n/a	n/a	NoResponse	0	0.0	n/a	3	13	ISIslide	Neutral	True
142.62	0.25	Win2	0.8	0.0	Yes	2.68	0.02	n/a	GoodResponse	1	n/a	n/a	4	14	Cue	Win	True
142.87	4.1	Win2	0.8	0.0	Yes	2.68	0.0	n/a	GoodResponse	1	n/a	n/a	4	14	Fixation	Win	True
146.968	0.36	Win2	0.8	0.002	Yes	2.68	-0.002	2.0	GoodResponse	1	0.185	146.153	4	14	Target	Win	True
147.153	0.3	Win2	0.8	0.002	Yes	2.68	-0.002	2.0	GoodResponse	1	0.185	n/a	4	14	ButtonPress	Win	True
147.335	0.34	Win2	0.8	n/a	Yes	2.68	n/a	n/a	GoodResponse	1	n/a	n/a	4	14	Blank	Win	True
147.668	1.45	Win2	0.8	n/a	Yes	2.68	n/a	5.0	GoodResponse	1	0.013	146.681	4	14	Feedback	Win	True
149.117	2.68	Win2	0.8	n/a	Yes	2.68	n/a	n/a	GoodResponse	1	0.0	n/a	4	14	ISIslide	Win	True
151.816	0.25	Control	0.75	0.0	No	2.984	0.016	n/a	NoResponse	0	n/a	n/a	4	15	Cue	Neutral	True
152.066	4.0	Control	0.75	0.0	No	2.984	0.0	2.0	NoResponse	0	3.991	155.057	4	15	Fixation	Neutral	True
156.057	0.3	Control	0.75	0.0	No	2.984	0.0	2.0	NoResponse	0	3.991	n/a	4	15	ButtonPress	Neutral	True
156.065	0.35	Control	0.75	0.001	No	2.984	-0.001	n/a	NoResponse	0	n/a	n/a	4	15	Target	Neutral	True
156.415	0.35	Control	0.75	n/a	No	2.984	n/a	n/a	NoResponse	0	n/a	n/a	4	15	Blank	Neutral	True
156.765	1.45	Control	0.75	n/a	No	2.984	n/a	5.0	NoResponse	0	0.038	155.803	4	15	Feedback	Neutral	True
158.214	2.984	Control	0.75	n/a	No	2.984	n/a	n/a	NoResponse	0	0.0	n/a	4	15	ISIslide	Neutral	True
161.23	0.25	Win2	0.7646999999999999	0.0	Yes	2.87	0.03	n/a	GoodResponse	1	n/a	n/a	5	16	Cue	Win	True
161.48	4.0	Win2	0.7646999999999999	0.0	Yes	2.87	0.0	n/a	GoodResponse	1	n/a	n/a	5	16	Fixation	Win	True
165.478	0.34	Win2	0.7646999999999999	0.002	Yes	2.87	-0.002	2.0	GoodResponse	1	0.293	164.771	5	16	Target	Win	True
165.771	0.3	Win2	0.7646999999999999	0.002	Yes	2.87	-0.002	2.0	GoodResponse	1	0.293	n/a	5	16	ButtonPress	Win	True
165.828	0.36	Win2	0.7646999999999999	n/a	Yes	2.87	n/a	n/a	GoodResponse	1	n/a	n/a	5	16	Blank	Win	True
166.178	1.45	Win2	0.7646999999999999	n/a	Yes	2.87	n/a	5.0	GoodResponse	1	0.04	165.218	5	16	Feedback	Win	True
167.628	2.87	Win2	0.7646999999999999	n/a	Yes	2.87	n/a	n/a	GoodResponse	1	0.0	n/a	5	16	ISIslide	Win	True
170.527	0.25	Lose2	0.7778	0.0	Yes	2.723	0.027	n/a	GoodResponse	0	n/a	n/a	5	17	Cue	AvoidedLoss	True
170.777	3.95	Lose2	0.7778	0.0	Yes	2.723	0.0	n/a	GoodResponse	0	n/a	n/a	5	17	Fixation	AvoidedLoss	True
174.725	0.33	Lose2	0.7778	0.002	Yes	2.723	-0.002	2.0	GoodResponse	0	0.199	173.924	5	17	Target	AvoidedLoss	True
174.924	0.3	Lose2	0.7778	0.002	Yes	2.723	-0.002	2.0	GoodResponse	0	0.199	n/a	5	17	ButtonPress	AvoidedLoss	True
175.058	0.37	Lose2	0.7778	n/a	Yes	2.723	n/a	n/a	GoodResponse	0	n/a	n/a	5	17	Blank	AvoidedLoss	True
175.425	1.45	Lose2	0.7778	n/a	Yes	2.723	n/a	5.0	GoodResponse	0	0.013	174.438	5	17	Feedback	AvoidedLoss	True
176.874	2.723	Lose2	0.7778	n/a	Yes	2.723	n/a	n/a	GoodResponse	0	0.0	n/a	5	17	ISIslide	AvoidedLoss	True
179.623	0.25	Lose2	0.7895	0.001	Yes	2.727	0.023	n/a	GoodResponse	0	n/a	n/a	5	18	Cue	AvoidedLoss	True
179.873	4.05	Lose2	0.7895	0.0	Yes	2.727	0.0	n/a	GoodResponse	0	n/a	n/a	5	18	Fixation	AvoidedLoss	True
183.922	0.32	Lose2	0.7895	0.001	Yes	2.727	-0.001	2.0	GoodResponse	0	0.274	183.196	5	18	Target	AvoidedLoss	True
184.196	0.3	Lose2	0.7895	0.001	Yes	2.727	-0.001	2.0	GoodResponse	0	0.274	n/a	5	18	ButtonPress	AvoidedLoss	True
184.239	0.38	Lose2	0.7895	n/a	Yes	2.727	n/a	n/a	GoodResponse	0	n/a	n/a	5	18	Blank	AvoidedLoss	True
184.622	1.45	Lose2	0.7895	n/a	Yes	2.727	n/a	5.0	GoodResponse	0	0.034	183.656	5	18	Feedback	AvoidedLoss	True
186.071	2.727	Lose2	0.7895	n/a	Yes	2.727	n/a	n/a	GoodResponse	0	0.0	n/a	5	18	ISIslide	AvoidedLoss	True
188.82	0.25	Control	0.75	0.0	No	2.93	0.02	n/a	NoResponse	0	n/a	n/a	5	19	Cue	Neutral	True
189.07	3.95	Control	0.75	0.0	No	2.93	0.0	n/a	NoResponse	0	n/a	n/a	5	19	Fixation	Neutral	True
193.019	0.31	Control	0.75	0.001	No	2.93	-0.001	2.0	NoResponse	0	0.405	192.424	5	19	Target	Neutral	True
193.335	0.39	Control	0.75	n/a	No	2.93	n/a	n/a	NoResponse	0	n/a	n/a	5	19	Blank	Neutral	True
193.424	0.3	Control	0.75	0.001	No	2.93	-0.001	2.0	NoResponse	0	0.405	n/a	5	19	ButtonPress	Neutral	True
193.719	1.45	Control	0.75	n/a	No	2.93	n/a	5.0	NoResponse	0	0.011	192.73	5	19	Feedback	Neutral	True
195.168	2.93	Control	0.75	n/a	No	2.93	n/a	n/a	NoResponse	0	0.0	n/a	5	19	ISIslide	Neutral	True
198.117	0.25	Control	0.7619	0.0	Yes	2.633	0.017	n/a	GoodResponse	0	n/a	n/a	5	20	Cue	Neutral	True
198.367	4.05	Control	0.7619	0.0	Yes	2.633	0.0	n/a	GoodResponse	0	n/a	n/a	5	20	Fixation	Neutral	True
202.416	0.3	Control	0.7619	0.001	Yes	2.633	-0.001	2.0	GoodResponse	0	0.253	201.669	5	20	Target	Neutral	True
202.669	0.3	Control	0.7619	0.001	Yes	2.633	-0.001	2.0	GoodResponse	0	0.253	n/a	5	20	ButtonPress	Neutral	True
202.715	0.4	Control	0.7619	n/a	Yes	2.633	n/a	n/a	GoodResponse	0	n/a	n/a	5	20	Blank	Neutral	True
203.115	1.45	Control	0.7619	n/a	Yes	2.633	n/a	5.0	GoodResponse	0	0.029	202.144	5	20	Feedback	Neutral	True
204.565	2.633	Control	0.7619	n/a	Yes	2.633	n/a	n/a	GoodResponse	0	0.0	n/a	5	20	ISIslide	Neutral	True
207.214	0.25	Control	0.7726999999999999	0.0	Yes	2.786	0.014	n/a	GoodResponse	0	n/a	n/a	5	21	Cue	Neutral	True
207.464	4.1	Control	0.7726999999999999	0.0	Yes	2.786	0.0	n/a	GoodResponse	0	n/a	n/a	5	21	Fixation	Neutral	True
211.562	0.29	Control	0.7726999999999999	0.002	Yes	2.786	-0.002	2.0	GoodResponse	0	0.243	210.805	5	21	Target	Neutral	True
211.805	0.3	Control	0.7726999999999999	0.002	Yes	2.786	-0.002	2.0	GoodResponse	0	0.243	n/a	5	21	ButtonPress	Neutral	True
211.862	0.41	Control	0.7726999999999999	n/a	Yes	2.786	n/a	n/a	GoodResponse	0	n/a	n/a	5	21	Blank	Neutral	True
212.262	1.45	Control	0.7726999999999999	n/a	Yes	2.786	n/a	5.0	GoodResponse	0	0.008	211.27	5	21	Feedback	Neutral	True
213.712	2.786	Control	0.7726999999999999	n/a	Yes	2.786	n/a	n/a	GoodResponse	0	0.0	n/a	5	21	ISIslide	Neutral	True
216.527	0.25	Control	0.7826000000000001	0.0	Yes	2.773	0.027	n/a	GoodResponse	0	n/a	n/a	5	22	Cue	Neutral	True
216.777	4.0	Control	0.7826000000000001	0.0	Yes	2.773	0.0	n/a	GoodResponse	0	n/a	n/a	5	22	Fixation	Neutral	True
220.776	0.28	Control	0.7826000000000001	0.001	Yes	2.773	-0.001	2.0	GoodResponse	0	0.21	219.986	5	22	Target	Neutral	True
220.986	0.3	Control	0.7826000000000001	0.001	Yes	2.773	-0.001	2.0	GoodResponse	0	0.21	n/a	5	22	ButtonPress	Neutral	True
221.059	0.42	Control	0.7826000000000001	n/a	Yes	2.773	n/a	n/a	GoodResponse	0	n/a	n/a	5	22	Blank	Neutral	True
221.476	1.45	Control	0.7826000000000001	n/a	Yes	2.773	n/a	5.0	GoodResponse	0	0.01	220.486	5	22	Feedback	Neutral	True
222.925	2.773	Control	0.7826000000000001	n/a	Yes	2.773	n/a	n/a	GoodResponse	0	0.0	n/a	5	22	ISIslide	Neutral	True
225.724	0.25	Control	0.7917000000000001	0.0	Yes	2.776	0.024	n/a	GoodResponse	0	n/a	n/a	5	23	Cue	Neutral	True
225.974	3.9	Control	0.7917000000000001	0.0	Yes	2.776	0.0	n/a	GoodResponse	0	n/a	n/a	5	23	Fixation	Neutral	True
229.873	0.27	Control	0.7917000000000001	0.001	Yes	2.776	-0.001	2.0	GoodResponse	0	0.242	229.115	5	23	Target	Neutral	True
230.115	0.3	Control	0.7917000000000001	0.001	Yes	2.776	-0.001	2.0	GoodResponse	0	0.242	n/a	5	23	ButtonPress	Neutral	True
230.156	0.43	Control	0.7917000000000001	n/a	Yes	2.776	n/a	n/a	GoodResponse	0	n/a	n/a	5	23	Blank	Neutral	True
230.573	1.45	Control	0.7917000000000001	n/a	Yes	2.776	n/a	5.0	GoodResponse	0	0.035	229.608	5	23	Feedback	Neutral	True
232.022	2.776	Control	0.7917000000000001	n/a	Yes	2.776	n/a	n/a	GoodResponse	0	0.0	n/a	5	23	ISIslide	Neutral	True
234.821	0.25	Win2	0.8	0.0	Yes	3.129	0.021	n/a	GoodResponse	1	n/a	n/a	6	24	Cue	Win	True
235.071	3.95	Win2	0.8	0.0	Yes	3.129	0.0	n/a	GoodResponse	1	n/a	n/a	6	24	Fixation	Win	True
239.02	0.26	Win2	0.8	0.001	Yes	3.129	-0.001	2.0	GoodResponse	1	0.247	238.267	6	24	Target	Win	True
239.267	0.3	Win2	0.8	0.001	Yes	3.129	-0.001	2.0	GoodResponse	1	0.247	n/a	6	24	ButtonPress	Win	True
239.286	0.44	Win2	0.8	n/a	Yes	3.129	n/a	n/a	GoodResponse	1	n/a	n/a	6	24	Blank	Win	True
239.719	1.45	Win2	0.8	n/a	Yes	3.129	n/a	5.0	GoodResponse	1	0.011	238.73	6	24	Feedback	Win	True
241.169	3.129	Win2	0.8	n/a	Yes	3.129	n/a	n/a	GoodResponse	1	0.0	n/a	6	24	ISIslide	Win	True
244.318	0.25	Win2	0.8077	0.0	Yes	3.082	0.018	n/a	GoodResponse	1	n/a	n/a	7	25	Cue	Win	True
244.568	4.0	Win2	0.8077	0.0	Yes	3.082	0.0	n/a	GoodResponse	1	n/a	n/a	7	25	Fixation	Win	True
248.566	0.25	Win2	0.8077	0.002	Yes	3.082	-0.002	2.0	GoodResponse	1	0.223	247.789	7	25	Target	Win	True
248.789	0.3	Win2	0.8077	0.002	Yes	3.082	-0.002	2.0	GoodResponse	1	0.223	n/a	7	25	ButtonPress	Win	True
248.816	0.45	Win2	0.8077	n/a	Yes	3.082	n/a	n/a	GoodResponse	1	n/a	n/a	7	25	Blank	Win	True
249.266	1.45	Win2	0.8077	n/a	Yes	3.082	n/a	5.0	GoodResponse	1	0.024	248.29	7	25	Feedback	Win	True
250.716	3.082	Win2	0.8077	n/a	Yes	3.082	n/a	n/a	GoodResponse	1	0.0	n/a	7	25	ISIslide	Win	True
253.814	0.25	Win2	0.7778	0.001	No	2.936	0.014	n/a	NoResponse	0	n/a	n/a	7	26	Cue	MissedWin	True
254.064	3.95	Win2	0.7778	0.0	No	2.936	0.0	n/a	NoResponse	0	n/a	n/a	7	26	Fixation	MissedWin	True
258.013	0.24	Win2	0.7778	0.001	No	2.936	-0.001	2.0	NoResponse	0	0.259	257.272	7	26	Target	MissedWin	True
258.263	0.46	Win2	0.7778	n/a	No	2.936	n/a	n/a	NoResponse	0	n/a	n/a	7	26	Blank	MissedWin	True
258.272	0.3	Win2	0.7778	0.001	No	2.936	-0.001	2.0	NoResponse	0	0.259	n/a	7	26	ButtonPress	MissedWin	True
258.713	1.45	Win2	0.7778	n/a	No	2.936	n/a	5.0	NoResponse	0	0.041	257.754	7	26	Feedback	MissedWin	True
260.162	2.936	Win2	0.7778	n/a	No	2.936	n/a	n/a	NoResponse	0	0.0	n/a	7	26	ISIslide	MissedWin	True
263.128	0.25	Lose2	0.75	0.0	No	2.822	0.028	n/a	NoResponse	-1	n/a	n/a	6	27	Cue	Loss	True
263.378	4.05	Lose2	0.75	0.0	No	2.822	0.0	n/a	NoResponse	-1	n/a	n/a	6	27	Fixation	Loss	True
267.426	0.23	Lose2	0.75	0.002	No	2.822	-0.002	2.0	NoResponse	-1	0.251	266.677	6	27	Target	Loss	True
267.66	0.47	Lose2	0.75	n/a	No	2.822	n/a	n/a	NoResponse	-1	n/a	n/a	6	27	Blank	Loss	True
267.677	0.3	Lose2	0.75	0.002	No	2.822	-0.002	2.0	NoResponse	-1	0.251	n/a	6	27	ButtonPress	Loss	True
268.126	1.45	Lose2	0.75	n/a	No	2.822	n/a	5.0	NoResponse	-1	0.043	267.169	6	27	Feedback	Loss	True
269.576	2.822	Lose2	0.75	n/a	No	2.822	n/a	n/a	NoResponse	-1	0.0	n/a	6	27	ISIslide	Loss	True
272.425	0.25	Control	0.7241	0.0	No	2.825	0.025	n/a	PrematurePress	0	n/a	n/a	6	28	Cue	Neutral	True
272.675	4.05	Control	0.7241	0.0	No	2.825	0.0	n/a	PrematurePress	0	n/a	n/a	6	28	Fixation	Neutral	True
276.723	0.22	Control	0.7241	0.002	No	2.825	-0.002	2.0	PrematurePress	0	0.092	275.815	6	28	Target	Neutral	True
276.815	0.3	Control	0.7241	0.002	No	2.825	-0.002	2.0	PrematurePress	0	0.092	n/a	6	28	ButtonPress	Neutral	True
276.956	0.48	Control	0.7241	n/a	No	2.825	n/a	n/a	PrematurePress	0	n/a	n/a	6	28	Blank	Neutral	True
277.423	1.45	Control	0.7241	n/a	No	2.825	n/a	5.0	PrematurePress	0	0.014	276.437	6	28	Feedback	Neutral	True
278.872	2.825	Control	0.7241	n/a	No	2.825	n/a	n/a	PrematurePress	0	0.0	n/a	6	28	ISIslide	Neutral	True
281.722	0.25	Lose2	0.7	0.0	No	2.828	0.022	n/a	NoResponse	-1	n/a	n/a	5	29	Cue	Loss	True
281.971	3.95	Lose2	0.7	0.001	No	2.828	-0.001	2.0	NoResponse	-1	3.822	284.793	5	29	Fixation	Loss	True
285.793	0.3	Lose2	0.7	0.001	No	2.828	-0.001	2.0	NoResponse	-1	3.822	n/a	5	29	ButtonPress	Loss	True
285.92	0.21	Lose2	0.7	0.002	No	2.828	-0.002	n/a	NoResponse	-1	n/a	n/a	5	29	Target	Loss	True
286.137	0.49	Lose2	0.7	n/a	No	2.828	n/a	n/a	NoResponse	-1	n/a	n/a	5	29	Blank	Loss	True
286.62	1.45	Lose2	0.7	n/a	No	2.828	n/a	5.0	NoResponse	-1	0.037	285.657	5	29	Feedback	Loss	True
288.069	2.828	Lose2	0.7	n/a	No	2.828	n/a	n/a	NoResponse	-1	0.0	n/a	5	29	ISIslide	Loss	True
290.918	0.25	Win2	0.6774	0.0	No	2.782	0.018	n/a	PrematurePress	0	n/a	n/a	5	30	Cue	MissedWin	False
291.168	3.9	Win2	0.6774	0.0	No	2.782	0.0	2.0	PrematurePress	0	3.487	293.655	5	30	Fixation	MissedWin	False
294.655	0.3	Win2	0.6774	0.0	No	2.782	0.0	2.0	PrematurePress	0	3.487	n/a	5	30	ButtonPress	MissedWin	False
295.067	0.2	Win2	0.6774	0.001	No	2.782	-0.001	2.0	PrematurePress	0	0.094	294.161	5	30	Target	MissedWin	False
295.161	0.3	Win2	0.6774	0.001	No	2.782	-0.001	2.0	PrematurePress	0	0.094	n/a	5	30	ButtonPress	MissedWin	False
295.267	0.5	Win2	0.6774	n/a	No	2.782	n/a	n/a	PrematurePress	0	n/a	n/a	5	30	Blank	MissedWin	False
295.767	1.45	Win2	0.6774	n/a	No	2.782	n/a	5.0	PrematurePress	0	0.012	294.779	5	30	Feedback	MissedWin	False
297.216	2.782	Win2	0.6774	n/a	No	2.782	n/a	n/a	PrematurePress	0	0.0	n/a	5	30	ISIslide	MissedWin	False
300.015	0.25	Lose2	0.6875	0.0	Yes	2.835	0.015	n/a	GoodResponse	0	n/a	n/a	5	31	Cue	AvoidedLoss	True
300.265	4.05	Lose2	0.6875	0.0	Yes	2.835	0.0	n/a	GoodResponse	0	n/a	n/a	5	31	Fixation	AvoidedLoss	True
304.314	0.19	Lose2	0.6875	0.001	Yes	2.835	-0.001	2.0	GoodResponse	0	0.186	303.5	5	31	Target	AvoidedLoss	True
304.5	0.3	Lose2	0.6875	0.001	Yes	2.835	-0.001	2.0	GoodResponse	0	0.186	n/a	5	31	ButtonPress	AvoidedLoss	True
304.514	0.51	Lose2	0.6875	n/a	Yes	2.835	n/a	n/a	GoodResponse	0	n/a	n/a	5	31	Blank	AvoidedLoss	True
305.013	1.45	Lose2	0.6875	n/a	Yes	2.835	n/a	5.0	GoodResponse	0	0.033	304.046	5	31	Feedback	AvoidedLoss	True
306.463	2.835	Lose2	0.6875	n/a	Yes	2.835	n/a	n/a	GoodResponse	0	0.0	n/a	5	31	ISIslide	AvoidedLoss	True
309.329	0.25	Lose2	0.6667000000000001	0.0	No	2.621	0.029	n/a	NoResponse	-1	n/a	n/a	4	32	Cue	Loss	False
309.579	4.15	Lose2	0.6667000000000001	0.0	No	2.621	0.0	2.0	NoResponse	-1	3.879	312.458	4	32	Fixation	Loss	False
313.458	0.3	Lose2	0.6667000000000001	0.0	No	2.621	0.0	2.0	NoResponse	-1	3.879	n/a	4	32	ButtonPress	Loss	False
313.727	0.18	Lose2	0.6667000000000001	0.002	No	2.621	-0.002	2.0	NoResponse	-1	0.314	313.041	4	32	Target	Loss	False
313.91	0.52	Lose2	0.6667000000000001	n/a	No	2.621	n/a	n/a	NoResponse	-1	n/a	n/a	4	32	Blank	Loss	False
314.041	0.3	Lose2	0.6667000000000001	0.002	No	2.621	-0.002	2.0	NoResponse	-1	0.314	n/a	4	32	ButtonPress	Loss	False
314.427	1.45	Lose2	0.6667000000000001	n/a	No	2.621	n/a	5.0	NoResponse	-1	0.034	313.461	4	32	Feedback	Loss	False
315.876	2.621	Lose2	0.6667000000000001	n/a	No	2.621	n/a	n/a	NoResponse	-1	0.0	n/a	4	32	ISIslide	Loss	False
318.525	0.25	Win2	0.6470999999999999	0.001	No	2.675	0.025	n/a	NoResponse	0	n/a	n/a	4	33	Cue	MissedWin	True
318.775	4.0	Win2	0.6470999999999999	0.0	No	2.675	0.0	n/a	NoResponse	0	n/a	n/a	4	33	Fixation	MissedWin	True
322.774	0.17	Win2	0.6470999999999999	0.001	No	2.675	-0.001	2.0	NoResponse	0	0.236	322.01	4	33	Target	MissedWin	True
322.941	0.53	Win2	0.6470999999999999	n/a	No	2.675	n/a	n/a	NoResponse	0	n/a	n/a	4	33	Blank	MissedWin	True
323.01	0.3	Win2	0.6470999999999999	0.001	No	2.675	-0.001	2.0	NoResponse	0	0.236	n/a	4	33	ButtonPress	MissedWin	True
323.474	1.45	Win2	0.6470999999999999	n/a	No	2.675	n/a	5.0	NoResponse	0	0.012	322.486	4	33	Feedback	MissedWin	True
324.923	2.675	Win2	0.6470999999999999	n/a	No	2.675	n/a	n/a	NoResponse	0	0.0	n/a	4	33	ISIslide	MissedWin	True
327.622	0.25	Lose2	0.6286	0.0	No	2.628	0.022	n/a	NoResponse	-1	n/a	n/a	3	34	Cue	Loss	True
327.872	4.05	Lose2	0.6286	0.0	No	2.628	0.0	2.0	NoResponse	-1	4.006	330.878	3	34	Fixation	Loss	True
331.878	0.3	Lose2	0.6286	0.0	No	2.628	0.0	2.0	NoResponse	-1	4.006	n/a	3	34	ButtonPress	Loss	True
331.921	0.18	Lose2	0.6286	0.001	No	2.628	-0.001	n/a	NoResponse	-1	n/a	n/a	3	34	Target	Loss	True
332.104	0.52	Lose2	0.6286	n/a	No	2.628	n/a	n/a	NoResponse	-1	n/a	n/a	3	34	Blank	Loss	True
332.621	1.45	Lose2	0.6286	n/a	No	2.628	n/a	5.0	NoResponse	-1	0.035	331.656	3	34	Feedback	Loss	True
334.07	2.628	Lose2	0.6286	n/a	No	2.628	n/a	n/a	NoResponse	-1	0.0	n/a	3	34	ISIslide	Loss	True
336.719	0.25	Lose2	0.6111	0.0	No	2.681	0.019	n/a	NoResponse	-1	n/a	n/a	2	35	Cue	Loss	True
336.969	4.0	Lose2	0.6111	0.0	No	2.681	0.0	n/a	NoResponse	-1	n/a	n/a	2	35	Fixation	Loss	True
340.968	0.19	Lose2	0.6111	0.001	No	2.681	-0.001	2.0	NoResponse	-1	0.215	340.183	2	35	Target	Loss	True
341.168	0.51	Lose2	0.6111	n/a	No	2.681	n/a	n/a	NoResponse	-1	n/a	n/a	2	35	Blank	Loss	True
341.183	0.3	Lose2	0.6111	0.001	No	2.681	-0.001	2.0	NoResponse	-1	0.215	n/a	2	35	ButtonPress	Loss	True
341.667	1.45	Lose2	0.6111	n/a	No	2.681	n/a	5.0	NoResponse	-1	0.014	340.681	2	35	Feedback	Loss	True
343.117	2.681	Lose2	0.6111	n/a	No	2.681	n/a	n/a	NoResponse	-1	0.0	n/a	2	35	ISIslide	Loss	True
345.816	0.25	Control	0.5946	0.0	No	2.684	0.016	n/a	PrematurePress	0	n/a	n/a	2	36	Cue	Neutral	True
346.066	4.0	Control	0.5946	0.0	No	2.684	0.0	n/a	PrematurePress	0	n/a	n/a	2	36	Fixation	Neutral	True
350.065	0.2	Control	0.5946	0.001	No	2.684	-0.001	2.0	PrematurePress	0	0.047	349.112	2	36	Target	Neutral	True
350.112	0.3	Control	0.5946	0.001	No	2.684	-0.001	2.0	PrematurePress	0	0.047	n/a	2	36	ButtonPress	Neutral	True
350.264	0.5	Control	0.5946	n/a	No	2.684	n/a	n/a	PrematurePress	0	n/a	n/a	2	36	Blank	Neutral	True
350.764	1.45	Control	0.5946	n/a	No	2.684	n/a	5.0	PrematurePress	0	0.039	349.803	2	36	Feedback	Neutral	True
352.214	2.684	Control	0.5946	n/a	No	2.684	n/a	n/a	PrematurePress	0	0.0	n/a	2	36	ISIslide	Neutral	True
354.913	0.25	Win2	0.5789	0.0	No	2.887	0.013	n/a	NoResponse	0	n/a	n/a	2	37	Cue	MissedWin	True
355.163	4.0	Win2	0.5789	0.0	No	2.887	0.0	2.0	NoResponse	0	3.099	357.262	2	37	Fixation	MissedWin	True
358.262	0.3	Win2	0.5789	0.0	No	2.887	0.0	2.0	NoResponse	0	3.099	n/a	2	37	ButtonPress	MissedWin	True
359.161	0.21	Win2	0.5789	0.002	No	2.887	-0.002	n/a	NoResponse	0	n/a	n/a	2	37	Target	MissedWin	True
359.378	0.49	Win2	0.5789	n/a	No	2.887	n/a	n/a	NoResponse	0	n/a	n/a	2	37	Blank	MissedWin	True
359.861	1.45	Win2	0.5789	n/a	No	2.887	n/a	5.0	NoResponse	0	0.015	358.876	2	37	Feedback	MissedWin	True
361.311	2.887	Win2	0.5789	n/a	No	2.887	n/a	n/a	NoResponse	0	0.0	n/a	2	37	ISIslide	MissedWin	True
364.226	0.25	Lose2	0.5897	0.0	Yes	2.824	0.026	n/a	GoodResponse	0	n/a	n/a	2	38	Cue	AvoidedLoss	True
364.476	3.95	Lose2	0.5897	0.0	Yes	2.824	0.0	n/a	GoodResponse	0	n/a	n/a	2	38	Fixation	AvoidedLoss	True
368.425	0.22	Lose2	0.5897	0.001	Yes	2.824	-0.001	2.0	GoodResponse	0	0.215	367.64	2	38	Target	AvoidedLoss	True
368.64	0.3	Lose2	0.5897	0.001	Yes	2.824	-0.001	2.0	GoodResponse	0	0.215	n/a	2	38	ButtonPress	AvoidedLoss	True
368.641	0.48	Lose2	0.5897	n/a	Yes	2.824	n/a	n/a	GoodResponse	0	n/a	n/a	2	38	Blank	AvoidedLoss	True
369.125	1.45	Lose2	0.5897	n/a	Yes	2.824	n/a	5.0	GoodResponse	0	0.019	368.144	2	38	Feedback	AvoidedLoss	True
370.574	2.824	Lose2	0.5897	n/a	Yes	2.824	n/a	n/a	GoodResponse	0	0.0	n/a	2	38	ISIslide	AvoidedLoss	True
373.423	0.25	Win2	0.575	0.0	No	2.977	0.023	n/a	NoResponse	0	n/a	n/a	2	39	Cue	MissedWin	True
373.673	4.1	Win2	0.575	0.0	No	2.977	0.0	2.0	NoResponse	0	4.048	376.721	2	39	Fixation	MissedWin	True
377.721	0.3	Win2	0.575	0.0	No	2.977	0.0	2.0	NoResponse	0	4.048	n/a	2	39	ButtonPress	MissedWin	True
377.772	0.23	Win2	0.575	0.001	No	2.977	-0.001	n/a	NoResponse	0	n/a	n/a	2	39	Target	MissedWin	True
378.005	0.47	Win2	0.575	n/a	No	2.977	n/a	n/a	NoResponse	0	n/a	n/a	2	39	Blank	MissedWin	True
378.471	1.45	Win2	0.575	n/a	No	2.977	n/a	5.0	NoResponse	0	0.039	377.51	2	39	Feedback	MissedWin	True
379.921	2.977	Win2	0.575	n/a	No	2.977	n/a	n/a	NoResponse	0	0.0	n/a	2	39	ISIslide	MissedWin	True
382.92	0.25	Win2	0.561	0.0	No	2.73	0.02	n/a	NoResponse	0	n/a	n/a	2	40	Cue	MissedWin	False
383.17	3.95	Win2	0.561	0.0	No	2.73	0.0	n/a	NoResponse	0	n/a	n/a	2	40	Fixation	MissedWin	False
387.118	0.24	Win2	0.561	0.002	No	2.73	-0.002	n/a	NoResponse	0	n/a	n/a	2	40	Target	MissedWin	False
387.368	0.46	Win2	0.561	n/a	No	2.73	n/a	n/a	NoResponse	0	n/a	n/a	2	40	Blank	MissedWin	False
387.818	1.45	Win2	0.561	n/a	No	2.73	n/a	5.0	NoResponse	0	0.009	386.827	2	40	Feedback	MissedWin	False
389.268	2.73	Win2	0.561	n/a	No	2.73	n/a	n/a	NoResponse	0	0.0	n/a	2	40	ISIslide	MissedWin	False
392.017	0.25	Win2	0.5714	0.0	Yes	2.783	0.017	n/a	GoodResponse	1	n/a	n/a	3	41	Cue	Win	True
392.267	3.9	Win2	0.5714	0.0	Yes	2.783	0.0	n/a	GoodResponse	1	n/a	n/a	3	41	Fixation	Win	True
396.165	0.25	Win2	0.5714	0.002	Yes	2.783	-0.002	2.0	GoodResponse	1	0.167	395.332	3	41	Target	Win	True
396.332	0.3	Win2	0.5714	0.002	Yes	2.783	-0.002	2.0	GoodResponse	1	0.167	n/a	3	41	ButtonPress	Win	True
396.415	0.45	Win2	0.5714	n/a	Yes	2.783	n/a	n/a	GoodResponse	1	n/a	n/a	3	41	Blank	Win	True
396.865	1.45	Win2	0.5714	n/a	Yes	2.783	n/a	5.0	GoodResponse	1	0.035	395.9	3	41	Feedback	Win	True
398.315	2.783	Win2	0.5714	n/a	Yes	2.783	n/a	n/a	GoodResponse	1	0.0	n/a	3	41	ISIslide	Win	True
401.114	0.25	Control	0.5581	0.0	No	2.936	0.014	n/a	NoResponse	0	n/a	n/a	3	42	Cue	Neutral	True
401.363	3.85	Control	0.5581	0.001	No	2.936	-0.001	n/a	NoResponse	0	n/a	n/a	3	42	Fixation	Neutral	True
405.212	0.26	Control	0.5581	0.002	No	2.936	-0.002	2.0	NoResponse	0	0.275	404.487	3	42	Target	Neutral	True
405.479	0.44	Control	0.5581	n/a	No	2.936	n/a	n/a	NoResponse	0	n/a	n/a	3	42	Blank	Neutral	True
405.487	0.3	Control	0.5581	0.002	No	2.936	-0.002	2.0	NoResponse	0	0.275	n/a	3	42	ButtonPress	Neutral	True
405.912	1.45	Control	0.5581	n/a	No	2.936	n/a	5.0	NoResponse	0	0.013	404.925	3	42	Feedback	Neutral	True
407.361	2.936	Control	0.5581	n/a	No	2.936	n/a	n/a	NoResponse	0	0.0	n/a	3	42	ISIslide	Neutral	True
410.327	0.25	Win2	0.5682	0.0	Yes	3.173	0.027	n/a	GoodResponse	1	n/a	n/a	4	43	Cue	Win	False
410.577	4.0	Win2	0.5682	0.0	Yes	3.173	0.0	2.0	GoodResponse	1	0.196	409.773	4	43	Fixation	Win	False
410.773	0.3	Win2	0.5682	0.0	Yes	3.173	0.0	2.0	GoodResponse	1	0.196	n/a	4	43	ButtonPress	Win	False
414.576	0.27	Win2	0.5682	0.001	Yes	3.173	-0.001	2.0	GoodResponse	1	0.219	413.795	4	43	Target	Win	False
414.795	0.3	Win2	0.5682	0.001	Yes	3.173	-0.001	2.0	GoodResponse	1	0.219	n/a	4	43	ButtonPress	Win	False
414.859	0.43	Win2	0.5682	n/a	Yes	3.173	n/a	n/a	GoodResponse	1	n/a	n/a	4	43	Blank	Win	False
415.275	1.45	Win2	0.5682	n/a	Yes	3.173	n/a	5.0	GoodResponse	1	0.016	414.291	4	43	Feedback	Win	False
416.725	3.173	Win2	0.5682	n/a	Yes	3.173	n/a	n/a	GoodResponse	1	0.0	n/a	4	43	ISIslide	Win	False
419.924	0.25	Win2	0.5778	0.0	Yes	2.976	0.024	n/a	GoodResponse	1	n/a	n/a	5	44	Cue	Win	True
420.174	4.0	Win2	0.5778	0.0	Yes	2.976	0.0	n/a	GoodResponse	1	n/a	n/a	5	44	Fixation	Win	True
424.172	0.28	Win2	0.5778	0.002	Yes	2.976	-0.002	2.0	GoodResponse	1	0.212	423.384	5	44	Target	Win	True
424.384	0.3	Win2	0.5778	0.002	Yes	2.976	-0.002	2.0	GoodResponse	1	0.212	n/a	5	44	ButtonPress	Win	True
424.455	0.42	Win2	0.5778	n/a	Yes	2.976	n/a	n/a	GoodResponse	1	n/a	n/a	5	44	Blank	Win	True
424.872	1.45	Win2	0.5778	n/a	Yes	2.976	n/a	5.0	GoodResponse	1	0.027	423.899	5	44	Feedback	Win	True
426.322	2.976	Win2	0.5778	n/a	Yes	2.976	n/a	n/a	GoodResponse	1	0.0	n/a	5	44	ISIslide	Win	True
429.32	0.25	Control	0.5652	0.001	No	2.88	0.02	n/a	NoResponse	0	n/a	n/a	5	45	Cue	Neutral	True
429.57	4.1	Control	0.5652	0.0	No	2.88	0.0	n/a	NoResponse	0	n/a	n/a	5	45	Fixation	Neutral	True
433.669	0.29	Control	0.5652	0.001	No	2.88	-0.001	2.0	NoResponse	0	0.316	432.985	5	45	Target	Neutral	True
433.969	0.41	Control	0.5652	n/a	No	2.88	n/a	n/a	NoResponse	0	n/a	n/a	5	45	Blank	Neutral	True
433.985	0.3	Control	0.5652	0.001	No	2.88	-0.001	2.0	NoResponse	0	0.316	n/a	5	45	ButtonPress	Neutral	True
434.369	1.45	Control	0.5652	n/a	No	2.88	n/a	5.0	NoResponse	0	0.043	433.412	5	45	Feedback	Neutral	True
435.818	2.88	Control	0.5652	n/a	No	2.88	n/a	n/a	NoResponse	0	0.0	n/a	5	45	ISIslide	Neutral	True
438.717	0.25	Lose2	0.5745	0.0	Yes	3.383	0.017	n/a	GoodResponse	0	n/a	n/a	5	46	Cue	AvoidedLoss	True
438.967	4.0	Lose2	0.5745	0.0	Yes	3.383	0.0	n/a	GoodResponse	0	n/a	n/a	5	46	Fixation	AvoidedLoss	True
442.966	0.3	Lose2	0.5745	0.001	Yes	3.383	-0.001	2.0	GoodResponse	0	0.159	442.125	5	46	Target	AvoidedLoss	True
443.125	0.3	Lose2	0.5745	0.001	Yes	3.383	-0.001	2.0	GoodResponse	0	0.159	n/a	5	46	ButtonPress	AvoidedLoss	True
443.266	0.4	Lose2	0.5745	n/a	Yes	3.383	n/a	n/a	GoodResponse	0	n/a	n/a	5	46	Blank	AvoidedLoss	True
443.665	1.45	Lose2	0.5745	n/a	Yes	3.383	n/a	5.0	GoodResponse	0	0.015	442.68	5	46	Feedback	AvoidedLoss	True
445.115	3.383	Lose2	0.5745	n/a	Yes	3.383	n/a	n/a	GoodResponse	0	0.0	n/a	5	46	ISIslide	AvoidedLoss	True
448.53	0.25	Lose2	0.5832999999999999	0.001	Yes	2.67	0.03	n/a	GoodResponse	0	n/a	n/a	5	47	Cue	AvoidedLoss	True
448.78	4.0	Lose2	0.5832999999999999	0.0	Yes	2.67	0.0	n/a	GoodResponse	0	n/a	n/a	5	47	Fixation	AvoidedLoss	True
452.779	0.31	Lose2	0.5832999999999999	0.001	Yes	2.67	-0.001	2.0	GoodResponse	0	0.211	451.99	5	47	Target	AvoidedLoss	True
452.99	0.3	Lose2	0.5832999999999999	0.001	Yes	2.67	-0.001	2.0	GoodResponse	0	0.211	n/a	5	47	ButtonPress	AvoidedLoss	True
453.096	0.39	Lose2	0.5832999999999999	n/a	Yes	2.67	n/a	n/a	GoodResponse	0	n/a	n/a	5	47	Blank	AvoidedLoss	True
453.479	1.45	Lose2	0.5832999999999999	n/a	Yes	2.67	n/a	5.0	GoodResponse	0	0.007	452.486	5	47	Feedback	AvoidedLoss	True
454.928	2.67	Lose2	0.5832999999999999	n/a	Yes	2.67	n/a	n/a	GoodResponse	0	0.0	n/a	5	47	ISIslide	AvoidedLoss	True
457.627	0.25	Lose2	0.5918	0.0	Yes	3.023	0.027	n/a	GoodResponse	0	n/a	n/a	5	48	Cue	AvoidedLoss	True
457.877	3.95	Lose2	0.5918	0.0	Yes	3.023	0.0	n/a	GoodResponse	0	n/a	n/a	5	48	Fixation	AvoidedLoss	True
461.826	0.32	Lose2	0.5918	0.001	Yes	3.023	-0.001	2.0	GoodResponse	0	0.222	461.048	5	48	Target	AvoidedLoss	True
462.048	0.3	Lose2	0.5918	0.001	Yes	3.023	-0.001	2.0	GoodResponse	0	0.222	n/a	5	48	ButtonPress	AvoidedLoss	True
462.142	0.38	Lose2	0.5918	n/a	Yes	3.023	n/a	n/a	GoodResponse	0	n/a	n/a	5	48	Blank	AvoidedLoss	True
462.526	1.45	Lose2	0.5918	n/a	Yes	3.023	n/a	5.0	GoodResponse	0	0.032	461.558	5	48	Feedback	AvoidedLoss	True
463.975	3.023	Lose2	0.5918	n/a	Yes	3.023	n/a	n/a	GoodResponse	0	0.0	n/a	5	48	ISIslide	AvoidedLoss	True
467.024	0.25	Control	0.6	0.0	Yes	2.876	0.024	n/a	GoodResponse	0	n/a	n/a	5	49	Cue	Neutral	True
467.274	4.0	Control	0.6	0.0	Yes	2.876	0.0	n/a	GoodResponse	0	n/a	n/a	5	49	Fixation	Neutral	True
471.273	0.33	Control	0.6	0.001	Yes	2.876	-0.001	2.0	GoodResponse	0	0.22	470.493	5	49	Target	Neutral	True
471.493	0.3	Control	0.6	0.001	Yes	2.876	-0.001	2.0	GoodResponse	0	0.22	n/a	5	49	ButtonPress	Neutral	True
471.606	0.37	Control	0.6	n/a	Yes	2.876	n/a	n/a	GoodResponse	0	n/a	n/a	5	49	Blank	Neutral	True
471.972	1.45	Control	0.6	n/a	Yes	2.876	n/a	5.0	GoodResponse	0	0.001	470.973	5	49	Feedback	Neutral	True
473.422	2.876	Control	0.6	n/a	Yes	2.876	n/a	n/a	GoodResponse	0	0.0	n/a	5	49	ISIslide	Neutral	True
476.321	0.25	Control	0.6078	0.0	Yes	2.779	0.021	n/a	GoodResponse	0	n/a	n/a	5	50	Cue	Neutral	True
476.571	4.0	Control	0.6078	0.0	Yes	2.779	0.0	n/a	GoodResponse	0	n/a	n/a	5	50	Fixation	Neutral	True
480.569	0.34	Control	0.6078	0.002	Yes	2.779	-0.002	2.0	GoodResponse	0	0.226	479.795	5	50	Target	Neutral	True
480.795	0.3	Control	0.6078	0.002	Yes	2.779	-0.002	2.0	GoodResponse	0	0.226	n/a	5	50	ButtonPress	Neutral	True
480.919	0.36	Control	0.6078	n/a	Yes	2.779	n/a	n/a	GoodResponse	0	n/a	n/a	5	50	Blank	Neutral	True
481.269	1.45	Control	0.6078	n/a	Yes	2.779	n/a	5.0	GoodResponse	0	0.02	480.289	5	50	Feedback	Neutral	True
482.719	2.779	Control	0.6078	n/a	Yes	2.779	n/a	n/a	GoodResponse	0	0.0	n/a	5	50	ISIslide	Neutral	True
485.518	0.25	Control	0.5962	0.0	No	2.732	0.018	n/a	NoResponse	0	n/a	n/a	5	51	Cue	Neutral	True
485.768	3.95	Control	0.5962	0.0	No	2.732	0.0	2.0	NoResponse	0	3.734	488.502	5	51	Fixation	Neutral	True
489.502	0.3	Control	0.5962	0.0	No	2.732	0.0	2.0	NoResponse	0	3.734	n/a	5	51	ButtonPress	Neutral	True
489.716	0.35	Control	0.5962	0.002	No	2.732	-0.002	n/a	NoResponse	0	n/a	n/a	5	51	Target	Neutral	True
490.066	0.35	Control	0.5962	n/a	No	2.732	n/a	n/a	NoResponse	0	n/a	n/a	5	51	Blank	Neutral	True
490.416	1.45	Control	0.5962	n/a	No	2.732	n/a	5.0	NoResponse	0	0.044	489.46	5	51	Feedback	Neutral	True
491.866	2.732	Control	0.5962	n/a	No	2.732	n/a	n/a	NoResponse	0	0.0	n/a	5	51	ISIslide	Neutral	True
494.615	0.25	Control	0.6038	0.0	Yes	2.635	0.015	n/a	GoodResponse	0	n/a	n/a	5	52	Cue	Neutral	True
494.864	4.05	Control	0.6038	0.001	Yes	2.635	-0.001	n/a	GoodResponse	0	n/a	n/a	5	52	Fixation	Neutral	True
498.913	0.36	Control	0.6038	0.002	Yes	2.635	-0.002	2.0	GoodResponse	0	0.336	498.249	5	52	Target	Neutral	True
499.249	0.3	Control	0.6038	0.002	Yes	2.635	-0.002	2.0	GoodResponse	0	0.336	n/a	5	52	ButtonPress	Neutral	True
499.28	0.34	Control	0.6038	n/a	Yes	2.635	n/a	n/a	GoodResponse	0	n/a	n/a	5	52	Blank	Neutral	True
499.613	1.45	Control	0.6038	n/a	Yes	2.635	n/a	5.0	GoodResponse	0	0.018	498.631	5	52	Feedback	Neutral	True
501.062	2.635	Control	0.6038	n/a	Yes	2.635	n/a	n/a	GoodResponse	0	0.0	n/a	5	52	ISIslide	Neutral	True
503.728	0.25	Win2	0.6111	0.0	Yes	2.922	0.028	n/a	GoodResponse	1	n/a	n/a	6	53	Cue	Win	True
503.978	4.05	Win2	0.6111	0.0	Yes	2.922	0.0	n/a	GoodResponse	1	n/a	n/a	6	53	Fixation	Win	True
508.027	0.37	Win2	0.6111	0.001	Yes	2.922	-0.001	2.0	GoodResponse	1	0.223	507.25	6	53	Target	Win	True
508.25	0.3	Win2	0.6111	0.001	Yes	2.922	-0.001	2.0	GoodResponse	1	0.223	n/a	6	53	ButtonPress	Win	True
508.41	0.33	Win2	0.6111	n/a	Yes	2.922	n/a	n/a	GoodResponse	1	n/a	n/a	6	53	Blank	Win	True
508.726	1.45	Win2	0.6111	n/a	Yes	2.922	n/a	5.0	GoodResponse	1	0.027	507.753	6	53	Feedback	Win	True
510.176	2.922	Win2	0.6111	n/a	Yes	2.922	n/a	n/a	GoodResponse	1	0.0	n/a	6	53	ISIslide	Win	True
513.125	0.25	Win2	0.6182	0.0	Yes	2.725	0.025	n/a	GoodResponse	1	n/a	n/a	7	54	Cue	Win	True
513.375	3.95	Win2	0.6182	0.0	Yes	2.725	0.0	n/a	GoodResponse	1	n/a	n/a	7	54	Fixation	Win	True
517.323	0.38	Win2	0.6182	0.002	Yes	2.725	-0.002	2.0	GoodResponse	1	0.246	516.569	7	54	Target	Win	True
517.569	0.3	Win2	0.6182	0.002	Yes	2.725	-0.002	2.0	GoodResponse	1	0.246	n/a	7	54	ButtonPress	Win	True
517.707	0.32	Win2	0.6182	n/a	Yes	2.725	n/a	n/a	GoodResponse	1	n/a	n/a	7	54	Blank	Win	True
518.023	1.45	Win2	0.6182	n/a	Yes	2.725	n/a	5.0	GoodResponse	1	0.047	517.07	7	54	Feedback	Win	True
519.473	2.725	Win2	0.6182	n/a	Yes	2.725	n/a	n/a	GoodResponse	1	0.0	n/a	7	54	ISIslide	Win	True
522.222	0.25	Control	0.625	0.0	Yes	3.028	0.022	n/a	GoodResponse	0	n/a	n/a	7	55	Cue	Neutral	True
522.472	3.95	Control	0.625	0.0	Yes	3.028	0.0	n/a	GoodResponse	0	n/a	n/a	7	55	Fixation	Neutral	True
526.42	0.39	Control	0.625	0.002	Yes	3.028	-0.002	2.0	GoodResponse	0	0.278	525.698	7	55	Target	Neutral	True
526.698	0.3	Control	0.625	0.002	Yes	3.028	-0.002	2.0	GoodResponse	0	0.278	n/a	7	55	ButtonPress	Neutral	True
526.82	0.31	Control	0.625	n/a	Yes	3.028	n/a	n/a	GoodResponse	0	n/a	n/a	7	55	Blank	Neutral	True
527.12	1.45	Control	0.625	n/a	Yes	3.028	n/a	5.0	GoodResponse	0	0.024	526.144	7	55	Feedback	Neutral	True
528.569	3.028	Control	0.625	n/a	Yes	3.028	n/a	n/a	GoodResponse	0	0.0	n/a	7	55	ISIslide	Neutral	True
531.618	0.25	Control	0.614	0.0	No	2.832	0.018	n/a	NoResponse	0	n/a	n/a	7	56	Cue	Neutral	False
531.868	3.95	Control	0.614	0.0	No	2.832	0.0	n/a	NoResponse	0	n/a	n/a	7	56	Fixation	Neutral	False
535.817	0.4	Control	0.614	0.001	No	2.832	-0.001	n/a	NoResponse	0	n/a	n/a	7	56	Target	Neutral	False
536.217	0.3	Control	0.614	n/a	No	2.832	n/a	n/a	NoResponse	0	n/a	n/a	7	56	Blank	Neutral	False
536.517	1.45	Control	0.614	n/a	No	2.832	n/a	5.0	NoResponse	0	0.041	535.558	7	56	Feedback	Neutral	False
537.966	2.832	Control	0.614	n/a	No	2.832	n/a	n/a	NoResponse	0	0.0	n/a	7	56	ISIslide	Neutral	False
540.815	0.25	Control	0.6207	0.0	Yes	3.485	0.015	n/a	GoodResponse	0	n/a	n/a	7	57	Cue	Neutral	True
541.065	4.0	Control	0.6207	0.0	Yes	3.485	0.0	n/a	GoodResponse	0	n/a	n/a	7	57	Fixation	Neutral	True
545.064	0.41	Control	0.6207	0.001	Yes	3.485	-0.001	2.0	GoodResponse	0	0.269	544.333	7	57	Target	Neutral	True
545.333	0.3	Control	0.6207	0.001	Yes	3.485	-0.001	2.0	GoodResponse	0	0.269	n/a	7	57	ButtonPress	Neutral	True
545.48	0.29	Control	0.6207	n/a	Yes	3.485	n/a	n/a	GoodResponse	0	n/a	n/a	7	57	Blank	Neutral	True
545.764	1.45	Control	0.6207	n/a	Yes	3.485	n/a	5.0	GoodResponse	0	0.013	544.777	7	57	Feedback	Neutral	True
547.213	3.485	Control	0.6207	n/a	Yes	3.485	n/a	n/a	GoodResponse	0	0.0	n/a	7	57	ISIslide	Neutral	True
550.728	0.25	Win2	0.6271	0.001	Yes	2.722	0.028	n/a	GoodResponse	1	n/a	n/a	8	58	Cue	Win	True
550.978	4.05	Win2	0.6271	0.0	Yes	2.722	0.0	n/a	GoodResponse	1	n/a	n/a	8	58	Fixation	Win	True
555.027	0.42	Win2	0.6271	0.001	Yes	2.722	-0.001	2.0	GoodResponse	1	0.181	554.208	8	58	Target	Win	True
555.208	0.3	Win2	0.6271	0.001	Yes	2.722	-0.001	2.0	GoodResponse	1	0.181	n/a	8	58	ButtonPress	Win	True
555.444	0.28	Win2	0.6271	n/a	Yes	2.722	n/a	n/a	GoodResponse	1	n/a	n/a	8	58	Blank	Win	True
555.727	1.45	Win2	0.6271	n/a	Yes	2.722	n/a	5.0	GoodResponse	1	0.007	554.734	8	58	Feedback	Win	True
557.176	2.722	Win2	0.6271	n/a	Yes	2.722	n/a	n/a	GoodResponse	1	0.0	n/a	8	58	ISIslide	Win	True
559.925	0.25	Lose2	0.6167	0.0	No	2.675	0.025	n/a	NoResponse	-1	n/a	n/a	7	59	Cue	Loss	True
560.175	4.0	Lose2	0.6167	0.0	No	2.675	0.0	n/a	NoResponse	-1	n/a	n/a	7	59	Fixation	Loss	True
564.174	0.43	Lose2	0.6167	0.001	No	2.675	-0.001	2.0	NoResponse	-1	0.536	563.71	7	59	Target	Loss	True
564.607	0.27	Lose2	0.6167	n/a	No	2.675	n/a	n/a	NoResponse	-1	n/a	n/a	7	59	Blank	Loss	True
564.71	0.3	Lose2	0.6167	0.001	No	2.675	-0.001	2.0	NoResponse	-1	0.536	n/a	7	59	ButtonPress	Loss	True
564.874	1.45	Lose2	0.6167	n/a	No	2.675	n/a	5.0	NoResponse	-1	0.025	563.899	7	59	Feedback	Loss	True
566.323	2.675	Lose2	0.6167	n/a	No	2.675	n/a	n/a	NoResponse	-1	0.0	n/a	7	59	ISIslide	Loss	True
569.022	0.25	Control	0.623	0.0	Yes	2.678	0.022	n/a	GoodResponse	0	n/a	n/a	7	60	Cue	Neutral	True
569.272	4.0	Control	0.623	0.0	Yes	2.678	0.0	n/a	GoodResponse	0	n/a	n/a	7	60	Fixation	Neutral	True
573.271	0.44	Control	0.623	0.001	Yes	2.678	-0.001	2.0	GoodResponse	0	0.22	572.491	7	60	Target	Neutral	True
573.491	0.3	Control	0.623	0.001	Yes	2.678	-0.001	2.0	GoodResponse	0	0.22	n/a	7	60	ButtonPress	Neutral	True
573.721	0.26	Control	0.623	n/a	Yes	2.678	n/a	n/a	GoodResponse	0	n/a	n/a	7	60	Blank	Neutral	True
573.97	1.45	Control	0.623	n/a	Yes	2.678	n/a	5.0	GoodResponse	0	0.008	572.978	7	60	Feedback	Neutral	True
575.42	2.678	Control	0.623	n/a	Yes	2.678	n/a	n/a	GoodResponse	0	0.0	n/a	7	60	ISIslide	Neutral	True
578.119	0.25	Lose2	0.629	0.0	Yes	2.981	0.019	n/a	GoodResponse	0	n/a	n/a	7	61	Cue	AvoidedLoss	True
578.369	4.0	Lose2	0.629	0.0	Yes	2.981	0.0	n/a	GoodResponse	0	n/a	n/a	7	61	Fixation	AvoidedLoss	True
582.368	0.45	Lose2	0.629	0.001	Yes	2.981	-0.001	2.0	GoodResponse	0	0.282	581.65	7	61	Target	AvoidedLoss	True
582.65	0.3	Lose2	0.629	0.001	Yes	2.981	-0.001	2.0	GoodResponse	0	0.282	n/a	7	61	ButtonPress	AvoidedLoss	True
582.817	0.25	Lose2	0.629	n/a	Yes	2.981	n/a	n/a	GoodResponse	0	n/a	n/a	7	61	Blank	AvoidedLoss	True
583.067	1.45	Lose2	0.629	n/a	Yes	2.981	n/a	5.0	GoodResponse	0	0.028	582.095	7	61	Feedback	AvoidedLoss	True
584.517	2.981	Lose2	0.629	n/a	Yes	2.981	n/a	n/a	GoodResponse	0	0.0	n/a	7	61	ISIslide	AvoidedLoss	True
587.516	0.25	Lose2	0.6349	0.0	Yes	2.884	0.016	n/a	GoodResponse	0	n/a	n/a	7	62	Cue	AvoidedLoss	True
587.766	3.9	Lose2	0.6349	0.0	Yes	2.884	0.0	n/a	GoodResponse	0	n/a	n/a	7	62	Fixation	AvoidedLoss	True
591.664	0.46	Lose2	0.6349	0.002	Yes	2.884	-0.002	2.0	GoodResponse	0	0.245	590.909	7	62	Target	AvoidedLoss	True
591.909	0.3	Lose2	0.6349	0.002	Yes	2.884	-0.002	2.0	GoodResponse	0	0.245	n/a	7	62	ButtonPress	AvoidedLoss	True
592.131	0.24	Lose2	0.6349	n/a	Yes	2.884	n/a	n/a	GoodResponse	0	n/a	n/a	7	62	Blank	AvoidedLoss	True
592.364	1.45	Lose2	0.6349	n/a	Yes	2.884	n/a	5.0	GoodResponse	0	0.048	591.412	7	62	Feedback	AvoidedLoss	True
593.814	2.884	Lose2	0.6349	n/a	Yes	2.884	n/a	n/a	GoodResponse	0	0.0	n/a	7	62	ISIslide	AvoidedLoss	True
596.729	0.25	Lose2	0.6406000000000001	0.0	Yes	2.621	0.029	n/a	GoodResponse	0	n/a	n/a	7	63	Cue	AvoidedLoss	True
596.979	4.05	Lose2	0.6406000000000001	0.0	Yes	2.621	0.0	n/a	GoodResponse	0	n/a	n/a	7	63	Fixation	AvoidedLoss	True
601.028	0.47	Lose2	0.6406000000000001	0.001	Yes	2.621	-0.001	2.0	GoodResponse	0	0.165	600.193	7	63	Target	AvoidedLoss	True
601.193	0.3	Lose2	0.6406000000000001	0.001	Yes	2.621	-0.001	2.0	GoodResponse	0	0.165	n/a	7	63	ButtonPress	AvoidedLoss	True
601.511	0.23	Lose2	0.6406000000000001	n/a	Yes	2.621	n/a	n/a	GoodResponse	0	n/a	n/a	7	63	Blank	AvoidedLoss	True
601.728	1.45	Lose2	0.6406000000000001	n/a	Yes	2.621	n/a	5.0	GoodResponse	0	0.0	600.728	7	63	Feedback	AvoidedLoss	True
603.177	2.621	Lose2	0.6406000000000001	n/a	Yes	2.621	n/a	n/a	GoodResponse	0	0.0	n/a	7	63	ISIslide	AvoidedLoss	True
605.826	0.25	Win2	0.6462	0.0	Yes	3.124	0.026	n/a	GoodResponse	1	n/a	n/a	8	64	Cue	Win	True
606.076	4.15	Win2	0.6462	0.0	Yes	3.124	0.0	n/a	GoodResponse	1	n/a	n/a	8	64	Fixation	Win	True
610.225	0.48	Win2	0.6462	0.001	Yes	3.124	-0.001	2.0	GoodResponse	1	0.242	609.467	8	64	Target	Win	True
610.467	0.3	Win2	0.6462	0.001	Yes	3.124	-0.001	2.0	GoodResponse	1	0.242	n/a	8	64	ButtonPress	Win	True
610.708	0.22	Win2	0.6462	n/a	Yes	3.124	n/a	n/a	GoodResponse	1	n/a	n/a	8	64	Blank	Win	True
610.924	1.45	Win2	0.6462	n/a	Yes	3.124	n/a	5.0	GoodResponse	1	0.024	609.948	8	64	Feedback	Win	True
612.374	3.124	Win2	0.6462	n/a	Yes	3.124	n/a	n/a	GoodResponse	1	0.0	n/a	8	64	ISIslide	Win	True
615.523	0.25	Control	0.6515000000000001	0.0	Yes	2.777	0.023	n/a	GoodResponse	0	n/a	n/a	8	65	Cue	Neutral	True
615.773	4.0	Control	0.6515000000000001	0.0	Yes	2.777	0.0	n/a	GoodResponse	0	n/a	n/a	8	65	Fixation	Neutral	True
619.771	0.49	Control	0.6515000000000001	0.002	Yes	2.777	-0.002	2.0	GoodResponse	0	0.26	619.031	8	65	Target	Neutral	True
620.031	0.3	Control	0.6515000000000001	0.002	Yes	2.777	-0.002	2.0	GoodResponse	0	0.26	n/a	8	65	ButtonPress	Neutral	True
620.271	0.21	Control	0.6515000000000001	n/a	Yes	2.777	n/a	n/a	GoodResponse	0	n/a	n/a	8	65	Blank	Neutral	True
620.471	1.45	Control	0.6515000000000001	n/a	Yes	2.777	n/a	5.0	GoodResponse	0	0.038	619.509	8	65	Feedback	Neutral	True
621.921	2.777	Control	0.6515000000000001	n/a	Yes	2.777	n/a	n/a	GoodResponse	0	0.0	n/a	8	65	ISIslide	Neutral	True
624.72	0.25	Win2	0.6567000000000001	0.0	Yes	2.78	0.02	n/a	GoodResponse	1	n/a	n/a	9	66	Cue	Win	True
624.969	3.9	Win2	0.6567000000000001	0.001	Yes	2.78	-0.001	n/a	GoodResponse	1	n/a	n/a	9	66	Fixation	Win	True
628.868	0.5	Win2	0.6567000000000001	0.002	Yes	2.78	-0.002	2.0	GoodResponse	1	0.246	628.114	9	66	Target	Win	True
629.114	0.3	Win2	0.6567000000000001	0.002	Yes	2.78	-0.002	2.0	GoodResponse	1	0.246	n/a	9	66	ButtonPress	Win	True
629.368	0.2	Win2	0.6567000000000001	n/a	Yes	2.78	n/a	n/a	GoodResponse	1	n/a	n/a	9	66	Blank	Win	True
629.568	1.45	Win2	0.6567000000000001	n/a	Yes	2.78	n/a	5.0	GoodResponse	1	0.014	628.582	9	66	Feedback	Win	True
631.017	2.78	Win2	0.6567000000000001	n/a	Yes	2.78	n/a	n/a	GoodResponse	1	0.0	n/a	9	66	ISIslide	Win	True
633.816	0.25	Control	0.6618	0.0	Yes	2.734	0.016	n/a	GoodResponse	0	n/a	n/a	9	67	Cue	Neutral	True
634.066	3.95	Control	0.6618	0.0	Yes	2.734	0.0	n/a	GoodResponse	0	n/a	n/a	9	67	Fixation	Neutral	True
638.015	0.5	Control	0.6618	0.001	Yes	2.734	-0.001	2.0	GoodResponse	0	0.444	637.459	9	67	Target	Neutral	True
638.459	0.3	Control	0.6618	0.001	Yes	2.734	-0.001	2.0	GoodResponse	0	0.444	n/a	9	67	ButtonPress	Neutral	True
638.515	0.2	Control	0.6618	n/a	Yes	2.734	n/a	n/a	GoodResponse	0	n/a	n/a	9	67	Blank	Neutral	True
638.715	1.45	Control	0.6618	n/a	Yes	2.734	n/a	5.0	GoodResponse	0	0.038	637.753	9	67	Feedback	Neutral	True
640.164	2.734	Control	0.6618	n/a	Yes	2.734	n/a	n/a	GoodResponse	0	0.0	n/a	9	67	ISIslide	Neutral	True
642.93	0.25	Win2	0.6667000000000001	0.0	Yes	3.07	0.03	n/a	GoodResponse	1	n/a	n/a	10	68	Cue	Win	True
643.18	4.0	Win2	0.6667000000000001	0.0	Yes	3.07	0.0	n/a	GoodResponse	1	n/a	n/a	10	68	Fixation	Win	True
647.178	0.5	Win2	0.6667000000000001	0.002	Yes	3.07	-0.002	2.0	GoodResponse	1	0.266	646.444	10	68	Target	Win	True
647.444	0.3	Win2	0.6667000000000001	0.002	Yes	3.07	-0.002	2.0	GoodResponse	1	0.266	n/a	10	68	ButtonPress	Win	True
647.678	0.2	Win2	0.6667000000000001	n/a	Yes	3.07	n/a	n/a	GoodResponse	1	n/a	n/a	10	68	Blank	Win	True
647.878	1.45	Win2	0.6667000000000001	n/a	Yes	3.07	n/a	5.0	GoodResponse	1	0.046	646.924	10	68	Feedback	Win	True
649.328	3.07	Win2	0.6667000000000001	n/a	Yes	3.07	n/a	n/a	GoodResponse	1	0.0	n/a	10	68	ISIslide	Win	True
652.427	0.25	Win2	0.6714	0.0	Yes	3.223	0.027	n/a	GoodResponse	1	n/a	n/a	11	69	Cue	Win	True
652.677	3.95	Win2	0.6714	0.0	Yes	3.223	0.0	n/a	GoodResponse	1	n/a	n/a	11	69	Fixation	Win	True
656.625	0.49	Win2	0.6714	0.002	Yes	3.223	-0.002	2.0	GoodResponse	1	0.278	655.903	11	69	Target	Win	True
656.903	0.3	Win2	0.6714	0.002	Yes	3.223	-0.002	2.0	GoodResponse	1	0.278	n/a	11	69	ButtonPress	Win	True
657.125	0.21	Win2	0.6714	n/a	Yes	3.223	n/a	n/a	GoodResponse	1	n/a	n/a	11	69	Blank	Win	True
657.325	1.45	Win2	0.6714	n/a	Yes	3.223	n/a	5.0	GoodResponse	1	0.013	656.338	11	69	Feedback	Win	True
658.774	3.223	Win2	0.6714	n/a	Yes	3.223	n/a	n/a	GoodResponse	1	0.0	n/a	11	69	ISIslide	Win	True
662.023	0.25	Lose2	0.6761	0.0	Yes	3.027	0.023	n/a	GoodResponse	0	n/a	n/a	11	70	Cue	AvoidedLoss	True
662.273	4.05	Lose2	0.6761	0.0	Yes	3.027	0.0	n/a	GoodResponse	0	n/a	n/a	11	70	Fixation	AvoidedLoss	True
666.322	0.48	Lose2	0.6761	0.001	Yes	3.027	-0.001	2.0	GoodResponse	0	0.245	665.567	11	70	Target	AvoidedLoss	True
666.567	0.3	Lose2	0.6761	0.001	Yes	3.027	-0.001	2.0	GoodResponse	0	0.245	n/a	11	70	ButtonPress	AvoidedLoss	True
666.805	0.22	Lose2	0.6761	n/a	Yes	3.027	n/a	n/a	GoodResponse	0	n/a	n/a	11	70	Blank	AvoidedLoss	True
667.022	1.45	Lose2	0.6761	n/a	Yes	3.027	n/a	5.0	GoodResponse	0	0.023	666.045	11	70	Feedback	AvoidedLoss	True
668.471	3.027	Lose2	0.6761	n/a	Yes	3.027	n/a	n/a	GoodResponse	0	0.0	n/a	11	70	ISIslide	AvoidedLoss	True
671.52	0.25	Win2	0.6806	0.0	Yes	2.73	0.02	n/a	GoodResponse	1	n/a	n/a	12	71	Cue	Win	True
671.77	4.05	Win2	0.6806	0.0	Yes	2.73	0.0	n/a	GoodResponse	1	n/a	n/a	12	71	Fixation	Win	True
675.819	0.47	Win2	0.6806	0.001	Yes	2.73	-0.001	2.0	GoodResponse	1	0.211	675.03	12	71	Target	Win	True
676.03	0.3	Win2	0.6806	0.001	Yes	2.73	-0.001	2.0	GoodResponse	1	0.211	n/a	12	71	ButtonPress	Win	True
676.302	0.23	Win2	0.6806	n/a	Yes	2.73	n/a	n/a	GoodResponse	1	n/a	n/a	12	71	Blank	Win	True
676.518	1.45	Win2	0.6806	n/a	Yes	2.73	n/a	5.0	GoodResponse	1	0.039	675.557	12	71	Feedback	Win	True
677.968	2.73	Win2	0.6806	n/a	Yes	2.73	n/a	n/a	GoodResponse	1	0.0	n/a	12	71	ISIslide	Win	True
680.717	0.25	Win2	0.6849	0.0	Yes	2.783	0.017	n/a	GoodResponse	1	n/a	n/a	13	72	Cue	Win	True
680.967	4.1	Win2	0.6849	0.0	Yes	2.783	0.0	n/a	GoodResponse	1	n/a	n/a	13	72	Fixation	Win	True
685.065	0.46	Win2	0.6849	0.002	Yes	2.783	-0.002	2.0	GoodResponse	1	0.296	684.361	13	72	Target	Win	True
685.361	0.3	Win2	0.6849	0.002	Yes	2.783	-0.002	2.0	GoodResponse	1	0.296	n/a	13	72	ButtonPress	Win	True
685.532	0.24	Win2	0.6849	n/a	Yes	2.783	n/a	n/a	GoodResponse	1	n/a	n/a	13	72	Blank	Win	True
685.765	1.45	Win2	0.6849	n/a	Yes	2.783	n/a	5.0	GoodResponse	1	0.012	684.777	13	72	Feedback	Win	True
687.215	2.783	Win2	0.6849	n/a	Yes	2.783	n/a	n/a	GoodResponse	1	0.0	n/a	13	72	ISIslide	Win	True
690.014	0.25	Win2	0.6892	0.0	Yes	2.686	0.014	n/a	GoodResponse	1	n/a	n/a	14	73	Cue	Win	True
690.264	4.0	Win2	0.6892	0.0	Yes	2.686	0.0	n/a	GoodResponse	1	n/a	n/a	14	73	Fixation	Win	True
694.262	0.45	Win2	0.6892	0.002	Yes	2.686	-0.002	2.0	GoodResponse	1	0.32	693.582	14	73	Target	Win	True
694.582	0.3	Win2	0.6892	0.002	Yes	2.686	-0.002	2.0	GoodResponse	1	0.32	n/a	14	73	ButtonPress	Win	True
694.712	0.25	Win2	0.6892	n/a	Yes	2.686	n/a	n/a	GoodResponse	1	n/a	n/a	14	73	Blank	Win	True
694.962	1.45	Win2	0.6892	n/a	Yes	2.686	n/a	5.0	GoodResponse	1	0.034	693.996	14	73	Feedback	Win	True
696.411	2.686	Win2	0.6892	n/a	Yes	2.686	n/a	n/a	GoodResponse	1	0.0	n/a	14	73	ISIslide	Win	True
699.127	0.25	Lose2	0.6933	0.0	Yes	2.623	0.027	n/a	GoodResponse	0	n/a	n/a	14	74	Cue	AvoidedLoss	True
699.377	4.05	Lose2	0.6933	0.0	Yes	2.623	0.0	n/a	GoodResponse	0	n/a	n/a	14	74	Fixation	AvoidedLoss	True
703.426	0.44	Lose2	0.6933	0.001	Yes	2.623	-0.001	2.0	GoodResponse	0	0.259	702.685	14	74	Target	AvoidedLoss	True
703.685	0.3	Lose2	0.6933	0.001	Yes	2.623	-0.001	2.0	GoodResponse	0	0.259	n/a	14	74	ButtonPress	AvoidedLoss	True
703.876	0.26	Lose2	0.6933	n/a	Yes	2.623	n/a	n/a	GoodResponse	0	n/a	n/a	14	74	Blank	AvoidedLoss	True
704.125	1.45	Lose2	0.6933	n/a	Yes	2.623	n/a	5.0	GoodResponse	0	0.042	703.167	14	74	Feedback	AvoidedLoss	True
705.575	2.623	Lose2	0.6933	n/a	Yes	2.623	n/a	n/a	GoodResponse	0	0.0	n/a	14	74	ISIslide	AvoidedLoss	True
708.224	0.25	Lose2	0.6973999999999999	0.0	Yes	2.926	0.024	n/a	GoodResponse	0	n/a	n/a	14	75	Cue	AvoidedLoss	True
708.474	3.95	Lose2	0.6973999999999999	0.0	Yes	2.926	0.0	n/a	GoodResponse	0	n/a	n/a	14	75	Fixation	AvoidedLoss	True
712.423	0.43	Lose2	0.6973999999999999	0.001	Yes	2.926	-0.001	2.0	GoodResponse	0	0.307	711.73	14	75	Target	AvoidedLoss	True
712.73	0.3	Lose2	0.6973999999999999	0.001	Yes	2.926	-0.001	2.0	GoodResponse	0	0.307	n/a	14	75	ButtonPress	AvoidedLoss	True
712.856	0.27	Lose2	0.6973999999999999	n/a	Yes	2.926	n/a	n/a	GoodResponse	0	n/a	n/a	14	75	Blank	AvoidedLoss	True
713.122	1.45	Lose2	0.6973999999999999	n/a	Yes	2.926	n/a	5.0	GoodResponse	0	0.021	712.143	14	75	Feedback	AvoidedLoss	True
714.572	2.926	Lose2	0.6973999999999999	n/a	Yes	2.926	n/a	n/a	GoodResponse	0	0.0	n/a	14	75	ISIslide	AvoidedLoss	True
717.521	0.25	Control	0.7012999999999999	0.0	Yes	3.229	0.021	n/a	GoodResponse	0	n/a	n/a	14	76	Cue	Neutral	True
717.771	4.05	Control	0.7012999999999999	0.0	Yes	3.229	0.0	n/a	GoodResponse	0	n/a	n/a	14	76	Fixation	Neutral	True
721.819	0.42	Control	0.7012999999999999	0.002	Yes	3.229	-0.002	2.0	GoodResponse	0	0.313	721.132	14	76	Target	Neutral	True
722.132	0.3	Control	0.7012999999999999	0.002	Yes	3.229	-0.002	2.0	GoodResponse	0	0.313	n/a	14	76	ButtonPress	Neutral	True
722.253	0.28	Control	0.7012999999999999	n/a	Yes	3.229	n/a	n/a	GoodResponse	0	n/a	n/a	14	76	Blank	Neutral	True
722.519	1.45	Control	0.7012999999999999	n/a	Yes	3.229	n/a	5.0	GoodResponse	0	0.038	721.557	14	76	Feedback	Neutral	True
723.969	3.229	Control	0.7012999999999999	n/a	Yes	3.229	n/a	n/a	GoodResponse	0	0.0	n/a	14	76	ISIslide	Neutral	True
727.217	0.25	Lose2	0.6923	0.001	No	2.583	0.017	n/a	NoResponse	-1	n/a	n/a	13	77	Cue	Loss	True
727.467	3.95	Lose2	0.6923	0.0	No	2.583	0.0	n/a	NoResponse	-1	n/a	n/a	13	77	Fixation	Loss	True
731.416	0.41	Lose2	0.6923	0.001	No	2.583	-0.001	2.0	NoResponse	-1	0.63	731.046	13	77	Target	Loss	True
731.833	0.29	Lose2	0.6923	n/a	No	2.583	n/a	n/a	NoResponse	-1	n/a	n/a	13	77	Blank	Loss	True
732.046	0.3	Lose2	0.6923	0.001	No	2.583	-0.001	2.0	NoResponse	-1	0.63	n/a	13	77	ButtonPress	Loss	True
732.116	1.45	Lose2	0.6923	n/a	No	2.583	n/a	5.0	NoResponse	-1	0.007	731.123	13	77	Feedback	Loss	True
733.565	2.583	Lose2	0.6923	n/a	No	2.583	n/a	n/a	NoResponse	-1	0.0	n/a	13	77	ISIslide	Loss	True
