onset	duration	cue_type	current_mean_accuracy	duration_error	is_hit	isi_adjusted	onset_delay	response	response_type	reward	rt	rt_time	total_reward	trial_number	trial_phase	trial_type	one_press
11.107	0.25	Control	1.0	0.0	Yes	2.943	0.007	n/a	GoodResponse	0	n/a	n/a	0	0	Cue	Neutral	True
11.358	3.85	Control	1.0	0.0	Yes	2.943	0.001	n/a	GoodResponse	0	n/a	n/a	0	0	Fixation	Neutral	True
15.203	0.4	Control	1.0	0.004	Yes	2.943	-0.004	2.0	GoodResponse	0	0.229	14.432	0	0	Target	Neutral	True
15.432	0.3	Control	1.0	0.004	Yes	2.943	-0.004	2.0	GoodResponse	0	0.229	n/a	0	0	ButtonPress	Neutral	True
15.604	0.3	Control	1.0	n/a	Yes	2.943	n/a	n/a	GoodResponse	0	n/a	n/a	0	0	Blank	Neutral	True
15.905	1.45	Control	1.0	n/a	Yes	2.943	n/a	5.0	GoodResponse	0	0.021	14.926	0	0	Feedback	Neutral	True
17.359	2.943	Control	1.0	n/a	Yes	2.943	n/a	n/a	GoodResponse	0	0.0	n/a	0	0	ISIslide	Neutral	True
20.335	0.25	Lose2	1.0	0.0	Yes	2.765	0.035	n/a	GoodResponse	0	n/a	n/a	0	1	Cue	AvoidedLoss	True
20.585	4.0	Lose2	1.0	0.0	Yes	2.765	0.0	n/a	GoodResponse	0	n/a	n/a	0	1	Fixation	AvoidedLoss	True
24.581	0.39	Lose2	1.0	0.004	Yes	2.765	-0.004	2.0	GoodResponse	0	0.202	23.783	0	1	Target	AvoidedLoss	True
24.783	0.3	Lose2	1.0	0.004	Yes	2.765	-0.004	2.0	GoodResponse	0	0.202	n/a	0	1	ButtonPress	AvoidedLoss	True
24.982	0.31	Lose2	1.0	n/a	Yes	2.765	n/a	n/a	GoodResponse	0	n/a	n/a	0	1	Blank	AvoidedLoss	True
25.283	1.45	Lose2	1.0	n/a	Yes	2.765	n/a	5.0	GoodResponse	0	0.009	24.292	0	1	Feedback	AvoidedLoss	True
26.737	2.765	Lose2	1.0	n/a	Yes	2.765	n/a	n/a	GoodResponse	0	0.0	n/a	0	1	ISIslide	AvoidedLoss	True
29.529	0.25	Control	1.0	0.0	Yes	2.571	0.029	n/a	GoodResponse	0	n/a	n/a	0	2	Cue	Neutral	True
29.779	4.1	Control	1.0	0.001	Yes	2.571	0.0	n/a	GoodResponse	0	n/a	n/a	0	2	Fixation	Neutral	True
33.875	0.38	Control	1.0	0.004	Yes	2.571	-0.004	2.0	GoodResponse	0	0.204	33.079	0	2	Target	Neutral	True
34.079	0.3	Control	1.0	0.004	Yes	2.571	-0.004	2.0	GoodResponse	0	0.204	n/a	0	2	ButtonPress	Neutral	True
34.26	0.32	Control	1.0	n/a	Yes	2.571	n/a	n/a	GoodResponse	0	n/a	n/a	0	2	Blank	Neutral	True
34.577	1.45	Control	1.0	n/a	Yes	2.571	n/a	5.0	GoodResponse	0	0.032	33.609	0	2	Feedback	Neutral	True
36.032	2.571	Control	1.0	n/a	Yes	2.571	n/a	n/a	GoodResponse	0	0.0	n/a	0	2	ISIslide	Neutral	True
38.623	0.25	Win2	1.0	0.0	Yes	2.827	0.023	n/a	GoodResponse	1	n/a	n/a	1	3	Cue	Win	True
38.873	3.95	Win2	1.0	0.0	Yes	2.827	0.0	n/a	GoodResponse	1	n/a	n/a	1	3	Fixation	Win	True
42.835	0.37	Win2	1.0	0.0	Yes	2.827	0.012	2.0	GoodResponse	1	0.334	42.169	1	3	Target	Win	True
43.169	0.3	Win2	1.0	0.0	Yes	2.827	0.012	2.0	GoodResponse	1	0.334	n/a	1	3	ButtonPress	Win	True
43.203	0.33	Win2	1.0	n/a	Yes	2.827	n/a	n/a	GoodResponse	1	n/a	n/a	1	3	Blank	Win	True
43.521	1.45	Win2	1.0	n/a	Yes	2.827	n/a	5.0	GoodResponse	1	0.015	42.536	1	3	Feedback	Win	True
44.975	2.827	Win2	1.0	n/a	Yes	2.827	n/a	n/a	GoodResponse	1	0.0	n/a	1	3	ISIslide	Win	True
47.817	0.25	Win2	1.0	0.0	Yes	3.283	0.017	n/a	GoodResponse	1	n/a	n/a	2	4	Cue	Win	True
48.068	4.0	Win2	1.0	0.0	Yes	3.283	0.001	n/a	GoodResponse	1	n/a	n/a	2	4	Fixation	Win	True
52.063	0.36	Win2	1.0	0.004	Yes	3.283	-0.004	2.0	GoodResponse	1	0.233	51.296	2	4	Target	Win	True
52.296	0.3	Win2	1.0	0.004	Yes	3.283	-0.004	2.0	GoodResponse	1	0.233	n/a	2	4	ButtonPress	Win	True
52.431	0.34	Win2	1.0	n/a	Yes	3.283	n/a	n/a	GoodResponse	1	n/a	n/a	2	4	Blank	Win	True
52.765	1.45	Win2	1.0	n/a	Yes	3.283	n/a	5.0	GoodResponse	1	0.038	51.803	2	4	Feedback	Win	True
54.219	3.283	Win2	1.0	n/a	Yes	3.283	n/a	n/a	GoodResponse	1	0.0	n/a	2	4	ISIslide	Win	True
57.529	0.25	Win2	1.0	0.0	Yes	2.771	0.029	n/a	GoodResponse	1	n/a	n/a	3	5	Cue	Win	True
57.78	4.0	Win2	1.0	0.0	Yes	2.771	0.001	n/a	GoodResponse	1	n/a	n/a	3	5	Fixation	Win	True
61.775	0.35	Win2	1.0	0.004	Yes	2.771	-0.004	2.0	GoodResponse	1	0.225	61.0	3	5	Target	Win	True
62	0.3	Win2	1.0	0.004	Yes	2.771	-0.004	2.0	GoodResponse	1	0.225	n/a	3	5	ButtonPress	Win	True
62.126	0.35	Win2	1.0	n/a	Yes	2.771	n/a	n/a	GoodResponse	1	n/a	n/a	3	5	Blank	Win	True
62.477	1.45	Win2	1.0	n/a	Yes	2.771	n/a	5.0	GoodResponse	1	0.034	61.511	3	5	Feedback	Win	True
63.932	2.771	Win2	1.0	n/a	Yes	2.771	n/a	n/a	GoodResponse	1	0.0	n/a	3	5	ISIslide	Win	True
66.723	0.25	Lose2	1.0	0.0	Yes	2.727	0.023	n/a	GoodResponse	0	n/a	n/a	3	6	Cue	AvoidedLoss	True
66.974	3.95	Lose2	1.0	0.0	Yes	2.727	0.001	n/a	GoodResponse	0	n/a	n/a	3	6	Fixation	AvoidedLoss	True
70.919	0.34	Lose2	1.0	0.004	Yes	2.727	-0.004	2.0	GoodResponse	0	0.221	70.14	3	6	Target	AvoidedLoss	True
71.14	0.3	Lose2	1.0	0.004	Yes	2.727	-0.004	2.0	GoodResponse	0	0.221	n/a	3	6	ButtonPress	AvoidedLoss	True
71.27	0.36	Lose2	1.0	n/a	Yes	2.727	n/a	n/a	GoodResponse	0	n/a	n/a	3	6	Blank	AvoidedLoss	True
71.621	1.45	Lose2	1.0	n/a	Yes	2.727	n/a	5.0	GoodResponse	0	0.012	70.633	3	6	Feedback	AvoidedLoss	True
73.076	2.727	Lose2	1.0	n/a	Yes	2.727	n/a	n/a	GoodResponse	0	0.0	n/a	3	6	ISIslide	AvoidedLoss	True
75.817	0.25	Lose2	1.0	0.0	Yes	4.033	0.017	n/a	GoodResponse	0	n/a	n/a	3	7	Cue	AvoidedLoss	False
76.068	4.05	Lose2	1.0	0.0	Yes	4.033	0.001	2.0	GoodResponse	0	3.596	78.664	3	7	Fixation	AvoidedLoss	False
79.664	0.3	Lose2	1.0	0.0	Yes	4.033	0.001	2.0	GoodResponse	0	3.596	n/a	3	7	ButtonPress	AvoidedLoss	False
80.113	0.33	Lose2	1.0	0.004	Yes	4.033	-0.004	2.0	GoodResponse	0	0.195	79.308	3	7	Target	AvoidedLoss	False
80.308	0.3	Lose2	1.0	0.004	Yes	4.033	-0.004	2.0	GoodResponse	0	0.195	n/a	3	7	ButtonPress	AvoidedLoss	False
80.448	0.37	Lose2	1.0	n/a	Yes	4.033	n/a	n/a	GoodResponse	0	n/a	n/a	3	7	Blank	AvoidedLoss	False
80.815	1.45	Lose2	1.0	n/a	Yes	4.033	n/a	5.0	GoodResponse	0	0.037	79.852	3	7	Feedback	AvoidedLoss	False
82.27	4.033	Lose2	1.0	n/a	Yes	4.033	n/a	n/a	GoodResponse	0	0.0	n/a	3	7	ISIslide	AvoidedLoss	False
86.315	0.25	Lose2	1.0	0.0	Yes	3.035	0.015	n/a	GoodResponse	0	n/a	n/a	3	8	Cue	AvoidedLoss	True
86.566	3.95	Lose2	1.0	0.0	Yes	3.035	0.001	n/a	GoodResponse	0	n/a	n/a	3	8	Fixation	AvoidedLoss	True
90.511	0.32	Lose2	1.0	0.004	Yes	3.035	-0.004	2.0	GoodResponse	0	0.235	89.746	3	8	Target	AvoidedLoss	True
90.746	0.3	Lose2	1.0	0.004	Yes	3.035	-0.004	2.0	GoodResponse	0	0.235	n/a	3	8	ButtonPress	AvoidedLoss	True
90.845	0.38	Lose2	1.0	n/a	Yes	3.035	n/a	n/a	GoodResponse	0	n/a	n/a	3	8	Blank	AvoidedLoss	True
91.213	1.45	Lose2	1.0	n/a	Yes	3.035	n/a	5.0	GoodResponse	0	0.029	90.242	3	8	Feedback	AvoidedLoss	True
92.668	3.035	Lose2	1.0	n/a	Yes	3.035	n/a	n/a	GoodResponse	0	0.0	n/a	3	8	ISIslide	AvoidedLoss	True
95.727	0.25	Lose2	1.0	0.0	Yes	3.123	0.027	n/a	GoodResponse	0	n/a	n/a	3	9	Cue	AvoidedLoss	True
95.977	3.95	Lose2	1.0	0.001	Yes	3.123	0.0	n/a	GoodResponse	0	n/a	n/a	3	9	Fixation	AvoidedLoss	True
99.923	0.31	Lose2	1.0	0.004	Yes	3.123	-0.004	2.0	GoodResponse	0	0.238	99.161	3	9	Target	AvoidedLoss	True
100.161	0.3	Lose2	1.0	0.004	Yes	3.123	-0.004	2.0	GoodResponse	0	0.238	n/a	3	9	ButtonPress	AvoidedLoss	True
100.24	0.39	Lose2	1.0	n/a	Yes	3.123	n/a	n/a	GoodResponse	0	n/a	n/a	3	9	Blank	AvoidedLoss	True
100.625	1.45	Lose2	1.0	n/a	Yes	3.123	n/a	5.0	GoodResponse	0	0.031	99.656	3	9	Feedback	AvoidedLoss	True
102.079	3.123	Lose2	1.0	n/a	Yes	3.123	n/a	n/a	GoodResponse	0	0.0	n/a	3	9	ISIslide	AvoidedLoss	True
105.222	0.25	Control	1.0	0.0	Yes	3.278	0.022	n/a	GoodResponse	0	n/a	n/a	3	10	Cue	Neutral	True
105.472	4.0	Control	1.0	0.001	Yes	3.278	0.0	n/a	GoodResponse	0	n/a	n/a	3	10	Fixation	Neutral	True
109.468	0.3	Control	1.0	0.004	Yes	3.278	-0.004	2.0	GoodResponse	0	0.214	108.682	3	10	Target	Neutral	True
109.682	0.3	Control	1.0	0.004	Yes	3.278	-0.004	2.0	GoodResponse	0	0.214	n/a	3	10	ButtonPress	Neutral	True
109.769	0.4	Control	1.0	n/a	Yes	3.278	n/a	n/a	GoodResponse	0	n/a	n/a	3	10	Blank	Neutral	True
110.17	1.45	Control	1.0	n/a	Yes	3.278	n/a	5.0	GoodResponse	0	0.047	109.217	3	10	Feedback	Neutral	True
111.624	3.278	Control	1.0	n/a	Yes	3.278	n/a	n/a	GoodResponse	0	0.0	n/a	3	10	ISIslide	Neutral	True
114.917	0.25	Lose2	1.0	0.0	Yes	2.733	0.017	n/a	GoodResponse	0	n/a	n/a	3	11	Cue	AvoidedLoss	True
115.168	4.05	Lose2	1.0	0.0	Yes	2.733	0.001	n/a	GoodResponse	0	n/a	n/a	3	11	Fixation	AvoidedLoss	True
119.214	0.29	Lose2	1.0	0.003	Yes	2.733	-0.003	2.0	GoodResponse	0	0.23	118.444	3	11	Target	AvoidedLoss	True
119.444	0.3	Lose2	1.0	0.003	Yes	2.733	-0.003	2.0	GoodResponse	0	0.23	n/a	3	11	ButtonPress	AvoidedLoss	True
119.514	0.41	Lose2	1.0	n/a	Yes	2.733	n/a	n/a	GoodResponse	0	n/a	n/a	3	11	Blank	AvoidedLoss	True
119.916	1.45	Lose2	1.0	n/a	Yes	2.733	n/a	5.0	GoodResponse	0	0.009	118.925	3	11	Feedback	AvoidedLoss	True
121.37	2.733	Lose2	1.0	n/a	Yes	2.733	n/a	n/a	GoodResponse	0	0.0	n/a	3	11	ISIslide	AvoidedLoss	True
124.128	0.25	Control	1.0	0.0	Yes	2.972	0.028	n/a	GoodResponse	0	n/a	n/a	3	12	Cue	Neutral	True
124.379	3.9	Control	1.0	0.0	Yes	2.972	0.001	n/a	GoodResponse	0	n/a	n/a	3	12	Fixation	Neutral	True
128.274	0.28	Control	1.0	0.004	Yes	2.972	-0.004	2.0	GoodResponse	0	0.198	127.472	3	12	Target	Neutral	True
128.472	0.3	Control	1.0	0.004	Yes	2.972	-0.004	2.0	GoodResponse	0	0.198	n/a	3	12	ButtonPress	Neutral	True
128.558	0.42	Control	1.0	n/a	Yes	2.972	n/a	n/a	GoodResponse	0	n/a	n/a	3	12	Blank	Neutral	True
128.976	1.45	Control	1.0	n/a	Yes	2.972	n/a	5.0	GoodResponse	0	0.022	127.998	3	12	Feedback	Neutral	True
130.43	2.972	Control	1.0	n/a	Yes	2.972	n/a	n/a	GoodResponse	0	0.0	n/a	3	12	ISIslide	Neutral	True
133.423	0.25	Control	1.0	0.0	Yes	2.777	0.023	n/a	GoodResponse	0	n/a	n/a	3	13	Cue	Neutral	False
133.673	4.0	Control	1.0	0.001	Yes	2.777	0.0	2.0	GoodResponse	0	0.082	132.755	3	13	Fixation	Neutral	False
133.755	0.3	Control	1.0	0.001	Yes	2.777	0.0	2.0	GoodResponse	0	0.082	n/a	3	13	ButtonPress	Neutral	False
137.669	0.27	Control	1.0	0.004	Yes	2.777	-0.004	2.0	GoodResponse	0	0.227	136.896	3	13	Target	Neutral	False
137.896	0.3	Control	1.0	0.004	Yes	2.777	-0.004	2.0	GoodResponse	0	0.227	n/a	3	13	ButtonPress	Neutral	False
137.953	0.43	Control	1.0	n/a	Yes	2.777	n/a	n/a	GoodResponse	0	n/a	n/a	3	13	Blank	Neutral	False
138.371	1.45	Control	1.0	n/a	Yes	2.777	n/a	5.0	GoodResponse	0	0.041	137.412	3	13	Feedback	Neutral	False
139.825	2.777	Control	1.0	n/a	Yes	2.777	n/a	n/a	GoodResponse	0	0.0	n/a	3	13	ISIslide	Neutral	False
142.617	0.25	Win2	0.9333	0.0	No	2.683	0.017	n/a	NoResponse	0	n/a	n/a	3	14	Cue	MissedWin	True
142.868	4.1	Win2	0.9333	0.0	No	2.683	0.001	n/a	NoResponse	0	n/a	n/a	3	14	Fixation	MissedWin	True
146.963	0.26	Win2	0.9333	0.004	No	2.683	-0.004	2.0	NoResponse	0	0.294	146.257	3	14	Target	MissedWin	True
147.231	0.44	Win2	0.9333	n/a	No	2.683	n/a	n/a	NoResponse	0	n/a	n/a	3	14	Blank	MissedWin	True
147.257	0.3	Win2	0.9333	0.004	No	2.683	-0.004	2.0	NoResponse	0	0.294	n/a	3	14	ButtonPress	MissedWin	True
147.665	1.45	Win2	0.9333	n/a	No	2.683	n/a	5.0	NoResponse	0	0.015	146.68	3	14	Feedback	MissedWin	True
149.12	2.683	Win2	0.9333	n/a	No	2.683	n/a	n/a	NoResponse	0	0.0	n/a	3	14	ISIslide	MissedWin	True
151.828	0.25	Control	0.875	0.0	No	2.972	0.028	n/a	NoResponse	0	n/a	n/a	3	15	Cue	Neutral	True
152.078	4.0	Control	0.875	0.001	No	2.972	0.0	n/a	NoResponse	0	n/a	n/a	3	15	Fixation	Neutral	True
156.074	0.25	Control	0.875	0.004	No	2.972	-0.004	2.0	NoResponse	0	0.262	155.336	3	15	Target	Neutral	True
156.325	0.45	Control	0.875	n/a	No	2.972	n/a	n/a	NoResponse	0	n/a	n/a	3	15	Blank	Neutral	True
156.336	0.3	Control	0.875	0.004	No	2.972	-0.004	2.0	NoResponse	0	0.262	n/a	3	15	ButtonPress	Neutral	True
156.776	1.45	Control	0.875	n/a	No	2.972	n/a	5.0	NoResponse	0	0.026	155.802	3	15	Feedback	Neutral	True
158.23	2.972	Control	0.875	n/a	No	2.972	n/a	n/a	NoResponse	0	0.0	n/a	3	15	ISIslide	Neutral	True
161.222	0.25	Win2	0.8234999999999999	0.001	No	2.878	0.022	n/a	NoResponse	0	n/a	n/a	3	16	Cue	MissedWin	True
161.473	4.0	Win2	0.8234999999999999	0.0	No	2.878	0.001	n/a	NoResponse	0	n/a	n/a	3	16	Fixation	MissedWin	True
165.469	0.24	Win2	0.8234999999999999	0.003	No	2.878	-0.003	2.0	NoResponse	0	0.288	164.757	3	16	Target	MissedWin	True
165.719	0.46	Win2	0.8234999999999999	n/a	No	2.878	n/a	n/a	NoResponse	0	n/a	n/a	3	16	Blank	MissedWin	True
165.757	0.3	Win2	0.8234999999999999	0.003	No	2.878	-0.003	2.0	NoResponse	0	0.288	n/a	3	16	ButtonPress	MissedWin	True
166.171	1.45	Win2	0.8234999999999999	n/a	No	2.878	n/a	5.0	NoResponse	0	0.046	165.217	3	16	Feedback	MissedWin	True
167.625	2.878	Win2	0.8234999999999999	n/a	No	2.878	n/a	n/a	NoResponse	0	0.0	n/a	3	16	ISIslide	MissedWin	True
170.517	0.25	Lose2	0.7778	0.0	No	2.733	0.017	n/a	NoResponse	-1	n/a	n/a	2	17	Cue	Loss	True
170.768	3.95	Lose2	0.7778	0.0	No	2.733	0.001	n/a	NoResponse	-1	n/a	n/a	2	17	Fixation	Loss	True
174.713	0.23	Lose2	0.7778	0.004	No	2.733	-0.004	2.0	NoResponse	-1	0.25	173.963	2	17	Target	Loss	True
174.947	0.47	Lose2	0.7778	n/a	No	2.733	n/a	n/a	NoResponse	-1	n/a	n/a	2	17	Blank	Loss	True
174.963	0.3	Lose2	0.7778	0.004	No	2.733	-0.004	2.0	NoResponse	-1	0.25	n/a	2	17	ButtonPress	Loss	True
175.415	1.45	Lose2	0.7778	n/a	No	2.733	n/a	5.0	NoResponse	-1	0.021	174.436	2	17	Feedback	Loss	True
176.869	2.733	Lose2	0.7778	n/a	No	2.733	n/a	n/a	NoResponse	-1	0.0	n/a	2	17	ISIslide	Loss	True
179.628	0.25	Lose2	0.7895	0.0	Yes	2.722	0.028	n/a	GoodResponse	0	n/a	n/a	2	18	Cue	AvoidedLoss	True
179.878	4.05	Lose2	0.7895	0.0	Yes	2.722	0.0	n/a	GoodResponse	0	n/a	n/a	2	18	Fixation	AvoidedLoss	True
183.924	0.22	Lose2	0.7895	0.004	Yes	2.722	-0.004	2.0	GoodResponse	0	0.197	183.121	2	18	Target	AvoidedLoss	True
184.121	0.3	Lose2	0.7895	0.004	Yes	2.722	-0.004	2.0	GoodResponse	0	0.197	n/a	2	18	ButtonPress	AvoidedLoss	True
184.158	0.48	Lose2	0.7895	n/a	Yes	2.722	n/a	n/a	GoodResponse	0	n/a	n/a	2	18	Blank	AvoidedLoss	True
184.626	1.45	Lose2	0.7895	n/a	Yes	2.722	n/a	5.0	GoodResponse	0	0.029	183.655	2	18	Feedback	AvoidedLoss	True
186.08	2.722	Lose2	0.7895	n/a	Yes	2.722	n/a	n/a	GoodResponse	0	0.0	n/a	2	18	ISIslide	AvoidedLoss	True
188.822	0.25	Control	0.8	0.0	Yes	2.928	0.022	n/a	GoodResponse	0	n/a	n/a	2	19	Cue	Neutral	True
189.072	3.95	Control	0.8	0.001	Yes	2.928	0.0	n/a	GoodResponse	0	n/a	n/a	2	19	Fixation	Neutral	True
193.018	0.21	Control	0.8	0.004	Yes	2.928	-0.004	2.0	GoodResponse	0	0.204	192.222	2	19	Target	Neutral	True
193.222	0.3	Control	0.8	0.004	Yes	2.928	-0.004	2.0	GoodResponse	0	0.204	n/a	2	19	ButtonPress	Neutral	True
193.235	0.49	Control	0.8	n/a	Yes	2.928	n/a	n/a	GoodResponse	0	n/a	n/a	2	19	Blank	Neutral	True
193.72	1.45	Control	0.8	n/a	Yes	2.928	n/a	5.0	GoodResponse	0	0.009	192.729	2	19	Feedback	Neutral	True
195.174	2.928	Control	0.8	n/a	Yes	2.928	n/a	n/a	GoodResponse	0	0.0	n/a	2	19	ISIslide	Neutral	True
198.116	0.25	Control	0.7619	0.0	No	2.634	0.016	n/a	LatePress	0	n/a	n/a	2	20	Cue	Neutral	True
198.367	4.05	Control	0.7619	0.0	No	2.634	0.001	n/a	LatePress	0	n/a	n/a	2	20	Fixation	Neutral	True
202.412	0.2	Control	0.7619	0.004	No	2.634	-0.004	2.0	LatePress	0	0.202	201.614	2	20	Target	Neutral	True
202.613	0.5	Control	0.7619	n/a	No	2.634	n/a	n/a	LatePress	0	n/a	n/a	2	20	Blank	Neutral	True
202.614	0.3	Control	0.7619	0.004	No	2.634	-0.004	2.0	LatePress	0	0.202	n/a	2	20	ButtonPress	Neutral	True
203.114	1.45	Control	0.7619	n/a	No	2.634	n/a	5.0	LatePress	0	0.029	202.143	2	20	Feedback	Neutral	True
204.569	2.634	Control	0.7619	n/a	No	2.634	n/a	n/a	LatePress	0	0.0	n/a	2	20	ISIslide	Neutral	True
207.227	0.25	Control	0.7273000000000001	0.0	No	2.773	0.027	n/a	NoResponse	0	n/a	n/a	2	21	Cue	Neutral	True
207.477	4.1	Control	0.7273000000000001	0.001	No	2.773	0.0	n/a	NoResponse	0	n/a	n/a	2	21	Fixation	Neutral	True
211.573	0.19	Control	0.7273000000000001	0.004	No	2.773	-0.004	2.0	NoResponse	0	0.212	210.785	2	21	Target	Neutral	True
211.774	0.51	Control	0.7273000000000001	n/a	No	2.773	n/a	n/a	NoResponse	0	n/a	n/a	2	21	Blank	Neutral	True
211.785	0.3	Control	0.7273000000000001	0.004	No	2.773	-0.004	2.0	NoResponse	0	0.212	n/a	2	21	ButtonPress	Neutral	True
212.275	1.45	Control	0.7273000000000001	n/a	No	2.773	n/a	5.0	NoResponse	0	0.039	211.314	2	21	Feedback	Neutral	True
213.729	2.773	Control	0.7273000000000001	n/a	No	2.773	n/a	n/a	NoResponse	0	0.0	n/a	2	21	ISIslide	Neutral	True
216.521	0.25	Control	0.6957	0.0	No	2.779	0.021	n/a	NoResponse	0	n/a	n/a	2	22	Cue	Neutral	True
216.772	4.0	Control	0.6957	0.0	No	2.779	0.001	n/a	NoResponse	0	n/a	n/a	2	22	Fixation	Neutral	True
220.767	0.18	Control	0.6957	0.004	No	2.779	-0.004	2.0	NoResponse	0	0.304	220.071	2	22	Target	Neutral	True
220.951	0.52	Control	0.6957	n/a	No	2.779	n/a	n/a	NoResponse	0	n/a	n/a	2	22	Blank	Neutral	True
221.071	0.3	Control	0.6957	0.004	No	2.779	-0.004	2.0	NoResponse	0	0.304	n/a	2	22	ButtonPress	Neutral	True
221.469	1.45	Control	0.6957	n/a	No	2.779	n/a	5.0	NoResponse	0	0.015	220.484	2	22	Feedback	Neutral	True
222.924	2.779	Control	0.6957	n/a	No	2.779	n/a	n/a	NoResponse	0	0.0	n/a	2	22	ISIslide	Neutral	True
225.715	0.25	Control	0.6667000000000001	0.0	No	2.785	0.015	n/a	NoResponse	0	n/a	n/a	2	23	Cue	Neutral	True
225.966	3.9	Control	0.6667000000000001	0.0	No	2.785	0.001	n/a	NoResponse	0	n/a	n/a	2	23	Fixation	Neutral	True
229.861	0.17	Control	0.6667000000000001	0.004	No	2.785	-0.004	2.0	NoResponse	0	0.236	229.097	2	23	Target	Neutral	True
230.045	0.53	Control	0.6667000000000001	n/a	No	2.785	n/a	n/a	NoResponse	0	n/a	n/a	2	23	Blank	Neutral	True
230.097	0.3	Control	0.6667000000000001	0.004	No	2.785	-0.004	2.0	NoResponse	0	0.236	n/a	2	23	ButtonPress	Neutral	True
230.563	1.45	Control	0.6667000000000001	n/a	No	2.785	n/a	5.0	NoResponse	0	0.043	229.606	2	23	Feedback	Neutral	True
232.018	2.785	Control	0.6667000000000001	n/a	No	2.785	n/a	n/a	NoResponse	0	0.0	n/a	2	23	ISIslide	Neutral	True
234.826	0.25	Win2	0.64	0.0	No	3.124	0.026	n/a	NoResponse	0	n/a	n/a	2	24	Cue	MissedWin	True
235.077	3.95	Win2	0.64	0.0	No	3.124	0.001	n/a	NoResponse	0	n/a	n/a	2	24	Fixation	MissedWin	True
239.022	0.16	Win2	0.64	0.004	No	3.124	-0.004	2.0	NoResponse	0	0.223	238.245	2	24	Target	MissedWin	True
239.189	0.54	Win2	0.64	n/a	No	3.124	n/a	n/a	NoResponse	0	n/a	n/a	2	24	Blank	MissedWin	True
239.245	0.3	Win2	0.64	0.004	No	3.124	-0.004	2.0	NoResponse	0	0.223	n/a	2	24	ButtonPress	MissedWin	True
239.724	1.45	Win2	0.64	n/a	No	3.124	n/a	5.0	NoResponse	0	0.008	238.732	2	24	Feedback	MissedWin	True
241.178	3.124	Win2	0.64	n/a	No	3.124	n/a	n/a	NoResponse	0	0.0	n/a	2	24	ISIslide	MissedWin	True
244.321	0.25	Win2	0.6154	0.0	No	3.079	0.021	n/a	NoResponse	0	n/a	n/a	2	25	Cue	MissedWin	False
244.572	4.0	Win2	0.6154	0.0	No	3.079	0.001	2.0	NoResponse	0	3.265	246.837	2	25	Fixation	MissedWin	False
247.837	0.3	Win2	0.6154	0.0	No	3.079	0.001	2.0	NoResponse	0	3.265	n/a	2	25	ButtonPress	MissedWin	False
248.567	0.17	Win2	0.6154	0.004	No	3.079	-0.004	2.0	NoResponse	0	0.192	247.759	2	25	Target	MissedWin	False
248.751	0.53	Win2	0.6154	n/a	No	3.079	n/a	n/a	NoResponse	0	n/a	n/a	2	25	Blank	MissedWin	False
248.759	0.3	Win2	0.6154	0.004	No	3.079	-0.004	2.0	NoResponse	0	0.192	n/a	2	25	ButtonPress	MissedWin	False
249.269	1.45	Win2	0.6154	n/a	No	3.079	n/a	5.0	NoResponse	0	0.02	248.289	2	25	Feedback	MissedWin	False
250.723	3.079	Win2	0.6154	n/a	No	3.079	n/a	n/a	NoResponse	0	0.0	n/a	2	25	ISIslide	MissedWin	False
253.816	0.25	Win2	0.5926	0.0	No	2.934	0.016	n/a	NoResponse	0	n/a	n/a	2	26	Cue	MissedWin	True
254.067	3.95	Win2	0.5926	0.0	No	2.934	0.001	n/a	NoResponse	0	n/a	n/a	2	26	Fixation	MissedWin	True
258.012	0.18	Win2	0.5926	0.004	No	2.934	-0.004	2.0	NoResponse	0	0.237	257.249	2	26	Target	MissedWin	True
258.196	0.52	Win2	0.5926	n/a	No	2.934	n/a	n/a	NoResponse	0	n/a	n/a	2	26	Blank	MissedWin	True
258.249	0.3	Win2	0.5926	0.004	No	2.934	-0.004	2.0	NoResponse	0	0.237	n/a	2	26	ButtonPress	MissedWin	True
258.714	1.45	Win2	0.5926	n/a	No	2.934	n/a	5.0	NoResponse	0	0.039	257.753	2	26	Feedback	MissedWin	True
260.168	2.934	Win2	0.5926	n/a	No	2.934	n/a	n/a	NoResponse	0	0.0	n/a	2	26	ISIslide	MissedWin	True
263.127	0.25	Lose2	0.5714	0.0	No	2.823	0.027	n/a	NoResponse	-1	n/a	n/a	1	27	Cue	Loss	False
263.378	4.05	Lose2	0.5714	0.0	No	2.823	0.001	n/a	NoResponse	-1	n/a	n/a	1	27	Fixation	Loss	False
267.423	0.19	Lose2	0.5714	0.004	No	2.823	-0.004	n/a	NoResponse	-1	n/a	n/a	1	27	Target	Loss	False
267.624	0.51	Lose2	0.5714	n/a	No	2.823	n/a	n/a	NoResponse	-1	n/a	n/a	1	27	Blank	Loss	False
268.125	1.45	Lose2	0.5714	n/a	No	2.823	n/a	5.0	NoResponse	-1	0.041	267.166	1	27	Feedback	Loss	False
269.58	2.823	Lose2	0.5714	n/a	No	2.823	n/a	n/a	NoResponse	-1	0.0	n/a	1	27	ISIslide	Loss	False
272.422	0.25	Control	0.5861999999999999	0.0	Yes	2.828	0.022	n/a	GoodResponse	0	n/a	n/a	1	28	Cue	Neutral	True
272.672	4.05	Control	0.5861999999999999	0.0	Yes	2.828	0.0	n/a	GoodResponse	0	n/a	n/a	1	28	Fixation	Neutral	True
276.718	0.2	Control	0.5861999999999999	0.004	Yes	2.828	-0.004	2.0	GoodResponse	0	0.181	275.899	1	28	Target	Neutral	True
276.899	0.3	Control	0.5861999999999999	0.004	Yes	2.828	-0.004	2.0	GoodResponse	0	0.181	n/a	1	28	ButtonPress	Neutral	True
276.918	0.5	Control	0.5861999999999999	n/a	Yes	2.828	n/a	n/a	GoodResponse	0	n/a	n/a	1	28	Blank	Neutral	True
277.42	1.45	Control	0.5861999999999999	n/a	Yes	2.828	n/a	5.0	GoodResponse	0	0.015	276.435	1	28	Feedback	Neutral	True
278.874	2.828	Control	0.5861999999999999	n/a	Yes	2.828	n/a	n/a	GoodResponse	0	0.0	n/a	1	28	ISIslide	Neutral	True
281.716	0.25	Lose2	0.6	0.0	Yes	2.834	0.016	n/a	GoodResponse	0	n/a	n/a	1	29	Cue	AvoidedLoss	True
281.967	3.95	Lose2	0.6	0.0	Yes	2.834	0.001	n/a	GoodResponse	0	n/a	n/a	1	29	Fixation	AvoidedLoss	True
285.912	0.21	Lose2	0.6	0.004	Yes	2.834	-0.004	2.0	GoodResponse	0	0.204	285.116	1	29	Target	AvoidedLoss	True
286.116	0.3	Lose2	0.6	0.004	Yes	2.834	-0.004	2.0	GoodResponse	0	0.204	n/a	1	29	ButtonPress	AvoidedLoss	True
286.129	0.49	Lose2	0.6	n/a	Yes	2.834	n/a	n/a	GoodResponse	0	n/a	n/a	1	29	Blank	AvoidedLoss	True
286.614	1.45	Lose2	0.6	n/a	Yes	2.834	n/a	5.0	GoodResponse	0	0.04	285.654	1	29	Feedback	AvoidedLoss	True
288.068	2.834	Lose2	0.6	n/a	Yes	2.834	n/a	n/a	GoodResponse	0	0.0	n/a	1	29	ISIslide	AvoidedLoss	True
290.927	0.25	Win2	0.5806	0.0	No	2.773	0.027	n/a	LatePress	0	n/a	n/a	1	30	Cue	MissedWin	True
291.178	3.9	Win2	0.5806	0.0	No	2.773	0.001	n/a	LatePress	0	n/a	n/a	1	30	Fixation	MissedWin	True
295.073	0.22	Win2	0.5806	0.004	No	2.773	-0.004	2.0	LatePress	0	0.22	294.293	1	30	Target	MissedWin	True
295.293	0.3	Win2	0.5806	0.004	No	2.773	-0.004	2.0	LatePress	0	0.22	n/a	1	30	ButtonPress	MissedWin	True
295.307	0.48	Win2	0.5806	n/a	No	2.773	n/a	n/a	LatePress	0	n/a	n/a	1	30	Blank	MissedWin	True
295.775	1.45	Win2	0.5806	n/a	No	2.773	n/a	5.0	LatePress	0	0.002	294.777	1	30	Feedback	MissedWin	True
297.229	2.773	Win2	0.5806	n/a	No	2.773	n/a	n/a	LatePress	0	0.0	n/a	1	30	ISIslide	MissedWin	True
300.021	0.25	Lose2	0.5938	0.0	Yes	2.829	0.021	n/a	GoodResponse	0	n/a	n/a	1	31	Cue	AvoidedLoss	True
300.272	4.05	Lose2	0.5938	0.0	Yes	2.829	0.001	n/a	GoodResponse	0	n/a	n/a	1	31	Fixation	AvoidedLoss	True
304.317	0.23	Lose2	0.5938	0.004	Yes	2.829	-0.004	2.0	GoodResponse	0	0.207	303.524	1	31	Target	AvoidedLoss	True
304.524	0.3	Lose2	0.5938	0.004	Yes	2.829	-0.004	2.0	GoodResponse	0	0.207	n/a	1	31	ButtonPress	AvoidedLoss	True
304.551	0.47	Lose2	0.5938	n/a	Yes	2.829	n/a	n/a	GoodResponse	0	n/a	n/a	1	31	Blank	AvoidedLoss	True
305.019	1.45	Lose2	0.5938	n/a	Yes	2.829	n/a	5.0	GoodResponse	0	0.025	304.044	1	31	Feedback	AvoidedLoss	True
306.473	2.829	Lose2	0.5938	n/a	Yes	2.829	n/a	n/a	GoodResponse	0	0.0	n/a	1	31	ISIslide	AvoidedLoss	True
309.315	0.25	Lose2	0.6061	0.0	Yes	2.635	0.015	n/a	GoodResponse	0	n/a	n/a	1	32	Cue	AvoidedLoss	True
309.566	4.15	Lose2	0.6061	0.0	Yes	2.635	0.001	n/a	GoodResponse	0	n/a	n/a	1	32	Fixation	AvoidedLoss	True
313.712	0.24	Lose2	0.6061	0.003	Yes	2.635	-0.003	2.0	GoodResponse	0	0.185	312.897	1	32	Target	AvoidedLoss	True
313.897	0.3	Lose2	0.6061	0.003	Yes	2.635	-0.003	2.0	GoodResponse	0	0.185	n/a	1	32	ButtonPress	AvoidedLoss	True
313.962	0.46	Lose2	0.6061	n/a	Yes	2.635	n/a	n/a	GoodResponse	0	n/a	n/a	1	32	Blank	AvoidedLoss	True
314.414	1.45	Lose2	0.6061	n/a	Yes	2.635	n/a	5.0	GoodResponse	0	0.045	313.459	1	32	Feedback	AvoidedLoss	True
315.868	2.635	Lose2	0.6061	n/a	Yes	2.635	n/a	n/a	GoodResponse	0	0.0	n/a	1	32	ISIslide	AvoidedLoss	True
318.526	0.25	Win2	0.6175999999999999	0.0	Yes	2.674	0.026	n/a	GoodResponse	1	n/a	n/a	2	33	Cue	Win	True
318.777	4.0	Win2	0.6175999999999999	0.0	Yes	2.674	0.001	n/a	GoodResponse	1	n/a	n/a	2	33	Fixation	Win	True
322.772	0.25	Win2	0.6175999999999999	0.004	Yes	2.674	-0.004	2.0	GoodResponse	1	0.216	321.988	2	33	Target	Win	True
322.988	0.3	Win2	0.6175999999999999	0.004	Yes	2.674	-0.004	2.0	GoodResponse	1	0.216	n/a	2	33	ButtonPress	Win	True
323.023	0.45	Win2	0.6175999999999999	n/a	Yes	2.674	n/a	n/a	GoodResponse	1	n/a	n/a	2	33	Blank	Win	True
323.474	1.45	Win2	0.6175999999999999	n/a	Yes	2.674	n/a	5.0	GoodResponse	1	0.009	322.483	2	33	Feedback	Win	True
324.929	2.674	Win2	0.6175999999999999	n/a	Yes	2.674	n/a	n/a	GoodResponse	1	0.0	n/a	2	33	ISIslide	Win	True
327.62	0.25	Lose2	0.6	0.0	No	2.63	0.02	n/a	NoResponse	-1	n/a	n/a	1	34	Cue	Loss	False
327.871	4.05	Lose2	0.6	0.0	No	2.63	0.001	n/a	NoResponse	-1	n/a	n/a	1	34	Fixation	Loss	False
331.916	0.26	Lose2	0.6	0.004	No	2.63	-0.004	n/a	NoResponse	-1	n/a	n/a	1	34	Target	Loss	False
332.184	0.44	Lose2	0.6	n/a	No	2.63	n/a	n/a	NoResponse	-1	n/a	n/a	1	34	Blank	Loss	False
332.618	1.45	Lose2	0.6	n/a	No	2.63	n/a	5.0	NoResponse	-1	0.036	331.654	1	34	Feedback	Loss	False
334.073	2.63	Lose2	0.6	n/a	No	2.63	n/a	n/a	NoResponse	-1	0.0	n/a	1	34	ISIslide	Loss	False
336.731	0.25	Lose2	0.6111	0.0	Yes	2.669	0.031	n/a	GoodResponse	0	n/a	n/a	1	35	Cue	AvoidedLoss	True
336.981	4.0	Lose2	0.6111	0.0	Yes	2.669	0.0	n/a	GoodResponse	0	n/a	n/a	1	35	Fixation	AvoidedLoss	True
340.977	0.27	Lose2	0.6111	0.004	Yes	2.669	-0.004	2.0	GoodResponse	0	0.227	340.204	1	35	Target	AvoidedLoss	True
341.204	0.3	Lose2	0.6111	0.004	Yes	2.669	-0.004	2.0	GoodResponse	0	0.227	n/a	1	35	ButtonPress	AvoidedLoss	True
341.261	0.43	Lose2	0.6111	n/a	Yes	2.669	n/a	n/a	GoodResponse	0	n/a	n/a	1	35	Blank	AvoidedLoss	True
341.679	1.45	Lose2	0.6111	n/a	Yes	2.669	n/a	5.0	GoodResponse	0	0.048	340.727	1	35	Feedback	AvoidedLoss	True
343.133	2.669	Lose2	0.6111	n/a	Yes	2.669	n/a	n/a	GoodResponse	0	0.0	n/a	1	35	ISIslide	AvoidedLoss	True
345.824	0.25	Control	0.6215999999999999	0.001	Yes	2.676	0.024	n/a	GoodResponse	0	n/a	n/a	1	36	Cue	Neutral	True
346.075	4.0	Control	0.6215999999999999	0.0	Yes	2.676	0.001	n/a	GoodResponse	0	n/a	n/a	1	36	Fixation	Neutral	True
350.07	0.28	Control	0.6215999999999999	0.004	Yes	2.676	-0.004	2.0	GoodResponse	0	0.219	349.289	1	36	Target	Neutral	True
350.289	0.3	Control	0.6215999999999999	0.004	Yes	2.676	-0.004	2.0	GoodResponse	0	0.219	n/a	1	36	ButtonPress	Neutral	True
350.355	0.42	Control	0.6215999999999999	n/a	Yes	2.676	n/a	n/a	GoodResponse	0	n/a	n/a	1	36	Blank	Neutral	True
350.773	1.45	Control	0.6215999999999999	n/a	Yes	2.676	n/a	5.0	GoodResponse	0	0.026	349.799	1	36	Feedback	Neutral	True
352.227	2.676	Control	0.6215999999999999	n/a	Yes	2.676	n/a	n/a	GoodResponse	0	0.0	n/a	1	36	ISIslide	Neutral	True
354.918	0.25	Win2	0.6315999999999999	0.0	Yes	2.882	0.018	n/a	GoodResponse	1	n/a	n/a	2	37	Cue	Win	True
355.169	4.0	Win2	0.6315999999999999	0.0	Yes	2.882	0.001	n/a	GoodResponse	1	n/a	n/a	2	37	Fixation	Win	True
359.164	0.29	Win2	0.6315999999999999	0.004	Yes	2.882	-0.004	2.0	GoodResponse	1	0.255	358.419	2	37	Target	Win	True
359.419	0.3	Win2	0.6315999999999999	0.004	Yes	2.882	-0.004	2.0	GoodResponse	1	0.255	n/a	2	37	ButtonPress	Win	True
359.465	0.41	Win2	0.6315999999999999	n/a	Yes	2.882	n/a	n/a	GoodResponse	1	n/a	n/a	2	37	Blank	Win	True
359.866	1.45	Win2	0.6315999999999999	n/a	Yes	2.882	n/a	5.0	GoodResponse	1	0.007	358.873	2	37	Feedback	Win	True
361.321	2.882	Win2	0.6315999999999999	n/a	Yes	2.882	n/a	n/a	GoodResponse	1	0.0	n/a	2	37	ISIslide	Win	True
364.229	0.25	Lose2	0.6409999999999999	0.001	Yes	2.821	0.029	n/a	GoodResponse	0	n/a	n/a	2	38	Cue	AvoidedLoss	True
364.48	3.95	Lose2	0.6409999999999999	0.0	Yes	2.821	0.001	n/a	GoodResponse	0	n/a	n/a	2	38	Fixation	AvoidedLoss	True
368.425	0.3	Lose2	0.6409999999999999	0.004	Yes	2.821	-0.004	2.0	GoodResponse	0	0.219	367.644	2	38	Target	AvoidedLoss	True
368.644	0.3	Lose2	0.6409999999999999	0.004	Yes	2.821	-0.004	2.0	GoodResponse	0	0.219	n/a	2	38	ButtonPress	AvoidedLoss	True
368.726	0.4	Lose2	0.6409999999999999	n/a	Yes	2.821	n/a	n/a	GoodResponse	0	n/a	n/a	2	38	Blank	AvoidedLoss	True
369.127	1.45	Lose2	0.6409999999999999	n/a	Yes	2.821	n/a	5.0	GoodResponse	0	0.014	368.141	2	38	Feedback	AvoidedLoss	True
370.582	2.821	Lose2	0.6409999999999999	n/a	Yes	2.821	n/a	n/a	GoodResponse	0	0.0	n/a	2	38	ISIslide	AvoidedLoss	True
373.424	0.25	Win2	0.625	0.0	No	2.976	0.024	n/a	PrematurePress	0	n/a	n/a	2	39	Cue	MissedWin	False
373.674	4.1	Win2	0.625	0.0	No	2.976	0.0	2.0	PrematurePress	0	3.615	376.289	2	39	Fixation	MissedWin	False
377.289	0.3	Win2	0.625	0.0	No	2.976	0.0	2.0	PrematurePress	0	3.615	n/a	2	39	ButtonPress	MissedWin	False
377.77	0.31	Win2	0.625	0.004	No	2.976	-0.004	2.0	PrematurePress	0	0.033	376.803	2	39	Target	MissedWin	False
377.803	0.3	Win2	0.625	0.004	No	2.976	-0.004	2.0	PrematurePress	0	0.033	n/a	2	39	ButtonPress	MissedWin	False
378.088	0.39	Win2	0.625	n/a	No	2.976	n/a	n/a	PrematurePress	0	n/a	n/a	2	39	Blank	MissedWin	False
378.472	1.45	Win2	0.625	n/a	No	2.976	n/a	5.0	PrematurePress	0	0.035	377.507	2	39	Feedback	MissedWin	False
379.926	2.976	Win2	0.625	n/a	No	2.976	n/a	n/a	PrematurePress	0	0.0	n/a	2	39	ISIslide	MissedWin	False
382.919	0.25	Win2	0.6341	0.0	Yes	2.731	0.019	n/a	GoodResponse	1	n/a	n/a	3	40	Cue	Win	True
383.169	3.95	Win2	0.6341	0.001	Yes	2.731	0.0	n/a	GoodResponse	1	n/a	n/a	3	40	Fixation	Win	True
387.115	0.32	Win2	0.6341	0.004	Yes	2.731	-0.004	2.0	GoodResponse	1	0.206	386.321	3	40	Target	Win	True
387.321	0.3	Win2	0.6341	0.004	Yes	2.731	-0.004	2.0	GoodResponse	1	0.206	n/a	3	40	ButtonPress	Win	True
387.449	0.38	Win2	0.6341	n/a	Yes	2.731	n/a	n/a	GoodResponse	1	n/a	n/a	3	40	Blank	Win	True
387.817	1.45	Win2	0.6341	n/a	Yes	2.731	n/a	5.0	GoodResponse	1	0.008	386.825	3	40	Feedback	Win	True
389.271	2.731	Win2	0.6341	n/a	Yes	2.731	n/a	n/a	GoodResponse	1	0.0	n/a	3	40	ISIslide	Win	True
392.029	0.25	Win2	0.6429	0.0	Yes	2.771	0.029	n/a	GoodResponse	1	n/a	n/a	4	41	Cue	Win	True
392.28	3.9	Win2	0.6429	0.0	Yes	2.771	0.001	n/a	GoodResponse	1	n/a	n/a	4	41	Fixation	Win	True
396.175	0.33	Win2	0.6429	0.004	Yes	2.771	-0.004	2.0	GoodResponse	1	0.257	395.432	4	41	Target	Win	True
396.432	0.3	Win2	0.6429	0.004	Yes	2.771	-0.004	2.0	GoodResponse	1	0.257	n/a	4	41	ButtonPress	Win	True
396.509	0.37	Win2	0.6429	n/a	Yes	2.771	n/a	n/a	GoodResponse	1	n/a	n/a	4	41	Blank	Win	True
396.877	1.45	Win2	0.6429	n/a	Yes	2.771	n/a	5.0	GoodResponse	1	0.02	395.897	4	41	Feedback	Win	True
398.331	2.771	Win2	0.6429	n/a	Yes	2.771	n/a	n/a	GoodResponse	1	0.0	n/a	4	41	ISIslide	Win	True
401.123	0.25	Control	0.6279	0.0	No	2.927	0.023	n/a	NoResponse	0	n/a	n/a	4	42	Cue	Neutral	True
401.374	3.85	Control	0.6279	0.0	No	2.927	0.001	n/a	NoResponse	0	n/a	n/a	4	42	Fixation	Neutral	True
405.219	0.34	Control	0.6279	0.004	No	2.927	-0.004	2.0	NoResponse	0	0.624	404.843	4	42	Target	Neutral	True
405.57	0.36	Control	0.6279	n/a	No	2.927	n/a	n/a	NoResponse	0	n/a	n/a	4	42	Blank	Neutral	True
405.843	0.3	Control	0.6279	0.004	No	2.927	-0.004	2.0	NoResponse	0	0.624	n/a	4	42	ButtonPress	Neutral	True
405.921	1.45	Control	0.6279	n/a	No	2.927	n/a	5.0	NoResponse	0	0.0	404.921	4	42	Feedback	Neutral	True
407.375	2.927	Control	0.6279	n/a	No	2.927	n/a	n/a	NoResponse	0	0.0	n/a	4	42	ISIslide	Neutral	True
410.317	0.25	Win2	0.6364	0.0	Yes	3.183	0.017	n/a	GoodResponse	1	n/a	n/a	5	43	Cue	Win	True
410.568	4.0	Win2	0.6364	0.0	Yes	3.183	0.001	n/a	GoodResponse	1	n/a	n/a	5	43	Fixation	Win	True
414.563	0.35	Win2	0.6364	0.004	Yes	3.183	-0.004	2.0	GoodResponse	1	0.231	413.794	5	43	Target	Win	True
414.794	0.3	Win2	0.6364	0.004	Yes	3.183	-0.004	2.0	GoodResponse	1	0.231	n/a	5	43	ButtonPress	Win	True
414.914	0.35	Win2	0.6364	n/a	Yes	3.183	n/a	n/a	GoodResponse	1	n/a	n/a	5	43	Blank	Win	True
415.265	1.45	Win2	0.6364	n/a	Yes	3.183	n/a	5.0	GoodResponse	1	0.022	414.287	5	43	Feedback	Win	True
416.72	3.183	Win2	0.6364	n/a	Yes	3.183	n/a	n/a	GoodResponse	1	0.0	n/a	5	43	ISIslide	Win	True
419.929	0.25	Win2	0.6444	0.0	Yes	2.971	0.029	n/a	GoodResponse	1	n/a	n/a	6	44	Cue	Win	True
420.18	4.0	Win2	0.6444	0.0	Yes	2.971	0.001	n/a	GoodResponse	1	n/a	n/a	6	44	Fixation	Win	True
424.175	0.36	Win2	0.6444	0.004	Yes	2.971	-0.004	2.0	GoodResponse	1	0.207	423.382	6	44	Target	Win	True
424.382	0.3	Win2	0.6444	0.004	Yes	2.971	-0.004	2.0	GoodResponse	1	0.207	n/a	6	44	ButtonPress	Win	True
424.543	0.34	Win2	0.6444	n/a	Yes	2.971	n/a	n/a	GoodResponse	1	n/a	n/a	6	44	Blank	Win	True
424.877	1.45	Win2	0.6444	n/a	Yes	2.971	n/a	5.0	GoodResponse	1	0.02	423.897	6	44	Feedback	Win	True
426.332	2.971	Win2	0.6444	n/a	Yes	2.971	n/a	n/a	GoodResponse	1	0.0	n/a	6	44	ISIslide	Win	True
429.324	0.25	Control	0.6522	0.0	Yes	2.876	0.024	n/a	GoodResponse	0	n/a	n/a	6	45	Cue	Neutral	True
429.575	4.1	Control	0.6522	0.0	Yes	2.876	0.001	n/a	GoodResponse	0	n/a	n/a	6	45	Fixation	Neutral	True
433.67	0.37	Control	0.6522	0.004	Yes	2.876	-0.004	2.0	GoodResponse	0	0.213	432.883	6	45	Target	Neutral	True
433.883	0.3	Control	0.6522	0.004	Yes	2.876	-0.004	2.0	GoodResponse	0	0.213	n/a	6	45	ButtonPress	Neutral	True
434.055	0.33	Control	0.6522	n/a	Yes	2.876	n/a	n/a	GoodResponse	0	n/a	n/a	6	45	Blank	Neutral	True
434.373	1.45	Control	0.6522	n/a	Yes	2.876	n/a	5.0	GoodResponse	0	0.036	433.409	6	45	Feedback	Neutral	True
435.844	2.876	Control	0.6522	n/a	Yes	2.876	n/a	n/a	GoodResponse	0	0.0	n/a	6	45	ISIslide	Neutral	True
438.719	0.25	Lose2	0.6596	0.0	Yes	3.381	0.019	n/a	GoodResponse	0	n/a	n/a	6	46	Cue	AvoidedLoss	True
438.97	4.0	Lose2	0.6596	0.0	Yes	3.381	0.001	n/a	GoodResponse	0	n/a	n/a	6	46	Fixation	AvoidedLoss	True
442.965	0.38	Lose2	0.6596	0.004	Yes	3.381	-0.004	2.0	GoodResponse	0	0.245	442.21	6	46	Target	AvoidedLoss	True
443.21	0.3	Lose2	0.6596	0.004	Yes	3.381	-0.004	2.0	GoodResponse	0	0.245	n/a	6	46	ButtonPress	AvoidedLoss	True
443.349	0.32	Lose2	0.6596	n/a	Yes	3.381	n/a	n/a	GoodResponse	0	n/a	n/a	6	46	Blank	AvoidedLoss	True
443.667	1.45	Lose2	0.6596	n/a	Yes	3.381	n/a	5.0	GoodResponse	0	0.01	442.677	6	46	Feedback	AvoidedLoss	True
445.121	3.381	Lose2	0.6596	n/a	Yes	3.381	n/a	n/a	GoodResponse	0	0.0	n/a	6	46	ISIslide	AvoidedLoss	True
448.515	0.25	Lose2	0.6667000000000001	0.0	Yes	2.685	0.015	n/a	GoodResponse	0	n/a	n/a	6	47	Cue	AvoidedLoss	True
448.766	4.0	Lose2	0.6667000000000001	0.0	Yes	2.685	0.001	n/a	GoodResponse	0	n/a	n/a	6	47	Fixation	AvoidedLoss	True
452.761	0.38	Lose2	0.6667000000000001	0.004	Yes	2.685	-0.004	2.0	GoodResponse	0	0.22	451.981	6	47	Target	AvoidedLoss	True
452.981	0.3	Lose2	0.6667000000000001	0.004	Yes	2.685	-0.004	2.0	GoodResponse	0	0.22	n/a	6	47	ButtonPress	AvoidedLoss	True
453.145	0.32	Lose2	0.6667000000000001	n/a	Yes	2.685	n/a	n/a	GoodResponse	0	n/a	n/a	6	47	Blank	AvoidedLoss	True
453.463	1.45	Lose2	0.6667000000000001	n/a	Yes	2.685	n/a	5.0	GoodResponse	0	0.019	452.482	6	47	Feedback	AvoidedLoss	True
454.917	2.685	Lose2	0.6667000000000001	n/a	Yes	2.685	n/a	n/a	GoodResponse	0	0.0	n/a	6	47	ISIslide	AvoidedLoss	True
457.625	0.25	Lose2	0.6735	0.0	Yes	3.025	0.025	n/a	GoodResponse	0	n/a	n/a	6	48	Cue	AvoidedLoss	True
457.876	3.95	Lose2	0.6735	0.0	Yes	3.025	0.001	n/a	GoodResponse	0	n/a	n/a	6	48	Fixation	AvoidedLoss	True
461.821	0.37	Lose2	0.6735	0.004	Yes	3.025	-0.004	2.0	GoodResponse	0	0.268	461.089	6	48	Target	AvoidedLoss	True
462.089	0.3	Lose2	0.6735	0.004	Yes	3.025	-0.004	2.0	GoodResponse	0	0.268	n/a	6	48	ButtonPress	AvoidedLoss	True
462.206	0.33	Lose2	0.6735	n/a	Yes	3.025	n/a	n/a	GoodResponse	0	n/a	n/a	6	48	Blank	AvoidedLoss	True
462.523	1.45	Lose2	0.6735	n/a	Yes	3.025	n/a	5.0	GoodResponse	0	0.032	461.555	6	48	Feedback	AvoidedLoss	True
463.978	3.025	Lose2	0.6735	n/a	Yes	3.025	n/a	n/a	GoodResponse	0	0.0	n/a	6	48	ISIslide	AvoidedLoss	True
467.02	0.25	Control	0.68	0.0	Yes	2.88	0.02	n/a	GoodResponse	0	n/a	n/a	6	49	Cue	Neutral	True
467.271	4.0	Control	0.68	0.0	Yes	2.88	0.001	n/a	GoodResponse	0	n/a	n/a	6	49	Fixation	Neutral	True
471.266	0.36	Control	0.68	0.004	Yes	2.88	-0.004	2.0	GoodResponse	0	0.217	470.483	6	49	Target	Neutral	True
471.483	0.3	Control	0.68	0.004	Yes	2.88	-0.004	2.0	GoodResponse	0	0.217	n/a	6	49	ButtonPress	Neutral	True
471.634	0.34	Control	0.68	n/a	Yes	2.88	n/a	n/a	GoodResponse	0	n/a	n/a	6	49	Blank	Neutral	True
471.968	1.45	Control	0.68	n/a	Yes	2.88	n/a	5.0	GoodResponse	0	0.002	470.97	6	49	Feedback	Neutral	True
473.423	2.88	Control	0.68	n/a	Yes	2.88	n/a	n/a	GoodResponse	0	0.0	n/a	6	49	ISIslide	Neutral	True
476.315	0.25	Control	0.6862999999999999	0.0	Yes	2.785	0.015	n/a	GoodResponse	0	n/a	n/a	6	50	Cue	Neutral	True
476.565	4.0	Control	0.6862999999999999	0.0	Yes	2.785	0.0	n/a	GoodResponse	0	n/a	n/a	6	50	Fixation	Neutral	True
480.561	0.35	Control	0.6862999999999999	0.004	Yes	2.785	-0.004	2.0	GoodResponse	0	0.226	479.787	6	50	Target	Neutral	True
480.787	0.3	Control	0.6862999999999999	0.004	Yes	2.785	-0.004	2.0	GoodResponse	0	0.226	n/a	6	50	ButtonPress	Neutral	True
480.912	0.35	Control	0.6862999999999999	n/a	Yes	2.785	n/a	n/a	GoodResponse	0	n/a	n/a	6	50	Blank	Neutral	True
481.263	1.45	Control	0.6862999999999999	n/a	Yes	2.785	n/a	5.0	GoodResponse	0	0.023	480.286	6	50	Feedback	Neutral	True
482.717	2.785	Control	0.6862999999999999	n/a	Yes	2.785	n/a	n/a	GoodResponse	0	0.0	n/a	6	50	ISIslide	Neutral	True
485.525	0.25	Control	0.6923	0.001	Yes	2.725	0.025	n/a	GoodResponse	0	n/a	n/a	6	51	Cue	Neutral	True
485.776	3.95	Control	0.6923	0.0	Yes	2.725	0.001	n/a	GoodResponse	0	n/a	n/a	6	51	Fixation	Neutral	True
489.721	0.34	Control	0.6923	0.004	Yes	2.725	-0.004	2.0	GoodResponse	0	0.214	488.935	6	51	Target	Neutral	True
489.935	0.3	Control	0.6923	0.004	Yes	2.725	-0.004	2.0	GoodResponse	0	0.214	n/a	6	51	ButtonPress	Neutral	True
490.072	0.36	Control	0.6923	n/a	Yes	2.725	n/a	n/a	GoodResponse	0	n/a	n/a	6	51	Blank	Neutral	True
490.423	1.45	Control	0.6923	n/a	Yes	2.725	n/a	5.0	GoodResponse	0	0.034	489.457	6	51	Feedback	Neutral	True
491.878	2.725	Control	0.6923	n/a	Yes	2.725	n/a	n/a	GoodResponse	0	0.0	n/a	6	51	ISIslide	Neutral	True
494.619	0.25	Control	0.6981	0.0	Yes	2.631	0.019	n/a	GoodResponse	0	n/a	n/a	6	52	Cue	Neutral	True
494.87	4.05	Control	0.6981	0.0	Yes	2.631	0.001	n/a	GoodResponse	0	n/a	n/a	6	52	Fixation	Neutral	True
498.915	0.33	Control	0.6981	0.004	Yes	2.631	-0.004	2.0	GoodResponse	0	0.285	498.2	6	52	Target	Neutral	True
499.2	0.3	Control	0.6981	0.004	Yes	2.631	-0.004	2.0	GoodResponse	0	0.285	n/a	6	52	ButtonPress	Neutral	True
499.25	0.37	Control	0.6981	n/a	Yes	2.631	n/a	n/a	GoodResponse	0	n/a	n/a	6	52	Blank	Neutral	True
499.618	1.45	Control	0.6981	n/a	Yes	2.631	n/a	5.0	GoodResponse	0	0.009	498.627	6	52	Feedback	Neutral	True
501.072	2.631	Control	0.6981	n/a	Yes	2.631	n/a	n/a	GoodResponse	0	0.0	n/a	6	52	ISIslide	Neutral	True
503.73	0.25	Win2	0.7037	0.0	Yes	2.92	0.03	n/a	GoodResponse	1	n/a	n/a	7	53	Cue	Win	True
503.981	4.05	Win2	0.7037	0.0	Yes	2.92	0.001	n/a	GoodResponse	1	n/a	n/a	7	53	Fixation	Win	True
508.026	0.32	Win2	0.7037	0.004	Yes	2.92	-0.004	2.0	GoodResponse	1	0.197	507.223	7	53	Target	Win	True
508.223	0.3	Win2	0.7037	0.004	Yes	2.92	-0.004	2.0	GoodResponse	1	0.197	n/a	7	53	ButtonPress	Win	True
508.36	0.38	Win2	0.7037	n/a	Yes	2.92	n/a	n/a	GoodResponse	1	n/a	n/a	7	53	Blank	Win	True
508.728	1.45	Win2	0.7037	n/a	Yes	2.92	n/a	5.0	GoodResponse	1	0.021	507.749	7	53	Feedback	Win	True
510.183	2.92	Win2	0.7037	n/a	Yes	2.92	n/a	n/a	GoodResponse	1	0.0	n/a	7	53	ISIslide	Win	True
513.125	0.25	Win2	0.7091	0.0	Yes	2.725	0.025	n/a	GoodResponse	1	n/a	n/a	8	54	Cue	Win	True
513.375	3.95	Win2	0.7091	0.0	Yes	2.725	0.0	n/a	GoodResponse	1	n/a	n/a	8	54	Fixation	Win	True
517.321	0.31	Win2	0.7091	0.004	Yes	2.725	-0.004	2.0	GoodResponse	1	0.196	516.517	8	54	Target	Win	True
517.517	0.3	Win2	0.7091	0.004	Yes	2.725	-0.004	2.0	GoodResponse	1	0.196	n/a	8	54	ButtonPress	Win	True
517.638	0.39	Win2	0.7091	n/a	Yes	2.725	n/a	n/a	GoodResponse	1	n/a	n/a	8	54	Blank	Win	True
518.023	1.45	Win2	0.7091	n/a	Yes	2.725	n/a	5.0	GoodResponse	1	0.043	517.066	8	54	Feedback	Win	True
519.477	2.725	Win2	0.7091	n/a	Yes	2.725	n/a	n/a	GoodResponse	1	0.0	n/a	8	54	ISIslide	Win	True
522.219	0.25	Control	0.7143	0.0	Yes	3.031	0.019	n/a	GoodResponse	0	n/a	n/a	8	55	Cue	Neutral	True
522.469	3.95	Control	0.7143	0.0	Yes	3.031	0.0	n/a	GoodResponse	0	n/a	n/a	8	55	Fixation	Neutral	True
526.431	0.3	Control	0.7143	0.0	Yes	3.031	0.012	2.0	GoodResponse	0	0.202	525.633	8	55	Target	Neutral	True
526.633	0.3	Control	0.7143	0.0	Yes	3.031	0.012	2.0	GoodResponse	0	0.202	n/a	8	55	ButtonPress	Neutral	True
526.715	0.4	Control	0.7143	n/a	Yes	3.031	n/a	n/a	GoodResponse	0	n/a	n/a	8	55	Blank	Neutral	True
527.116	1.45	Control	0.7143	n/a	Yes	3.031	n/a	5.0	GoodResponse	0	0.023	526.139	8	55	Feedback	Neutral	True
528.571	3.031	Control	0.7143	n/a	Yes	3.031	n/a	n/a	GoodResponse	0	0.0	n/a	8	55	ISIslide	Neutral	True
531.63	0.25	Control	0.7193	0.0	Yes	2.82	0.03	n/a	GoodResponse	0	n/a	n/a	8	56	Cue	Neutral	True
531.881	3.95	Control	0.7193	0.0	Yes	2.82	0.001	n/a	GoodResponse	0	n/a	n/a	8	56	Fixation	Neutral	True
535.826	0.29	Control	0.7193	0.004	Yes	2.82	-0.004	2.0	GoodResponse	0	0.172	534.998	8	56	Target	Neutral	True
535.998	0.3	Control	0.7193	0.004	Yes	2.82	-0.004	2.0	GoodResponse	0	0.172	n/a	8	56	ButtonPress	Neutral	True
536.127	0.41	Control	0.7193	n/a	Yes	2.82	n/a	n/a	GoodResponse	0	n/a	n/a	8	56	Blank	Neutral	True
536.528	1.45	Control	0.7193	n/a	Yes	2.82	n/a	5.0	GoodResponse	0	0.026	535.554	8	56	Feedback	Neutral	True
537.982	2.82	Control	0.7193	n/a	Yes	2.82	n/a	n/a	GoodResponse	0	0.0	n/a	8	56	ISIslide	Neutral	True
540.824	0.25	Control	0.7241	0.0	Yes	3.476	0.024	n/a	GoodResponse	0	n/a	n/a	8	57	Cue	Neutral	True
541.075	4.0	Control	0.7241	0.0	Yes	3.476	0.001	n/a	GoodResponse	0	n/a	n/a	8	57	Fixation	Neutral	True
545.07	0.28	Control	0.7241	0.004	Yes	3.476	-0.004	2.0	GoodResponse	0	0.257	544.327	8	57	Target	Neutral	True
545.327	0.3	Control	0.7241	0.004	Yes	3.476	-0.004	2.0	GoodResponse	0	0.257	n/a	8	57	ButtonPress	Neutral	True
545.354	0.42	Control	0.7241	n/a	Yes	3.476	n/a	n/a	GoodResponse	0	n/a	n/a	8	57	Blank	Neutral	True
545.772	1.45	Control	0.7241	n/a	Yes	3.476	n/a	5.0	GoodResponse	0	0.001	544.773	8	57	Feedback	Neutral	True
547.227	3.476	Control	0.7241	n/a	Yes	3.476	n/a	n/a	GoodResponse	0	0.0	n/a	8	57	ISIslide	Neutral	True
550.72	0.25	Win2	0.7119	0.001	No	2.73	0.02	n/a	NoResponse	0	n/a	n/a	8	58	Cue	MissedWin	False
550.971	4.05	Win2	0.7119	0.0	No	2.73	0.001	n/a	NoResponse	0	n/a	n/a	8	58	Fixation	MissedWin	False
555.017	0.27	Win2	0.7119	0.003	No	2.73	-0.003	n/a	NoResponse	0	n/a	n/a	8	58	Target	MissedWin	False
555.301	0.43	Win2	0.7119	n/a	No	2.73	n/a	n/a	NoResponse	0	n/a	n/a	8	58	Blank	MissedWin	False
555.719	1.45	Win2	0.7119	n/a	No	2.73	n/a	5.0	NoResponse	0	0.007	554.726	8	58	Feedback	MissedWin	False
557.173	2.73	Win2	0.7119	n/a	No	2.73	n/a	n/a	NoResponse	0	0.0	n/a	8	58	ISIslide	MissedWin	False
559.931	0.25	Lose2	0.7167	0.0	Yes	2.669	0.031	n/a	GoodResponse	0	n/a	n/a	8	59	Cue	AvoidedLoss	True
560.182	4.0	Lose2	0.7167	0.0	Yes	2.669	0.001	n/a	GoodResponse	0	n/a	n/a	8	59	Fixation	AvoidedLoss	True
564.177	0.26	Lose2	0.7167	0.004	Yes	2.669	-0.004	2.0	GoodResponse	0	0.2	563.377	8	59	Target	AvoidedLoss	True
564.377	0.3	Lose2	0.7167	0.004	Yes	2.669	-0.004	2.0	GoodResponse	0	0.2	n/a	8	59	ButtonPress	AvoidedLoss	True
564.445	0.44	Lose2	0.7167	n/a	Yes	2.669	n/a	n/a	GoodResponse	0	n/a	n/a	8	59	Blank	AvoidedLoss	True
564.879	1.45	Lose2	0.7167	n/a	Yes	2.669	n/a	5.0	GoodResponse	0	0.015	563.894	8	59	Feedback	AvoidedLoss	True
566.334	2.669	Lose2	0.7167	n/a	Yes	2.669	n/a	n/a	GoodResponse	0	0.0	n/a	8	59	ISIslide	AvoidedLoss	True
569.025	0.25	Control	0.7049	0.0	No	2.675	0.025	n/a	NoResponse	0	n/a	n/a	8	60	Cue	Neutral	True
569.276	4.0	Control	0.7049	0.0	No	2.675	0.001	n/a	NoResponse	0	n/a	n/a	8	60	Fixation	Neutral	True
573.271	0.25	Control	0.7049	0.004	No	2.675	-0.004	2.0	NoResponse	0	0.29	572.561	8	60	Target	Neutral	True
573.522	0.45	Control	0.7049	n/a	No	2.675	n/a	n/a	NoResponse	0	n/a	n/a	8	60	Blank	Neutral	True
573.561	0.3	Control	0.7049	0.004	No	2.675	-0.004	2.0	NoResponse	0	0.29	n/a	8	60	ButtonPress	Neutral	True
573.973	1.45	Control	0.7049	n/a	No	2.675	n/a	5.0	NoResponse	0	0.043	573.016	8	60	Feedback	Neutral	True
575.428	2.675	Control	0.7049	n/a	No	2.675	n/a	n/a	NoResponse	0	0.0	n/a	8	60	ISIslide	Neutral	True
578.119	0.25	Lose2	0.7097	0.0	Yes	2.981	0.019	n/a	GoodResponse	0	n/a	n/a	8	61	Cue	AvoidedLoss	True
578.37	4.0	Lose2	0.7097	0.0	Yes	2.981	0.001	n/a	GoodResponse	0	n/a	n/a	8	61	Fixation	AvoidedLoss	True
582.365	0.24	Lose2	0.7097	0.004	Yes	2.981	-0.004	2.0	GoodResponse	0	0.231	581.596	8	61	Target	AvoidedLoss	True
582.596	0.3	Lose2	0.7097	0.004	Yes	2.981	-0.004	2.0	GoodResponse	0	0.231	n/a	8	61	ButtonPress	AvoidedLoss	True
582.616	0.46	Lose2	0.7097	n/a	Yes	2.981	n/a	n/a	GoodResponse	0	n/a	n/a	8	61	Blank	AvoidedLoss	True
583.067	1.45	Lose2	0.7097	n/a	Yes	2.981	n/a	5.0	GoodResponse	0	0.023	582.09	8	61	Feedback	AvoidedLoss	True
584.521	2.981	Lose2	0.7097	n/a	Yes	2.981	n/a	n/a	GoodResponse	0	0.0	n/a	8	61	ISIslide	AvoidedLoss	True
587.53	0.25	Lose2	0.7143	0.001	Yes	2.87	0.03	n/a	GoodResponse	0	n/a	n/a	8	62	Cue	AvoidedLoss	True
587.781	3.9	Lose2	0.7143	0.0	Yes	2.87	0.001	n/a	GoodResponse	0	n/a	n/a	8	62	Fixation	AvoidedLoss	True
591.676	0.23	Lose2	0.7143	0.004	Yes	2.87	-0.004	2.0	GoodResponse	0	0.208	590.884	8	62	Target	AvoidedLoss	True
591.884	0.3	Lose2	0.7143	0.004	Yes	2.87	-0.004	2.0	GoodResponse	0	0.208	n/a	8	62	ButtonPress	AvoidedLoss	True
591.91	0.47	Lose2	0.7143	n/a	Yes	2.87	n/a	n/a	GoodResponse	0	n/a	n/a	8	62	Blank	AvoidedLoss	True
592.378	1.45	Lose2	0.7143	n/a	Yes	2.87	n/a	5.0	GoodResponse	0	0.029	591.407	8	62	Feedback	AvoidedLoss	True
593.833	2.87	Lose2	0.7143	n/a	Yes	2.87	n/a	n/a	GoodResponse	0	0.0	n/a	8	62	ISIslide	AvoidedLoss	True
596.725	0.25	Lose2	0.7031000000000001	0.0	No	2.625	0.025	n/a	NoResponse	-1	n/a	n/a	7	63	Cue	Loss	True
596.975	4.05	Lose2	0.7031000000000001	0.0	No	2.625	0.0	n/a	NoResponse	-1	n/a	n/a	7	63	Fixation	Loss	True
601.021	0.22	Lose2	0.7031000000000001	0.004	No	2.625	-0.004	2.0	NoResponse	-1	0.252	600.273	7	63	Target	Loss	True
601.255	0.48	Lose2	0.7031000000000001	n/a	No	2.625	n/a	n/a	NoResponse	-1	n/a	n/a	7	63	Blank	Loss	True
601.273	0.3	Lose2	0.7031000000000001	0.004	No	2.625	-0.004	2.0	NoResponse	-1	0.252	n/a	7	63	ButtonPress	Loss	True
601.723	1.45	Lose2	0.7031000000000001	n/a	No	2.625	n/a	5.0	NoResponse	-1	0.001	600.724	7	63	Feedback	Loss	True
603.177	2.625	Lose2	0.7031000000000001	n/a	No	2.625	n/a	n/a	NoResponse	-1	0.0	n/a	7	63	ISIslide	Loss	True
605.818	0.25	Win2	0.7077	0.001	Yes	3.132	0.018	n/a	GoodResponse	1	n/a	n/a	8	64	Cue	Win	True
606.069	4.15	Win2	0.7077	0.0	Yes	3.132	0.001	n/a	GoodResponse	1	n/a	n/a	8	64	Fixation	Win	True
610.215	0.21	Win2	0.7077	0.003	Yes	3.132	-0.003	2.0	GoodResponse	1	0.195	609.41	8	64	Target	Win	True
610.41	0.3	Win2	0.7077	0.003	Yes	3.132	-0.003	2.0	GoodResponse	1	0.195	n/a	8	64	ButtonPress	Win	True
610.432	0.49	Win2	0.7077	n/a	Yes	3.132	n/a	n/a	GoodResponse	1	n/a	n/a	8	64	Blank	Win	True
610.917	1.45	Win2	0.7077	n/a	Yes	3.132	n/a	5.0	GoodResponse	1	0.026	609.943	8	64	Feedback	Win	True
612.371	3.132	Win2	0.7077	n/a	Yes	3.132	n/a	n/a	GoodResponse	1	0.0	n/a	8	64	ISIslide	Win	True
615.531	0.25	Control	0.6970000000000001	0.0	No	2.769	0.031	n/a	NoResponse	0	n/a	n/a	8	65	Cue	Neutral	False
615.782	4.0	Control	0.6970000000000001	0.0	No	2.769	0.001	n/a	NoResponse	0	n/a	n/a	8	65	Fixation	Neutral	False
619.777	0.2	Control	0.6970000000000001	0.004	No	2.769	-0.004	n/a	NoResponse	0	n/a	n/a	8	65	Target	Neutral	False
619.977	0.5	Control	0.6970000000000001	n/a	No	2.769	n/a	n/a	NoResponse	0	n/a	n/a	8	65	Blank	Neutral	False
620.479	1.45	Control	0.6970000000000001	n/a	No	2.769	n/a	5.0	NoResponse	0	0.025	619.504	8	65	Feedback	Neutral	False
621.933	2.769	Control	0.6970000000000001	n/a	No	2.769	n/a	n/a	NoResponse	0	0.0	n/a	8	65	ISIslide	Neutral	False
624.725	0.25	Win2	0.6866	0.0	No	2.775	0.025	n/a	NoResponse	0	n/a	n/a	8	66	Cue	MissedWin	True
624.976	3.9	Win2	0.6866	0.0	No	2.775	0.001	n/a	NoResponse	0	n/a	n/a	8	66	Fixation	MissedWin	True
628.871	0.19	Win2	0.6866	0.004	No	2.775	-0.004	2.0	NoResponse	0	0.21	628.081	8	66	Target	MissedWin	True
629.071	0.51	Win2	0.6866	n/a	No	2.775	n/a	n/a	NoResponse	0	n/a	n/a	8	66	Blank	MissedWin	True
629.081	0.3	Win2	0.6866	0.004	No	2.775	-0.004	2.0	NoResponse	0	0.21	n/a	8	66	ButtonPress	MissedWin	True
629.573	1.45	Win2	0.6866	n/a	No	2.775	n/a	5.0	NoResponse	0	0.007	628.58	8	66	Feedback	MissedWin	True
631.027	2.775	Win2	0.6866	n/a	No	2.775	n/a	n/a	NoResponse	0	0.0	n/a	8	66	ISIslide	MissedWin	True
633.819	0.25	Control	0.6765000000000001	0.0	No	2.731	0.019	n/a	NoResponse	0	n/a	n/a	8	67	Cue	Neutral	True
634.07	3.95	Control	0.6765000000000001	0.0	No	2.731	0.001	n/a	NoResponse	0	n/a	n/a	8	67	Fixation	Neutral	True
638.015	0.18	Control	0.6765000000000001	0.004	No	2.731	-0.004	2.0	NoResponse	0	0.2	637.215	8	67	Target	Neutral	True
638.199	0.52	Control	0.6765000000000001	n/a	No	2.731	n/a	n/a	NoResponse	0	n/a	n/a	8	67	Blank	Neutral	True
638.215	0.3	Control	0.6765000000000001	0.004	No	2.731	-0.004	2.0	NoResponse	0	0.2	n/a	8	67	ButtonPress	Neutral	True
638.717	1.45	Control	0.6765000000000001	n/a	No	2.731	n/a	5.0	NoResponse	0	0.031	637.748	8	67	Feedback	Neutral	True
640.171	2.731	Control	0.6765000000000001	n/a	No	2.731	n/a	n/a	NoResponse	0	0.0	n/a	8	67	ISIslide	Neutral	True
642.929	0.25	Win2	0.6667000000000001	0.001	No	3.071	0.029	n/a	LatePress	0	n/a	n/a	8	68	Cue	MissedWin	True
643.18	4.0	Win2	0.6667000000000001	0.0	No	3.071	0.001	n/a	LatePress	0	n/a	n/a	8	68	Fixation	MissedWin	True
647.175	0.17	Win2	0.6667000000000001	0.004	No	3.071	-0.004	2.0	LatePress	0	0.171	646.346	8	68	Target	MissedWin	True
647.346	0.3	Win2	0.6667000000000001	0.004	No	3.071	-0.004	2.0	LatePress	0	0.171	n/a	8	68	ButtonPress	MissedWin	True
647.359	0.53	Win2	0.6667000000000001	n/a	No	3.071	n/a	n/a	LatePress	0	n/a	n/a	8	68	Blank	MissedWin	True
647.878	1.45	Win2	0.6667000000000001	n/a	No	3.071	n/a	5.0	LatePress	0	0.04	646.918	8	68	Feedback	MissedWin	True
649.332	3.071	Win2	0.6667000000000001	n/a	No	3.071	n/a	n/a	LatePress	0	0.0	n/a	8	68	ISIslide	MissedWin	True
652.424	0.25	Win2	0.6570999999999999	0.001	No	3.226	0.024	n/a	NoResponse	0	n/a	n/a	8	69	Cue	MissedWin	False
652.675	3.95	Win2	0.6570999999999999	0.0	No	3.226	0.001	2.0	NoResponse	0	3.827	655.502	8	69	Fixation	MissedWin	False
656.502	0.3	Win2	0.6570999999999999	0.0	No	3.226	0.001	2.0	NoResponse	0	3.827	n/a	8	69	ButtonPress	MissedWin	False
656.62	0.16	Win2	0.6570999999999999	0.004	No	3.226	-0.004	2.0	NoResponse	0	0.259	655.879	8	69	Target	MissedWin	False
656.788	0.54	Win2	0.6570999999999999	n/a	No	3.226	n/a	n/a	NoResponse	0	n/a	n/a	8	69	Blank	MissedWin	False
656.879	0.3	Win2	0.6570999999999999	0.004	No	3.226	-0.004	2.0	NoResponse	0	0.259	n/a	8	69	ButtonPress	MissedWin	False
657.322	1.45	Win2	0.6570999999999999	n/a	No	3.226	n/a	5.0	NoResponse	0	0.01	656.332	8	69	Feedback	MissedWin	False
658.777	3.226	Win2	0.6570999999999999	n/a	No	3.226	n/a	n/a	NoResponse	0	0.0	n/a	8	69	ISIslide	MissedWin	False
662.02	0.25	Lose2	0.6479	0.0	No	3.03	0.02	n/a	NoResponse	-1	n/a	n/a	7	70	Cue	Loss	True
662.271	4.05	Lose2	0.6479	0.0	No	3.03	0.001	n/a	NoResponse	-1	n/a	n/a	7	70	Fixation	Loss	True
666.316	0.16	Lose2	0.6479	0.004	No	3.03	-0.004	2.0	NoResponse	-1	0.269	665.585	7	70	Target	Loss	True
666.483	0.54	Lose2	0.6479	n/a	No	3.03	n/a	n/a	NoResponse	-1	n/a	n/a	7	70	Blank	Loss	True
666.585	0.3	Lose2	0.6479	0.004	No	3.03	-0.004	2.0	NoResponse	-1	0.269	n/a	7	70	ButtonPress	Loss	True
667.018	1.45	Lose2	0.6479	n/a	No	3.03	n/a	5.0	NoResponse	-1	0.022	666.04	7	70	Feedback	Loss	True
668.472	3.03	Lose2	0.6479	n/a	No	3.03	n/a	n/a	NoResponse	-1	0.0	n/a	7	70	ISIslide	Loss	True
671.515	0.25	Win2	0.6389	0.0	No	2.735	0.015	n/a	NoResponse	0	n/a	n/a	7	71	Cue	MissedWin	True
671.766	4.05	Win2	0.6389	0.0	No	2.735	0.001	n/a	NoResponse	0	n/a	n/a	7	71	Fixation	MissedWin	True
675.811	0.17	Win2	0.6389	0.004	No	2.735	-0.004	2.0	NoResponse	0	0.207	675.018	7	71	Target	MissedWin	True
675.995	0.53	Win2	0.6389	n/a	No	2.735	n/a	n/a	NoResponse	0	n/a	n/a	7	71	Blank	MissedWin	True
676.018	0.3	Win2	0.6389	0.004	No	2.735	-0.004	2.0	NoResponse	0	0.207	n/a	7	71	ButtonPress	MissedWin	True
676.513	1.45	Win2	0.6389	n/a	No	2.735	n/a	5.0	NoResponse	0	0.039	675.552	7	71	Feedback	MissedWin	True
677.968	2.735	Win2	0.6389	n/a	No	2.735	n/a	n/a	NoResponse	0	0.0	n/a	7	71	ISIslide	MissedWin	True
680.726	0.25	Win2	0.6301	0.0	No	2.774	0.026	n/a	NoResponse	0	n/a	n/a	7	72	Cue	MissedWin	True
680.977	4.1	Win2	0.6301	0.0	No	2.774	0.001	n/a	NoResponse	0	n/a	n/a	7	72	Fixation	MissedWin	True
685.072	0.18	Win2	0.6301	0.004	No	2.774	-0.004	2.0	NoResponse	0	0.185	684.257	7	72	Target	MissedWin	True
685.256	0.52	Win2	0.6301	n/a	No	2.774	n/a	n/a	NoResponse	0	n/a	n/a	7	72	Blank	MissedWin	True
685.257	0.3	Win2	0.6301	0.004	No	2.774	-0.004	2.0	NoResponse	0	0.185	n/a	7	72	ButtonPress	MissedWin	True
685.774	1.45	Win2	0.6301	n/a	No	2.774	n/a	5.0	NoResponse	0	0.047	684.821	7	72	Feedback	MissedWin	True
687.229	2.774	Win2	0.6301	n/a	No	2.774	n/a	n/a	NoResponse	0	0.0	n/a	7	72	ISIslide	MissedWin	True
690.02	0.25	Win2	0.6351	0.0	Yes	2.68	0.02	n/a	GoodResponse	1	n/a	n/a	8	73	Cue	Win	False
690.271	4.0	Win2	0.6351	0.0	Yes	2.68	0.001	2.0	GoodResponse	1	3.705	692.976	8	73	Fixation	Win	False
693.976	0.3	Win2	0.6351	0.0	Yes	2.68	0.001	2.0	GoodResponse	1	3.705	n/a	8	73	ButtonPress	Win	False
694.266	0.19	Win2	0.6351	0.004	Yes	2.68	-0.004	2.0	GoodResponse	1	0.142	693.408	8	73	Target	Win	False
694.408	0.3	Win2	0.6351	0.004	Yes	2.68	-0.004	2.0	GoodResponse	1	0.142	n/a	8	73	ButtonPress	Win	False
694.467	0.51	Win2	0.6351	n/a	Yes	2.68	n/a	n/a	GoodResponse	1	n/a	n/a	8	73	Blank	Win	False
694.968	1.45	Win2	0.6351	n/a	Yes	2.68	n/a	5.0	GoodResponse	1	0.022	693.99	8	73	Feedback	Win	False
696.423	2.68	Win2	0.6351	n/a	Yes	2.68	n/a	n/a	GoodResponse	1	0.0	n/a	8	73	ISIslide	Win	False
699.131	0.25	Lose2	0.6267	0.0	No	2.619	0.031	n/a	NoResponse	-1	n/a	n/a	7	74	Cue	Loss	False
699.382	4.05	Lose2	0.6267	0.0	No	2.619	0.001	n/a	NoResponse	-1	n/a	n/a	7	74	Fixation	Loss	False
703.427	0.2	Lose2	0.6267	0.004	No	2.619	-0.004	n/a	NoResponse	-1	n/a	n/a	7	74	Target	Loss	False
703.628	0.5	Lose2	0.6267	n/a	No	2.619	n/a	n/a	NoResponse	-1	n/a	n/a	7	74	Blank	Loss	False
704.129	1.45	Lose2	0.6267	n/a	No	2.619	n/a	5.0	NoResponse	-1	0.032	703.161	7	74	Feedback	Loss	False
705.583	2.619	Lose2	0.6267	n/a	No	2.619	n/a	n/a	NoResponse	-1	0.0	n/a	7	74	ISIslide	Loss	False
708.225	0.25	Lose2	0.6184000000000001	0.0	No	2.925	0.025	n/a	NoResponse	-1	n/a	n/a	6	75	Cue	Loss	True
708.475	3.95	Lose2	0.6184000000000001	0.0	No	2.925	0.0	n/a	NoResponse	-1	n/a	n/a	6	75	Fixation	Loss	True
712.421	0.21	Lose2	0.6184000000000001	0.004	No	2.925	-0.004	2.0	NoResponse	-1	0.29	711.711	6	75	Target	Loss	True
712.638	0.49	Lose2	0.6184000000000001	n/a	No	2.925	n/a	n/a	NoResponse	-1	n/a	n/a	6	75	Blank	Loss	True
712.711	0.3	Lose2	0.6184000000000001	0.004	No	2.925	-0.004	2.0	NoResponse	-1	0.29	n/a	6	75	ButtonPress	Loss	True
713.123	1.45	Lose2	0.6184000000000001	n/a	No	2.925	n/a	5.0	NoResponse	-1	0.014	712.137	6	75	Feedback	Loss	True
714.577	2.925	Lose2	0.6184000000000001	n/a	No	2.925	n/a	n/a	NoResponse	-1	0.0	n/a	6	75	ISIslide	Loss	True
717.519	0.25	Control	0.6234000000000001	0.0	Yes	3.231	0.019	n/a	GoodResponse	0	n/a	n/a	6	76	Cue	Neutral	True
717.77	4.05	Control	0.6234000000000001	0.0	Yes	3.231	0.001	n/a	GoodResponse	0	n/a	n/a	6	76	Fixation	Neutral	True
721.815	0.22	Control	0.6234000000000001	0.004	Yes	3.231	-0.004	2.0	GoodResponse	0	0.209	721.024	6	76	Target	Neutral	True
722.024	0.3	Control	0.6234000000000001	0.004	Yes	3.231	-0.004	2.0	GoodResponse	0	0.209	n/a	6	76	ButtonPress	Neutral	True
722.049	0.48	Control	0.6234000000000001	n/a	Yes	3.231	n/a	n/a	GoodResponse	0	n/a	n/a	6	76	Blank	Neutral	True
722.517	1.45	Control	0.6234000000000001	n/a	Yes	3.231	n/a	5.0	GoodResponse	0	0.035	721.552	6	76	Feedback	Neutral	True
723.972	3.231	Control	0.6234000000000001	n/a	Yes	3.231	n/a	n/a	GoodResponse	0	0.0	n/a	6	76	ISIslide	Neutral	True
727.215	0.25	Lose2	0.6282	0.0	Yes	2.585	0.015	n/a	GoodResponse	0	n/a	n/a	6	77	Cue	AvoidedLoss	True
727.466	3.95	Lose2	0.6282	0.0	Yes	2.585	0.001	n/a	GoodResponse	0	n/a	n/a	6	77	Fixation	AvoidedLoss	True
731.411	0.23	Lose2	0.6282	0.004	Yes	2.585	-0.004	2.0	GoodResponse	0	0.193	730.604	6	77	Target	AvoidedLoss	True
731.604	0.3	Lose2	0.6282	0.004	Yes	2.585	-0.004	2.0	GoodResponse	0	0.193	n/a	6	77	ButtonPress	AvoidedLoss	True
731.645	0.47	Lose2	0.6282	n/a	Yes	2.585	n/a	n/a	GoodResponse	0	n/a	n/a	6	77	Blank	AvoidedLoss	True
732.113	1.45	Lose2	0.6282	n/a	Yes	2.585	n/a	5.0	GoodResponse	0	0.049	731.162	6	77	Feedback	AvoidedLoss	True
733.567	2.585	Lose2	0.6282	n/a	Yes	2.585	n/a	n/a	GoodResponse	0	0.0	n/a	6	77	ISIslide	AvoidedLoss	True
