onset	duration	cue_type	current_mean_accuracy	duration_error	is_hit	isi_adjusted	onset_delay	response	response_type	reward	rt	rt_time	total_reward	trial_number	trial_phase	trial_type	one_press
11.1	0.25	Control	1.0	0.0	Yes	2.95	0.0	n/a	GoodResponse	0	n/a	n/a	0	0	Cue	Neutral	True
11.35	3.85	Control	1.0	0.0	Yes	2.95	0.0	n/a	GoodResponse	0	n/a	n/a	0	0	Fixation	Neutral	True
15.199	0.4	Control	1.0	0.001	Yes	2.95	-0.001	4.0	GoodResponse	0	0.208	14.407	0	0	Target	Neutral	True
15.407	0.3	Control	1.0	0.001	Yes	2.95	-0.001	4.0	GoodResponse	0	0.208	n/a	0	0	ButtonPress	Neutral	True
15.599	0.3	Control	1.0	n/a	Yes	2.95	n/a	n/a	GoodResponse	0	n/a	n/a	0	0	Blank	Neutral	True
15.898	1.45	Control	1.0	n/a	Yes	2.95	n/a	5.0	GoodResponse	0	0.032	14.93	0	0	Feedback	Neutral	True
17.348	2.95	Control	1.0	n/a	Yes	2.95	n/a	n/a	GoodResponse	0	0.0	n/a	0	0	ISIslide	Neutral	True
20.314	0.25	Lose2	1.0	0.0	Yes	2.786	0.014	n/a	GoodResponse	0	n/a	n/a	0	1	Cue	AvoidedLoss	True
20.563	4.0	Lose2	1.0	0.001	Yes	2.786	-0.001	n/a	GoodResponse	0	n/a	n/a	0	1	Fixation	AvoidedLoss	True
24.562	0.39	Lose2	1.0	0.002	Yes	2.786	-0.002	4.0	GoodResponse	0	0.23	23.792	0	1	Target	AvoidedLoss	True
24.792	0.3	Lose2	1.0	0.002	Yes	2.786	-0.002	4.0	GoodResponse	0	0.23	n/a	0	1	ButtonPress	AvoidedLoss	True
24.962	0.31	Lose2	1.0	n/a	Yes	2.786	n/a	n/a	GoodResponse	0	n/a	n/a	0	1	Blank	AvoidedLoss	True
25.262	1.45	Lose2	1.0	n/a	Yes	2.786	n/a	5.0	GoodResponse	0	0.034	24.296	0	1	Feedback	AvoidedLoss	True
26.711	2.786	Lose2	1.0	n/a	Yes	2.786	n/a	n/a	GoodResponse	0	0.0	n/a	0	1	ISIslide	AvoidedLoss	True
29.527	0.25	Control	1.0	0.0	Yes	2.573	0.027	n/a	GoodResponse	0	n/a	n/a	0	2	Cue	Neutral	True
29.777	4.1	Control	1.0	0.0	Yes	2.573	0.0	n/a	GoodResponse	0	n/a	n/a	0	2	Fixation	Neutral	True
33.875	0.38	Control	1.0	0.002	Yes	2.573	-0.002	4.0	GoodResponse	0	0.286	33.161	0	2	Target	Neutral	True
34.161	0.3	Control	1.0	0.002	Yes	2.573	-0.002	4.0	GoodResponse	0	0.286	n/a	0	2	ButtonPress	Neutral	True
34.259	0.32	Control	1.0	n/a	Yes	2.573	n/a	n/a	GoodResponse	0	n/a	n/a	0	2	Blank	Neutral	True
34.575	1.45	Control	1.0	n/a	Yes	2.573	n/a	5.0	GoodResponse	0	0.037	33.612	0	2	Feedback	Neutral	True
36.025	2.573	Control	1.0	n/a	Yes	2.573	n/a	n/a	GoodResponse	0	0.0	n/a	0	2	ISIslide	Neutral	True
38.624	0.25	Win2	1.0	0.0	Yes	2.826	0.024	n/a	GoodResponse	1	n/a	n/a	1	3	Cue	Win	True
38.874	3.95	Win2	1.0	0.0	Yes	2.826	0.0	n/a	GoodResponse	1	n/a	n/a	1	3	Fixation	Win	True
42.822	0.37	Win2	1.0	0.002	Yes	2.826	-0.002	4.0	GoodResponse	1	0.247	42.069	1	3	Target	Win	True
43.069	0.3	Win2	1.0	0.002	Yes	2.826	-0.002	4.0	GoodResponse	1	0.247	n/a	1	3	ButtonPress	Win	True
43.205	0.33	Win2	1.0	n/a	Yes	2.826	n/a	n/a	GoodResponse	1	n/a	n/a	1	3	Blank	Win	True
43.522	1.45	Win2	1.0	n/a	Yes	2.826	n/a	5.0	GoodResponse	1	0.017	42.539	1	3	Feedback	Win	True
44.971	2.826	Win2	1.0	n/a	Yes	2.826	n/a	n/a	GoodResponse	1	0.0	n/a	1	3	ISIslide	Win	True
47.82	0.25	Win2	1.0	0.001	Yes	3.28	0.02	n/a	GoodResponse	1	n/a	n/a	2	4	Cue	Win	True
48.07	4.0	Win2	1.0	0.0	Yes	3.28	0.0	n/a	GoodResponse	1	n/a	n/a	2	4	Fixation	Win	True
52.069	0.36	Win2	1.0	0.001	Yes	3.28	-0.001	4.0	GoodResponse	1	0.327	51.396	2	4	Target	Win	True
52.396	0.3	Win2	1.0	0.001	Yes	3.28	-0.001	4.0	GoodResponse	1	0.327	n/a	2	4	ButtonPress	Win	True
52.435	0.34	Win2	1.0	n/a	Yes	3.28	n/a	n/a	GoodResponse	1	n/a	n/a	2	4	Blank	Win	True
52.769	1.45	Win2	1.0	n/a	Yes	3.28	n/a	5.0	GoodResponse	1	0.038	51.807	2	4	Feedback	Win	True
54.218	3.28	Win2	1.0	n/a	Yes	3.28	n/a	n/a	GoodResponse	1	0.0	n/a	2	4	ISIslide	Win	True
57.517	0.25	Win2	1.0	0.0	Yes	2.783	0.017	n/a	GoodResponse	1	n/a	n/a	3	5	Cue	Win	True
57.767	4.0	Win2	1.0	0.0	Yes	2.783	0.0	n/a	GoodResponse	1	n/a	n/a	3	5	Fixation	Win	True
61.765	0.35	Win2	1.0	0.002	Yes	2.783	-0.002	4.0	GoodResponse	1	0.239	61.004	3	5	Target	Win	True
62.004	0.3	Win2	1.0	0.002	Yes	2.783	-0.002	4.0	GoodResponse	1	0.239	n/a	3	5	ButtonPress	Win	True
62.115	0.35	Win2	1.0	n/a	Yes	2.783	n/a	n/a	GoodResponse	1	n/a	n/a	3	5	Blank	Win	True
62.465	1.45	Win2	1.0	n/a	Yes	2.783	n/a	5.0	GoodResponse	1	0.001	61.466	3	5	Feedback	Win	True
63.915	2.783	Win2	1.0	n/a	Yes	2.783	n/a	n/a	GoodResponse	1	0.0	n/a	3	5	ISIslide	Win	True
66.714	0.25	Lose2	1.0	0.0	Yes	2.736	0.014	n/a	GoodResponse	0	n/a	n/a	3	6	Cue	AvoidedLoss	True
66.964	3.95	Lose2	1.0	0.0	Yes	2.736	0.0	n/a	GoodResponse	0	n/a	n/a	3	6	Fixation	AvoidedLoss	True
70.912	0.34	Lose2	1.0	0.002	Yes	2.736	-0.002	4.0	GoodResponse	0	0.23	70.142	3	6	Target	AvoidedLoss	True
71.142	0.3	Lose2	1.0	0.002	Yes	2.736	-0.002	4.0	GoodResponse	0	0.23	n/a	3	6	ButtonPress	AvoidedLoss	True
71.262	0.36	Lose2	1.0	n/a	Yes	2.736	n/a	n/a	GoodResponse	0	n/a	n/a	3	6	Blank	AvoidedLoss	True
71.612	1.45	Lose2	1.0	n/a	Yes	2.736	n/a	5.0	GoodResponse	0	0.024	70.636	3	6	Feedback	AvoidedLoss	True
73.061	2.736	Lose2	1.0	n/a	Yes	2.736	n/a	n/a	GoodResponse	0	0.0	n/a	3	6	ISIslide	AvoidedLoss	True
75.827	0.25	Lose2	1.0	0.0	Yes	4.023	0.027	n/a	GoodResponse	0	n/a	n/a	3	7	Cue	AvoidedLoss	True
76.077	4.05	Lose2	1.0	0.0	Yes	4.023	0.0	n/a	GoodResponse	0	n/a	n/a	3	7	Fixation	AvoidedLoss	True
80.126	0.33	Lose2	1.0	0.001	Yes	4.023	-0.001	4.0	GoodResponse	0	0.241	79.367	3	7	Target	AvoidedLoss	True
80.367	0.3	Lose2	1.0	0.001	Yes	4.023	-0.001	4.0	GoodResponse	0	0.241	n/a	3	7	ButtonPress	AvoidedLoss	True
80.459	0.37	Lose2	1.0	n/a	Yes	4.023	n/a	n/a	GoodResponse	0	n/a	n/a	3	7	Blank	AvoidedLoss	True
80.825	1.45	Lose2	1.0	n/a	Yes	4.023	n/a	5.0	GoodResponse	0	0.031	79.856	3	7	Feedback	AvoidedLoss	True
82.275	4.023	Lose2	1.0	n/a	Yes	4.023	n/a	n/a	GoodResponse	0	0.0	n/a	3	7	ISIslide	AvoidedLoss	True
86.323	0.25	Lose2	1.0	0.001	Yes	3.027	0.023	n/a	GoodResponse	0	n/a	n/a	3	8	Cue	AvoidedLoss	True
86.573	3.95	Lose2	1.0	0.0	Yes	3.027	0.0	n/a	GoodResponse	0	n/a	n/a	3	8	Fixation	AvoidedLoss	True
90.522	0.32	Lose2	1.0	0.001	Yes	3.027	-0.001	4.0	GoodResponse	0	0.221	89.743	3	8	Target	AvoidedLoss	True
90.743	0.3	Lose2	1.0	0.001	Yes	3.027	-0.001	4.0	GoodResponse	0	0.221	n/a	3	8	ButtonPress	AvoidedLoss	True
90.838	0.38	Lose2	1.0	n/a	Yes	3.027	n/a	n/a	GoodResponse	0	n/a	n/a	3	8	Blank	AvoidedLoss	True
91.222	1.45	Lose2	1.0	n/a	Yes	3.027	n/a	5.0	GoodResponse	0	0.024	90.246	3	8	Feedback	AvoidedLoss	True
92.671	3.027	Lose2	1.0	n/a	Yes	3.027	n/a	n/a	GoodResponse	0	0.0	n/a	3	8	ISIslide	AvoidedLoss	True
95.72	0.25	Lose2	1.0	0.0	Yes	3.13	0.02	n/a	GoodResponse	0	n/a	n/a	3	9	Cue	AvoidedLoss	True
95.97	3.95	Lose2	1.0	0.0	Yes	3.13	0.0	n/a	GoodResponse	0	n/a	n/a	3	9	Fixation	AvoidedLoss	True
99.919	0.31	Lose2	1.0	0.001	Yes	3.13	-0.001	4.0	GoodResponse	0	0.301	99.22	3	9	Target	AvoidedLoss	True
100.22	0.3	Lose2	1.0	0.001	Yes	3.13	-0.001	4.0	GoodResponse	0	0.301	n/a	3	9	ButtonPress	AvoidedLoss	True
100.235	0.39	Lose2	1.0	n/a	Yes	3.13	n/a	n/a	GoodResponse	0	n/a	n/a	3	9	Blank	AvoidedLoss	True
100.618	1.45	Lose2	1.0	n/a	Yes	3.13	n/a	5.0	GoodResponse	0	0.043	99.661	3	9	Feedback	AvoidedLoss	True
102.068	3.13	Lose2	1.0	n/a	Yes	3.13	n/a	n/a	GoodResponse	0	0.0	n/a	3	9	ISIslide	AvoidedLoss	True
105.217	0.25	Control	1.0	0.0	Yes	3.283	0.017	n/a	GoodResponse	0	n/a	n/a	3	10	Cue	Neutral	True
105.467	4.0	Control	1.0	0.0	Yes	3.283	0.0	n/a	GoodResponse	0	n/a	n/a	3	10	Fixation	Neutral	True
109.465	0.3	Control	1.0	0.002	Yes	3.283	-0.002	4.0	GoodResponse	0	0.223	108.688	3	10	Target	Neutral	True
109.688	0.3	Control	1.0	0.002	Yes	3.283	-0.002	4.0	GoodResponse	0	0.223	n/a	3	10	ButtonPress	Neutral	True
109.765	0.4	Control	1.0	n/a	Yes	3.283	n/a	n/a	GoodResponse	0	n/a	n/a	3	10	Blank	Neutral	True
110.165	1.45	Control	1.0	n/a	Yes	3.283	n/a	5.0	GoodResponse	0	0.007	109.172	3	10	Feedback	Neutral	True
111.614	3.283	Control	1.0	n/a	Yes	3.283	n/a	n/a	GoodResponse	0	0.0	n/a	3	10	ISIslide	Neutral	True
114.913	0.25	Lose2	0.9167000000000001	0.0	No	2.737	0.013	n/a	NoResponse	-1	n/a	n/a	2	11	Cue	Loss	True
115.163	4.05	Lose2	0.9167000000000001	0.0	No	2.737	0.0	n/a	NoResponse	-1	n/a	n/a	2	11	Fixation	Loss	True
119.212	0.29	Lose2	0.9167000000000001	0.001	No	2.737	-0.001	4.0	NoResponse	-1	0.305	118.517	2	11	Target	Loss	True
119.512	0.41	Lose2	0.9167000000000001	n/a	No	2.737	n/a	n/a	NoResponse	-1	n/a	n/a	2	11	Blank	Loss	True
119.517	0.3	Lose2	0.9167000000000001	0.001	No	2.737	-0.001	4.0	NoResponse	-1	0.305	n/a	2	11	ButtonPress	Loss	True
119.911	1.45	Lose2	0.9167000000000001	n/a	No	2.737	n/a	5.0	NoResponse	-1	0.017	118.928	2	11	Feedback	Loss	True
121.361	2.737	Lose2	0.9167000000000001	n/a	No	2.737	n/a	n/a	NoResponse	-1	0.0	n/a	2	11	ISIslide	Loss	True
124.127	0.25	Control	0.9231	0.0	Yes	2.973	0.027	n/a	GoodResponse	0	n/a	n/a	2	12	Cue	Neutral	True
124.377	3.9	Control	0.9231	0.0	Yes	2.973	0.0	n/a	GoodResponse	0	n/a	n/a	2	12	Fixation	Neutral	True
128.275	0.28	Control	0.9231	0.002	Yes	2.973	-0.002	4.0	GoodResponse	0	0.266	127.541	2	12	Target	Neutral	True
128.541	0.3	Control	0.9231	0.002	Yes	2.973	-0.002	4.0	GoodResponse	0	0.266	n/a	2	12	ButtonPress	Neutral	True
128.558	0.42	Control	0.9231	n/a	Yes	2.973	n/a	n/a	GoodResponse	0	n/a	n/a	2	12	Blank	Neutral	True
128.975	1.45	Control	0.9231	n/a	Yes	2.973	n/a	5.0	GoodResponse	0	0.026	128.001	2	12	Feedback	Neutral	True
130.424	2.973	Control	0.9231	n/a	Yes	2.973	n/a	n/a	GoodResponse	0	0.0	n/a	2	12	ISIslide	Neutral	True
133.423	0.25	Control	0.9286	0.0	Yes	2.777	0.023	n/a	GoodResponse	0	n/a	n/a	2	13	Cue	Neutral	True
133.673	4.0	Control	0.9286	0.0	Yes	2.777	0.0	n/a	GoodResponse	0	n/a	n/a	2	13	Fixation	Neutral	True
137.672	0.27	Control	0.9286	0.001	Yes	2.777	-0.001	4.0	GoodResponse	0	0.202	136.874	2	13	Target	Neutral	True
137.874	0.3	Control	0.9286	0.001	Yes	2.777	-0.001	4.0	GoodResponse	0	0.202	n/a	2	13	ButtonPress	Neutral	True
137.938	0.43	Control	0.9286	n/a	Yes	2.777	n/a	n/a	GoodResponse	0	n/a	n/a	2	13	Blank	Neutral	True
138.372	1.45	Control	0.9286	n/a	Yes	2.777	n/a	5.0	GoodResponse	0	0.044	137.416	2	13	Feedback	Neutral	True
139.821	2.777	Control	0.9286	n/a	Yes	2.777	n/a	n/a	GoodResponse	0	0.0	n/a	2	13	ISIslide	Neutral	True
142.62	0.25	Win2	0.9333	0.0	Yes	2.68	0.02	n/a	GoodResponse	1	n/a	n/a	3	14	Cue	Win	True
142.87	4.1	Win2	0.9333	0.0	Yes	2.68	0.0	n/a	GoodResponse	1	n/a	n/a	3	14	Fixation	Win	True
146.969	0.26	Win2	0.9333	0.001	Yes	2.68	-0.001	4.0	GoodResponse	1	0.222	146.191	3	14	Target	Win	True
147.191	0.3	Win2	0.9333	0.001	Yes	2.68	-0.001	4.0	GoodResponse	1	0.222	n/a	3	14	ButtonPress	Win	True
147.235	0.44	Win2	0.9333	n/a	Yes	2.68	n/a	n/a	GoodResponse	1	n/a	n/a	3	14	Blank	Win	True
147.668	1.45	Win2	0.9333	n/a	Yes	2.68	n/a	5.0	GoodResponse	1	0.016	146.684	3	14	Feedback	Win	True
149.118	2.68	Win2	0.9333	n/a	Yes	2.68	n/a	n/a	GoodResponse	1	0.0	n/a	3	14	ISIslide	Win	True
151.817	0.25	Control	0.9375	0.0	Yes	2.983	0.017	n/a	GoodResponse	0	n/a	n/a	3	15	Cue	Neutral	True
152.067	4.0	Control	0.9375	0.0	Yes	2.983	0.0	n/a	GoodResponse	0	n/a	n/a	3	15	Fixation	Neutral	True
156.065	0.25	Control	0.9375	0.002	Yes	2.983	-0.002	4.0	GoodResponse	0	0.224	155.289	3	15	Target	Neutral	True
156.289	0.3	Control	0.9375	0.002	Yes	2.983	-0.002	4.0	GoodResponse	0	0.224	n/a	3	15	ButtonPress	Neutral	True
156.315	0.45	Control	0.9375	n/a	Yes	2.983	n/a	n/a	GoodResponse	0	n/a	n/a	3	15	Blank	Neutral	True
156.765	1.45	Control	0.9375	n/a	Yes	2.983	n/a	5.0	GoodResponse	0	0.041	155.806	3	15	Feedback	Neutral	True
158.215	2.983	Control	0.9375	n/a	Yes	2.983	n/a	n/a	GoodResponse	0	0.0	n/a	3	15	ISIslide	Neutral	True
161.213	0.25	Win2	0.9412	0.001	Yes	2.887	0.013	n/a	GoodResponse	1	n/a	n/a	4	16	Cue	Win	True
161.463	4.0	Win2	0.9412	0.0	Yes	2.887	0.0	n/a	GoodResponse	1	n/a	n/a	4	16	Fixation	Win	True
165.462	0.24	Win2	0.9412	0.001	Yes	2.887	-0.001	4.0	GoodResponse	1	0.23	164.692	4	16	Target	Win	True
165.692	0.3	Win2	0.9412	0.001	Yes	2.887	-0.001	4.0	GoodResponse	1	0.23	n/a	4	16	ButtonPress	Win	True
165.712	0.46	Win2	0.9412	n/a	Yes	2.887	n/a	n/a	GoodResponse	1	n/a	n/a	4	16	Blank	Win	True
166.162	1.45	Win2	0.9412	n/a	Yes	2.887	n/a	5.0	GoodResponse	1	0.01	165.172	4	16	Feedback	Win	True
167.611	2.887	Win2	0.9412	n/a	Yes	2.887	n/a	n/a	GoodResponse	1	0.0	n/a	4	16	ISIslide	Win	True
170.527	0.25	Lose2	0.8889	0.0	No	2.723	0.027	n/a	NoResponse	-1	n/a	n/a	3	17	Cue	Loss	True
170.777	3.95	Lose2	0.8889	0.0	No	2.723	0.0	n/a	NoResponse	-1	n/a	n/a	3	17	Fixation	Loss	True
174.725	0.23	Lose2	0.8889	0.002	No	2.723	-0.002	4.0	NoResponse	-1	0.297	174.022	3	17	Target	Loss	True
174.959	0.47	Lose2	0.8889	n/a	No	2.723	n/a	n/a	NoResponse	-1	n/a	n/a	3	17	Blank	Loss	True
175.022	0.3	Lose2	0.8889	0.002	No	2.723	-0.002	4.0	NoResponse	-1	0.297	n/a	3	17	ButtonPress	Loss	True
175.425	1.45	Lose2	0.8889	n/a	No	2.723	n/a	5.0	NoResponse	-1	0.015	174.44	3	17	Feedback	Loss	True
176.875	2.723	Lose2	0.8889	n/a	No	2.723	n/a	n/a	NoResponse	-1	0.0	n/a	3	17	ISIslide	Loss	True
179.624	0.25	Lose2	0.8946999999999999	0.0	Yes	2.726	0.024	n/a	GoodResponse	0	n/a	n/a	3	18	Cue	AvoidedLoss	True
179.873	4.05	Lose2	0.8946999999999999	0.001	Yes	2.726	-0.001	n/a	GoodResponse	0	n/a	n/a	3	18	Fixation	AvoidedLoss	True
183.922	0.22	Lose2	0.8946999999999999	0.002	Yes	2.726	-0.002	4.0	GoodResponse	0	0.191	183.113	3	18	Target	AvoidedLoss	True
184.113	0.3	Lose2	0.8946999999999999	0.002	Yes	2.726	-0.002	4.0	GoodResponse	0	0.191	n/a	3	18	ButtonPress	AvoidedLoss	True
184.155	0.48	Lose2	0.8946999999999999	n/a	Yes	2.726	n/a	n/a	GoodResponse	0	n/a	n/a	3	18	Blank	AvoidedLoss	True
184.622	1.45	Lose2	0.8946999999999999	n/a	Yes	2.726	n/a	5.0	GoodResponse	0	0.037	183.659	3	18	Feedback	AvoidedLoss	True
186.071	2.726	Lose2	0.8946999999999999	n/a	Yes	2.726	n/a	n/a	GoodResponse	0	0.0	n/a	3	18	ISIslide	AvoidedLoss	True
188.82	0.25	Control	0.85	0.0	No	2.93	0.02	n/a	NoResponse	0	n/a	n/a	3	19	Cue	Neutral	True
189.07	3.95	Control	0.85	0.0	No	2.93	0.0	n/a	NoResponse	0	n/a	n/a	3	19	Fixation	Neutral	True
193.019	0.21	Control	0.85	0.001	No	2.93	-0.001	4.0	NoResponse	0	0.233	192.252	3	19	Target	Neutral	True
193.235	0.49	Control	0.85	n/a	No	2.93	n/a	n/a	NoResponse	0	n/a	n/a	3	19	Blank	Neutral	True
193.252	0.3	Control	0.85	0.001	No	2.93	-0.001	4.0	NoResponse	0	0.233	n/a	3	19	ButtonPress	Neutral	True
193.719	1.45	Control	0.85	n/a	No	2.93	n/a	5.0	NoResponse	0	0.013	192.732	3	19	Feedback	Neutral	True
195.168	2.93	Control	0.85	n/a	No	2.93	n/a	n/a	NoResponse	0	0.0	n/a	3	19	ISIslide	Neutral	True
198.117	0.25	Control	0.8095	0.0	No	2.633	0.017	n/a	PrematurePress	0	n/a	n/a	3	20	Cue	Neutral	True
198.367	4.05	Control	0.8095	0.0	No	2.633	0.0	n/a	PrematurePress	0	n/a	n/a	3	20	Fixation	Neutral	True
202.415	0.2	Control	0.8095	0.002	No	2.633	-0.002	4.0	PrematurePress	0	0.074	201.489	3	20	Target	Neutral	True
202.489	0.3	Control	0.8095	0.002	No	2.633	-0.002	4.0	PrematurePress	0	0.074	n/a	3	20	ButtonPress	Neutral	True
202.615	0.5	Control	0.8095	n/a	No	2.633	n/a	n/a	PrematurePress	0	n/a	n/a	3	20	Blank	Neutral	True
203.115	1.45	Control	0.8095	n/a	No	2.633	n/a	5.0	PrematurePress	0	0.032	202.147	3	20	Feedback	Neutral	True
204.565	2.633	Control	0.8095	n/a	No	2.633	n/a	n/a	PrematurePress	0	0.0	n/a	3	20	ISIslide	Neutral	True
207.214	0.25	Control	0.7726999999999999	0.0	No	2.786	0.014	n/a	NoResponse	0	n/a	n/a	3	21	Cue	Neutral	True
207.464	4.1	Control	0.7726999999999999	0.0	No	2.786	0.0	n/a	NoResponse	0	n/a	n/a	3	21	Fixation	Neutral	True
211.562	0.19	Control	0.7726999999999999	0.002	No	2.786	-0.002	4.0	NoResponse	0	0.222	210.784	3	21	Target	Neutral	True
211.762	0.51	Control	0.7726999999999999	n/a	No	2.786	n/a	n/a	NoResponse	0	n/a	n/a	3	21	Blank	Neutral	True
211.784	0.3	Control	0.7726999999999999	0.002	No	2.786	-0.002	4.0	NoResponse	0	0.222	n/a	3	21	ButtonPress	Neutral	True
212.262	1.45	Control	0.7726999999999999	n/a	No	2.786	n/a	5.0	NoResponse	0	0.007	211.269	3	21	Feedback	Neutral	True
213.711	2.786	Control	0.7726999999999999	n/a	No	2.786	n/a	n/a	NoResponse	0	0.0	n/a	3	21	ISIslide	Neutral	True
216.51	0.25	Control	0.7391	0.001	No	2.79	0.01	n/a	NoResponse	0	n/a	n/a	3	22	Cue	Neutral	True
216.76	4.0	Control	0.7391	0.0	No	2.79	0.0	n/a	NoResponse	0	n/a	n/a	3	22	Fixation	Neutral	True
220.759	0.18	Control	0.7391	0.001	No	2.79	-0.001	4.0	NoResponse	0	0.213	219.972	3	22	Target	Neutral	True
220.942	0.52	Control	0.7391	n/a	No	2.79	n/a	n/a	NoResponse	0	n/a	n/a	3	22	Blank	Neutral	True
220.972	0.3	Control	0.7391	0.001	No	2.79	-0.001	4.0	NoResponse	0	0.213	n/a	3	22	ButtonPress	Neutral	True
221.459	1.45	Control	0.7391	n/a	No	2.79	n/a	5.0	NoResponse	0	0.028	220.487	3	22	Feedback	Neutral	True
222.908	2.79	Control	0.7391	n/a	No	2.79	n/a	n/a	NoResponse	0	0.0	n/a	3	22	ISIslide	Neutral	True
225.724	0.25	Control	0.7082999999999999	0.0	No	2.776	0.024	n/a	NoResponse	0	n/a	n/a	3	23	Cue	Neutral	True
225.974	3.9	Control	0.7082999999999999	0.0	No	2.776	0.0	n/a	NoResponse	0	n/a	n/a	3	23	Fixation	Neutral	True
229.872	0.17	Control	0.7082999999999999	0.002	No	2.776	-0.002	4.0	NoResponse	0	0.253	229.125	3	23	Target	Neutral	True
230.056	0.53	Control	0.7082999999999999	n/a	No	2.776	n/a	n/a	NoResponse	0	n/a	n/a	3	23	Blank	Neutral	True
230.125	0.3	Control	0.7082999999999999	0.002	No	2.776	-0.002	4.0	NoResponse	0	0.253	n/a	3	23	ButtonPress	Neutral	True
230.572	1.45	Control	0.7082999999999999	n/a	No	2.776	n/a	5.0	NoResponse	0	0.038	229.61	3	23	Feedback	Neutral	True
232.022	2.776	Control	0.7082999999999999	n/a	No	2.776	n/a	n/a	NoResponse	0	0.0	n/a	3	23	ISIslide	Neutral	True
234.821	0.25	Win2	0.68	0.0	No	3.129	0.021	n/a	NoResponse	0	n/a	n/a	3	24	Cue	MissedWin	True
235.071	3.95	Win2	0.68	0.0	No	3.129	0.0	n/a	NoResponse	0	n/a	n/a	3	24	Fixation	MissedWin	True
239.019	0.16	Win2	0.68	0.002	No	3.129	-0.002	4.0	NoResponse	0	0.191	238.21	3	24	Target	MissedWin	True
239.186	0.54	Win2	0.68	n/a	No	3.129	n/a	n/a	NoResponse	0	n/a	n/a	3	24	Blank	MissedWin	True
239.21	0.3	Win2	0.68	0.002	No	3.129	-0.002	4.0	NoResponse	0	0.191	n/a	3	24	ButtonPress	MissedWin	True
239.719	1.45	Win2	0.68	n/a	No	3.129	n/a	5.0	NoResponse	0	0.013	238.732	3	24	Feedback	MissedWin	True
241.168	3.129	Win2	0.68	n/a	No	3.129	n/a	n/a	NoResponse	0	0.0	n/a	3	24	ISIslide	MissedWin	True
244.317	0.25	Win2	0.6537999999999999	0.0	No	3.083	0.017	n/a	NoResponse	0	n/a	n/a	3	25	Cue	MissedWin	True
244.567	4.0	Win2	0.6537999999999999	0.0	No	3.083	0.0	n/a	NoResponse	0	n/a	n/a	3	25	Fixation	MissedWin	True
248.566	0.15	Win2	0.6537999999999999	0.001	No	3.083	-0.001	4.0	NoResponse	0	0.202	247.768	3	25	Target	MissedWin	True
248.716	0.55	Win2	0.6537999999999999	n/a	No	3.083	n/a	n/a	NoResponse	0	n/a	n/a	3	25	Blank	MissedWin	True
248.768	0.3	Win2	0.6537999999999999	0.001	No	3.083	-0.001	4.0	NoResponse	0	0.202	n/a	3	25	ButtonPress	MissedWin	True
249.265	1.45	Win2	0.6537999999999999	n/a	No	3.083	n/a	5.0	NoResponse	0	0.028	248.293	3	25	Feedback	MissedWin	True
250.715	3.083	Win2	0.6537999999999999	n/a	No	3.083	n/a	n/a	NoResponse	0	0.0	n/a	3	25	ISIslide	MissedWin	True
253.814	0.25	Win2	0.6296	0.0	No	2.936	0.014	n/a	NoResponse	0	n/a	n/a	3	26	Cue	MissedWin	True
254.064	3.95	Win2	0.6296	0.0	No	2.936	0.0	n/a	NoResponse	0	n/a	n/a	3	26	Fixation	MissedWin	True
258.012	0.16	Win2	0.6296	0.002	No	2.936	-0.002	4.0	NoResponse	0	0.179	257.191	3	26	Target	MissedWin	True
258.179	0.54	Win2	0.6296	n/a	No	2.936	n/a	n/a	NoResponse	0	n/a	n/a	3	26	Blank	MissedWin	True
258.191	0.3	Win2	0.6296	0.002	No	2.936	-0.002	4.0	NoResponse	0	0.179	n/a	3	26	ButtonPress	MissedWin	True
258.712	1.45	Win2	0.6296	n/a	No	2.936	n/a	5.0	NoResponse	0	0.043	257.755	3	26	Feedback	MissedWin	True
260.162	2.936	Win2	0.6296	n/a	No	2.936	n/a	n/a	NoResponse	0	0.0	n/a	3	26	ISIslide	MissedWin	True
263.127	0.25	Lose2	0.6071	0.0	No	2.823	0.027	n/a	NoResponse	-1	n/a	n/a	2	27	Cue	Loss	True
263.377	4.05	Lose2	0.6071	0.0	No	2.823	0.0	n/a	NoResponse	-1	n/a	n/a	2	27	Fixation	Loss	True
267.426	0.17	Lose2	0.6071	0.001	No	2.823	-0.001	4.0	NoResponse	-1	0.193	266.619	2	27	Target	Loss	True
267.609	0.53	Lose2	0.6071	n/a	No	2.823	n/a	n/a	NoResponse	-1	n/a	n/a	2	27	Blank	Loss	True
267.619	0.3	Lose2	0.6071	0.001	No	2.823	-0.001	4.0	NoResponse	-1	0.193	n/a	2	27	ButtonPress	Loss	True
268.125	1.45	Lose2	0.6071	n/a	No	2.823	n/a	5.0	NoResponse	-1	0.045	267.17	2	27	Feedback	Loss	True
269.575	2.823	Lose2	0.6071	n/a	No	2.823	n/a	n/a	NoResponse	-1	0.0	n/a	2	27	ISIslide	Loss	True
272.424	0.25	Control	0.5861999999999999	0.0	No	2.826	0.024	n/a	PrematurePress	0	n/a	n/a	2	28	Cue	Neutral	True
272.674	4.05	Control	0.5861999999999999	0.0	No	2.826	0.0	n/a	PrematurePress	0	n/a	n/a	2	28	Fixation	Neutral	True
276.722	0.18	Control	0.5861999999999999	0.002	No	2.826	-0.002	4.0	PrematurePress	0	0.014	275.736	2	28	Target	Neutral	True
276.736	0.3	Control	0.5861999999999999	0.002	No	2.826	-0.002	4.0	PrematurePress	0	0.014	n/a	2	28	ButtonPress	Neutral	True
276.906	0.52	Control	0.5861999999999999	n/a	No	2.826	n/a	n/a	PrematurePress	0	n/a	n/a	2	28	Blank	Neutral	True
277.422	1.45	Control	0.5861999999999999	n/a	No	2.826	n/a	5.0	PrematurePress	0	0.016	276.438	2	28	Feedback	Neutral	True
278.872	2.826	Control	0.5861999999999999	n/a	No	2.826	n/a	n/a	PrematurePress	0	0.0	n/a	2	28	ISIslide	Neutral	True
281.721	0.25	Lose2	0.5667	0.0	No	2.829	0.021	n/a	NoResponse	-1	n/a	n/a	1	29	Cue	Loss	True
281.97	3.95	Lose2	0.5667	0.001	No	2.829	-0.001	n/a	NoResponse	-1	n/a	n/a	1	29	Fixation	Loss	True
285.919	0.19	Lose2	0.5667	0.002	No	2.829	-0.002	4.0	NoResponse	-1	0.205	285.124	1	29	Target	Loss	True
286.119	0.51	Lose2	0.5667	n/a	No	2.829	n/a	n/a	NoResponse	-1	n/a	n/a	1	29	Blank	Loss	True
286.124	0.3	Lose2	0.5667	0.002	No	2.829	-0.002	4.0	NoResponse	-1	0.205	n/a	1	29	ButtonPress	Loss	True
286.619	1.45	Lose2	0.5667	n/a	No	2.829	n/a	5.0	NoResponse	-1	0.039	285.658	1	29	Feedback	Loss	True
288.068	2.829	Lose2	0.5667	n/a	No	2.829	n/a	n/a	NoResponse	-1	0.0	n/a	1	29	ISIslide	Loss	True
290.917	0.25	Win2	0.5484	0.0	No	2.783	0.017	n/a	NoResponse	0	n/a	n/a	1	30	Cue	MissedWin	True
291.167	3.9	Win2	0.5484	0.0	No	2.783	0.0	n/a	NoResponse	0	n/a	n/a	1	30	Fixation	MissedWin	True
295.066	0.2	Win2	0.5484	0.001	No	2.783	-0.001	4.0	NoResponse	0	0.257	294.323	1	30	Target	MissedWin	True
295.266	0.5	Win2	0.5484	n/a	No	2.783	n/a	n/a	NoResponse	0	n/a	n/a	1	30	Blank	MissedWin	True
295.323	0.3	Win2	0.5484	0.001	No	2.783	-0.001	4.0	NoResponse	0	0.257	n/a	1	30	ButtonPress	MissedWin	True
295.766	1.45	Win2	0.5484	n/a	No	2.783	n/a	5.0	NoResponse	0	0.013	294.779	1	30	Feedback	MissedWin	True
297.215	2.783	Win2	0.5484	n/a	No	2.783	n/a	n/a	NoResponse	0	0.0	n/a	1	30	ISIslide	MissedWin	True
300.014	0.25	Lose2	0.5312	0.0	No	2.836	0.014	n/a	PrematurePress	-1	n/a	n/a	0	31	Cue	Loss	False
300.264	4.05	Lose2	0.5312	0.0	No	2.836	0.0	4.0	PrematurePress	-1	3.41	302.674	0	31	Fixation	Loss	False
303.674	0.3	Lose2	0.5312	0.0	No	2.836	0.0	4.0	PrematurePress	-1	3.41	n/a	0	31	ButtonPress	Loss	False
304.313	0.21	Lose2	0.5312	0.001	No	2.836	-0.001	4.0	PrematurePress	-1	0.024	303.337	0	31	Target	Loss	False
304.337	0.3	Lose2	0.5312	0.001	No	2.836	-0.001	4.0	PrematurePress	-1	0.024	n/a	0	31	ButtonPress	Loss	False
304.529	0.49	Lose2	0.5312	n/a	No	2.836	n/a	n/a	PrematurePress	-1	n/a	n/a	0	31	Blank	Loss	False
305.012	1.45	Lose2	0.5312	n/a	No	2.836	n/a	5.0	PrematurePress	-1	0.035	304.047	0	31	Feedback	Loss	False
306.462	2.836	Lose2	0.5312	n/a	No	2.836	n/a	n/a	PrematurePress	-1	0.0	n/a	0	31	ISIslide	Loss	False
309.327	0.25	Lose2	0.5152	0.0	No	2.623	0.027	n/a	NoResponse	-1	n/a	n/a	-1	32	Cue	Loss	True
309.577	4.15	Lose2	0.5152	0.0	No	2.623	0.0	4.0	NoResponse	-1	4.021	312.598	-1	32	Fixation	Loss	True
313.598	0.3	Lose2	0.5152	0.0	No	2.623	0.0	4.0	NoResponse	-1	4.021	n/a	-1	32	ButtonPress	Loss	True
313.726	0.22	Lose2	0.5152	0.001	No	2.623	-0.001	n/a	NoResponse	-1	n/a	n/a	-1	32	Target	Loss	True
313.942	0.48	Lose2	0.5152	n/a	No	2.623	n/a	n/a	NoResponse	-1	n/a	n/a	-1	32	Blank	Loss	True
314.426	1.45	Lose2	0.5152	n/a	No	2.623	n/a	5.0	NoResponse	-1	0.036	313.462	-1	32	Feedback	Loss	True
315.875	2.623	Lose2	0.5152	n/a	No	2.623	n/a	n/a	NoResponse	-1	0.0	n/a	-1	32	ISIslide	Loss	True
318.524	0.25	Win2	0.5294	0.0	Yes	2.676	0.024	n/a	GoodResponse	1	n/a	n/a	0	33	Cue	Win	True
318.774	4.0	Win2	0.5294	0.0	Yes	2.676	0.0	n/a	GoodResponse	1	n/a	n/a	0	33	Fixation	Win	True
322.773	0.23	Win2	0.5294	0.001	Yes	2.676	-0.001	4.0	GoodResponse	1	0.203	321.976	0	33	Target	Win	True
322.976	0.3	Win2	0.5294	0.001	Yes	2.676	-0.001	4.0	GoodResponse	1	0.203	n/a	0	33	ButtonPress	Win	True
323.006	0.47	Win2	0.5294	n/a	Yes	2.676	n/a	n/a	GoodResponse	1	n/a	n/a	0	33	Blank	Win	True
323.472	1.45	Win2	0.5294	n/a	Yes	2.676	n/a	5.0	GoodResponse	1	0.015	322.487	0	33	Feedback	Win	True
324.922	2.676	Win2	0.5294	n/a	Yes	2.676	n/a	n/a	GoodResponse	1	0.0	n/a	0	33	ISIslide	Win	True
327.621	0.25	Lose2	0.5428999999999999	0.0	Yes	2.629	0.021	n/a	GoodResponse	0	n/a	n/a	0	34	Cue	AvoidedLoss	True
327.871	4.05	Lose2	0.5428999999999999	0.0	Yes	2.629	0.0	n/a	GoodResponse	0	n/a	n/a	0	34	Fixation	AvoidedLoss	True
331.919	0.24	Lose2	0.5428999999999999	0.002	Yes	2.629	-0.002	4.0	GoodResponse	0	0.203	331.122	0	34	Target	AvoidedLoss	True
332.122	0.3	Lose2	0.5428999999999999	0.002	Yes	2.629	-0.002	4.0	GoodResponse	0	0.203	n/a	0	34	ButtonPress	AvoidedLoss	True
332.169	0.46	Lose2	0.5428999999999999	n/a	Yes	2.629	n/a	n/a	GoodResponse	0	n/a	n/a	0	34	Blank	AvoidedLoss	True
332.619	1.45	Lose2	0.5428999999999999	n/a	Yes	2.629	n/a	5.0	GoodResponse	0	0.038	331.657	0	34	Feedback	AvoidedLoss	True
334.069	2.629	Lose2	0.5428999999999999	n/a	Yes	2.629	n/a	n/a	GoodResponse	0	0.0	n/a	0	34	ISIslide	AvoidedLoss	True
336.718	0.25	Lose2	0.5556	0.0	Yes	2.682	0.018	n/a	GoodResponse	0	n/a	n/a	0	35	Cue	AvoidedLoss	True
336.968	4.0	Lose2	0.5556	0.0	Yes	2.682	0.0	n/a	GoodResponse	0	n/a	n/a	0	35	Fixation	AvoidedLoss	True
340.966	0.25	Lose2	0.5556	0.002	Yes	2.682	-0.002	4.0	GoodResponse	0	0.198	340.164	0	35	Target	AvoidedLoss	True
341.164	0.3	Lose2	0.5556	0.002	Yes	2.682	-0.002	4.0	GoodResponse	0	0.198	n/a	0	35	ButtonPress	AvoidedLoss	True
341.216	0.45	Lose2	0.5556	n/a	Yes	2.682	n/a	n/a	GoodResponse	0	n/a	n/a	0	35	Blank	AvoidedLoss	True
341.666	1.45	Lose2	0.5556	n/a	Yes	2.682	n/a	5.0	GoodResponse	0	0.015	340.681	0	35	Feedback	AvoidedLoss	True
343.115	2.682	Lose2	0.5556	n/a	Yes	2.682	n/a	n/a	GoodResponse	0	0.0	n/a	0	35	ISIslide	AvoidedLoss	True
345.814	0.25	Control	0.5676	0.001	Yes	2.686	0.014	n/a	GoodResponse	0	n/a	n/a	0	36	Cue	Neutral	True
346.064	4.0	Control	0.5676	0.0	Yes	2.686	0.0	n/a	GoodResponse	0	n/a	n/a	0	36	Fixation	Neutral	True
350.063	0.26	Control	0.5676	0.001	Yes	2.686	-0.001	4.0	GoodResponse	0	0.186	349.249	0	36	Target	Neutral	True
350.249	0.3	Control	0.5676	0.001	Yes	2.686	-0.001	4.0	GoodResponse	0	0.186	n/a	0	36	ButtonPress	Neutral	True
350.33	0.44	Control	0.5676	n/a	Yes	2.686	n/a	n/a	GoodResponse	0	n/a	n/a	0	36	Blank	Neutral	True
350.763	1.45	Control	0.5676	n/a	Yes	2.686	n/a	5.0	GoodResponse	0	0.04	349.803	0	36	Feedback	Neutral	True
352.212	2.686	Control	0.5676	n/a	Yes	2.686	n/a	n/a	GoodResponse	0	0.0	n/a	0	36	ISIslide	Neutral	True
354.928	0.25	Win2	0.5789	0.0	Yes	2.872	0.028	n/a	GoodResponse	1	n/a	n/a	1	37	Cue	Win	True
355.178	4.0	Win2	0.5789	0.0	Yes	2.872	0.0	n/a	GoodResponse	1	n/a	n/a	1	37	Fixation	Win	True
359.176	0.27	Win2	0.5789	0.002	Yes	2.872	-0.002	4.0	GoodResponse	1	0.193	358.369	1	37	Target	Win	True
359.369	0.3	Win2	0.5789	0.002	Yes	2.872	-0.002	4.0	GoodResponse	1	0.193	n/a	1	37	ButtonPress	Win	True
359.46	0.43	Win2	0.5789	n/a	Yes	2.872	n/a	n/a	GoodResponse	1	n/a	n/a	1	37	Blank	Win	True
359.876	1.45	Win2	0.5789	n/a	Yes	2.872	n/a	5.0	GoodResponse	1	0.049	358.925	1	37	Feedback	Win	True
361.326	2.872	Win2	0.5789	n/a	Yes	2.872	n/a	n/a	GoodResponse	1	0.0	n/a	1	37	ISIslide	Win	True
364.225	0.25	Lose2	0.5897	0.0	Yes	2.825	0.025	n/a	GoodResponse	0	n/a	n/a	1	38	Cue	AvoidedLoss	True
364.474	3.95	Lose2	0.5897	0.001	Yes	2.825	-0.001	n/a	GoodResponse	0	n/a	n/a	1	38	Fixation	AvoidedLoss	True
368.423	0.28	Lose2	0.5897	0.002	Yes	2.825	-0.002	4.0	GoodResponse	0	0.166	367.589	1	38	Target	AvoidedLoss	True
368.589	0.3	Lose2	0.5897	0.002	Yes	2.825	-0.002	4.0	GoodResponse	0	0.166	n/a	1	38	ButtonPress	AvoidedLoss	True
368.706	0.42	Lose2	0.5897	n/a	Yes	2.825	n/a	n/a	GoodResponse	0	n/a	n/a	1	38	Blank	AvoidedLoss	True
369.123	1.45	Lose2	0.5897	n/a	Yes	2.825	n/a	5.0	GoodResponse	0	0.021	368.144	1	38	Feedback	AvoidedLoss	True
370.572	2.825	Lose2	0.5897	n/a	Yes	2.825	n/a	n/a	GoodResponse	0	0.0	n/a	1	38	ISIslide	AvoidedLoss	True
373.421	0.25	Win2	0.6	0.0	Yes	2.979	0.021	n/a	GoodResponse	1	n/a	n/a	2	39	Cue	Win	True
373.671	4.1	Win2	0.6	0.0	Yes	2.979	0.0	n/a	GoodResponse	1	n/a	n/a	2	39	Fixation	Win	True
377.77	0.29	Win2	0.6	0.001	Yes	2.979	-0.001	4.0	GoodResponse	1	0.201	376.971	2	39	Target	Win	True
377.971	0.3	Win2	0.6	0.001	Yes	2.979	-0.001	4.0	GoodResponse	1	0.201	n/a	2	39	ButtonPress	Win	True
378.07	0.41	Win2	0.6	n/a	Yes	2.979	n/a	n/a	GoodResponse	1	n/a	n/a	2	39	Blank	Win	True
378.469	1.45	Win2	0.6	n/a	Yes	2.979	n/a	5.0	GoodResponse	1	0.041	377.51	2	39	Feedback	Win	True
379.919	2.979	Win2	0.6	n/a	Yes	2.979	n/a	n/a	GoodResponse	1	0.0	n/a	2	39	ISIslide	Win	True
382.918	0.25	Win2	0.5854	0.0	No	2.732	0.018	n/a	NoResponse	0	n/a	n/a	2	40	Cue	MissedWin	True
383.168	3.95	Win2	0.5854	0.0	No	2.732	0.0	4.0	NoResponse	0	3.895	386.063	2	40	Fixation	MissedWin	True
387.063	0.3	Win2	0.5854	0.0	No	2.732	0.0	4.0	NoResponse	0	3.895	n/a	2	40	ButtonPress	MissedWin	True
387.116	0.3	Win2	0.5854	0.002	No	2.732	-0.002	n/a	NoResponse	0	n/a	n/a	2	40	Target	MissedWin	True
387.416	0.4	Win2	0.5854	n/a	No	2.732	n/a	n/a	NoResponse	0	n/a	n/a	2	40	Blank	MissedWin	True
387.816	1.45	Win2	0.5854	n/a	No	2.732	n/a	5.0	NoResponse	0	0.011	386.827	2	40	Feedback	MissedWin	True
389.266	2.732	Win2	0.5854	n/a	No	2.732	n/a	n/a	NoResponse	0	0.0	n/a	2	40	ISIslide	MissedWin	True
392.015	0.25	Win2	0.5952000000000001	0.0	Yes	2.785	0.015	n/a	GoodResponse	1	n/a	n/a	3	41	Cue	Win	True
392.265	3.9	Win2	0.5952000000000001	0.0	Yes	2.785	0.0	n/a	GoodResponse	1	n/a	n/a	3	41	Fixation	Win	True
396.163	0.31	Win2	0.5952000000000001	0.002	Yes	2.785	-0.002	4.0	GoodResponse	1	0.204	395.367	3	41	Target	Win	True
396.367	0.3	Win2	0.5952000000000001	0.002	Yes	2.785	-0.002	4.0	GoodResponse	1	0.204	n/a	3	41	ButtonPress	Win	True
396.48	0.39	Win2	0.5952000000000001	n/a	Yes	2.785	n/a	n/a	GoodResponse	1	n/a	n/a	3	41	Blank	Win	True
396.863	1.45	Win2	0.5952000000000001	n/a	Yes	2.785	n/a	5.0	GoodResponse	1	0.037	395.9	3	41	Feedback	Win	True
398.312	2.785	Win2	0.5952000000000001	n/a	Yes	2.785	n/a	n/a	GoodResponse	1	0.0	n/a	3	41	ISIslide	Win	True
401.128	0.25	Control	0.6047	0.0	Yes	2.922	0.028	n/a	GoodResponse	0	n/a	n/a	3	42	Cue	Neutral	True
401.378	3.85	Control	0.6047	0.0	Yes	2.922	0.0	n/a	GoodResponse	0	n/a	n/a	3	42	Fixation	Neutral	True
405.227	0.32	Control	0.6047	0.001	Yes	2.922	-0.001	4.0	GoodResponse	0	0.208	404.435	3	42	Target	Neutral	True
405.435	0.3	Control	0.6047	0.001	Yes	2.922	-0.001	4.0	GoodResponse	0	0.208	n/a	3	42	ButtonPress	Neutral	True
405.56	0.38	Control	0.6047	n/a	Yes	2.922	n/a	n/a	GoodResponse	0	n/a	n/a	3	42	Blank	Neutral	True
405.926	1.45	Control	0.6047	n/a	Yes	2.922	n/a	5.0	GoodResponse	0	0.047	404.973	3	42	Feedback	Neutral	True
407.376	2.922	Control	0.6047	n/a	Yes	2.922	n/a	n/a	GoodResponse	0	0.0	n/a	3	42	ISIslide	Neutral	True
410.325	0.25	Win2	0.6136	0.0	Yes	3.175	0.025	n/a	GoodResponse	1	n/a	n/a	4	43	Cue	Win	True
410.575	4.0	Win2	0.6136	0.0	Yes	3.175	0.0	n/a	GoodResponse	1	n/a	n/a	4	43	Fixation	Win	True
414.573	0.33	Win2	0.6136	0.002	Yes	3.175	-0.002	4.0	GoodResponse	1	0.201	413.774	4	43	Target	Win	True
414.774	0.3	Win2	0.6136	0.002	Yes	3.175	-0.002	4.0	GoodResponse	1	0.201	n/a	4	43	ButtonPress	Win	True
414.907	0.37	Win2	0.6136	n/a	Yes	3.175	n/a	n/a	GoodResponse	1	n/a	n/a	4	43	Blank	Win	True
415.273	1.45	Win2	0.6136	n/a	Yes	3.175	n/a	5.0	GoodResponse	1	0.017	414.29	4	43	Feedback	Win	True
416.723	3.175	Win2	0.6136	n/a	Yes	3.175	n/a	n/a	GoodResponse	1	0.0	n/a	4	43	ISIslide	Win	True
419.921	0.25	Win2	0.6222	0.0	Yes	2.979	0.021	n/a	GoodResponse	1	n/a	n/a	5	44	Cue	Win	True
420.171	4.0	Win2	0.6222	0.0	Yes	2.979	0.0	n/a	GoodResponse	1	n/a	n/a	5	44	Fixation	Win	True
424.17	0.34	Win2	0.6222	0.001	Yes	2.979	-0.001	4.0	GoodResponse	1	0.207	423.377	5	44	Target	Win	True
424.377	0.3	Win2	0.6222	0.001	Yes	2.979	-0.001	4.0	GoodResponse	1	0.207	n/a	5	44	ButtonPress	Win	True
424.52	0.36	Win2	0.6222	n/a	Yes	2.979	n/a	n/a	GoodResponse	1	n/a	n/a	5	44	Blank	Win	True
424.87	1.45	Win2	0.6222	n/a	Yes	2.979	n/a	5.0	GoodResponse	1	0.03	423.9	5	44	Feedback	Win	True
426.319	2.979	Win2	0.6222	n/a	Yes	2.979	n/a	n/a	GoodResponse	1	0.0	n/a	5	44	ISIslide	Win	True
429.318	0.25	Control	0.6087	0.0	No	2.882	0.018	n/a	NoResponse	0	n/a	n/a	5	45	Cue	Neutral	True
429.568	4.1	Control	0.6087	0.0	No	2.882	0.0	n/a	NoResponse	0	n/a	n/a	5	45	Fixation	Neutral	True
433.667	0.35	Control	0.6087	0.001	No	2.882	-0.001	4.0	NoResponse	0	0.445	433.112	5	45	Target	Neutral	True
434.016	0.35	Control	0.6087	n/a	No	2.882	n/a	n/a	NoResponse	0	n/a	n/a	5	45	Blank	Neutral	True
434.112	0.3	Control	0.6087	0.001	No	2.882	-0.001	4.0	NoResponse	0	0.445	n/a	5	45	ButtonPress	Neutral	True
434.366	1.45	Control	0.6087	n/a	No	2.882	n/a	5.0	NoResponse	0	0.046	433.412	5	45	Feedback	Neutral	True
435.816	2.882	Control	0.6087	n/a	No	2.882	n/a	n/a	NoResponse	0	0.0	n/a	5	45	ISIslide	Neutral	True
438.715	0.25	Lose2	0.617	0.0	Yes	3.385	0.015	n/a	GoodResponse	0	n/a	n/a	5	46	Cue	AvoidedLoss	True
438.965	4.0	Lose2	0.617	0.0	Yes	3.385	0.0	n/a	GoodResponse	0	n/a	n/a	5	46	Fixation	AvoidedLoss	True
442.963	0.36	Lose2	0.617	0.002	Yes	3.385	-0.002	4.0	GoodResponse	0	0.205	442.168	5	46	Target	AvoidedLoss	True
443.168	0.3	Lose2	0.617	0.002	Yes	3.385	-0.002	4.0	GoodResponse	0	0.205	n/a	5	46	ButtonPress	AvoidedLoss	True
443.33	0.34	Lose2	0.617	n/a	Yes	3.385	n/a	n/a	GoodResponse	0	n/a	n/a	5	46	Blank	AvoidedLoss	True
443.663	1.45	Lose2	0.617	n/a	Yes	3.385	n/a	5.0	GoodResponse	0	0.016	442.679	5	46	Feedback	AvoidedLoss	True
445.112	3.385	Lose2	0.617	n/a	Yes	3.385	n/a	n/a	GoodResponse	0	0.0	n/a	5	46	ISIslide	AvoidedLoss	True
448.528	0.25	Lose2	0.625	0.0	Yes	2.672	0.028	n/a	GoodResponse	0	n/a	n/a	5	47	Cue	AvoidedLoss	True
448.778	4.0	Lose2	0.625	0.0	Yes	2.672	0.0	n/a	GoodResponse	0	n/a	n/a	5	47	Fixation	AvoidedLoss	True
452.776	0.37	Lose2	0.625	0.002	Yes	2.672	-0.002	4.0	GoodResponse	0	0.208	451.984	5	47	Target	AvoidedLoss	True
452.984	0.3	Lose2	0.625	0.002	Yes	2.672	-0.002	4.0	GoodResponse	0	0.208	n/a	5	47	ButtonPress	AvoidedLoss	True
453.16	0.33	Lose2	0.625	n/a	Yes	2.672	n/a	n/a	GoodResponse	0	n/a	n/a	5	47	Blank	AvoidedLoss	True
453.476	1.45	Lose2	0.625	n/a	Yes	2.672	n/a	5.0	GoodResponse	0	0.008	452.484	5	47	Feedback	AvoidedLoss	True
454.926	2.672	Lose2	0.625	n/a	Yes	2.672	n/a	n/a	GoodResponse	0	0.0	n/a	5	47	ISIslide	AvoidedLoss	True
457.625	0.25	Lose2	0.6327	0.0	Yes	3.025	0.025	n/a	GoodResponse	0	n/a	n/a	5	48	Cue	AvoidedLoss	True
457.875	3.95	Lose2	0.6327	0.0	Yes	3.025	0.0	n/a	GoodResponse	0	n/a	n/a	5	48	Fixation	AvoidedLoss	True
461.823	0.38	Lose2	0.6327	0.002	Yes	3.025	-0.002	4.0	GoodResponse	0	0.213	461.036	5	48	Target	AvoidedLoss	True
462.036	0.3	Lose2	0.6327	0.002	Yes	3.025	-0.002	4.0	GoodResponse	0	0.213	n/a	5	48	ButtonPress	AvoidedLoss	True
462.206	0.32	Lose2	0.6327	n/a	Yes	3.025	n/a	n/a	GoodResponse	0	n/a	n/a	5	48	Blank	AvoidedLoss	True
462.523	1.45	Lose2	0.6327	n/a	Yes	3.025	n/a	5.0	GoodResponse	0	0.035	461.558	5	48	Feedback	AvoidedLoss	True
463.972	3.025	Lose2	0.6327	n/a	Yes	3.025	n/a	n/a	GoodResponse	0	0.0	n/a	5	48	ISIslide	AvoidedLoss	True
467.021	0.25	Control	0.64	0.0	Yes	2.879	0.021	n/a	GoodResponse	0	n/a	n/a	5	49	Cue	Neutral	True
467.271	4.0	Control	0.64	0.0	Yes	2.879	0.0	n/a	GoodResponse	0	n/a	n/a	5	49	Fixation	Neutral	True
471.27	0.39	Control	0.64	0.001	Yes	2.879	-0.001	4.0	GoodResponse	0	0.218	470.488	5	49	Target	Neutral	True
471.488	0.3	Control	0.64	0.001	Yes	2.879	-0.001	4.0	GoodResponse	0	0.218	n/a	5	49	ButtonPress	Neutral	True
471.67	0.31	Control	0.64	n/a	Yes	2.879	n/a	n/a	GoodResponse	0	n/a	n/a	5	49	Blank	Neutral	True
471.97	1.45	Control	0.64	n/a	Yes	2.879	n/a	5.0	GoodResponse	0	0.003	470.973	5	49	Feedback	Neutral	True
473.419	2.879	Control	0.64	n/a	Yes	2.879	n/a	n/a	GoodResponse	0	0.0	n/a	5	49	ISIslide	Neutral	True
476.318	0.25	Control	0.6470999999999999	0.0	Yes	2.782	0.018	n/a	GoodResponse	0	n/a	n/a	5	50	Cue	Neutral	True
476.568	4.0	Control	0.6470999999999999	0.0	Yes	2.782	0.0	n/a	GoodResponse	0	n/a	n/a	5	50	Fixation	Neutral	True
480.567	0.4	Control	0.6470999999999999	0.001	Yes	2.782	-0.001	4.0	GoodResponse	0	0.209	479.776	5	50	Target	Neutral	True
480.776	0.3	Control	0.6470999999999999	0.001	Yes	2.782	-0.001	4.0	GoodResponse	0	0.209	n/a	5	50	ButtonPress	Neutral	True
480.966	0.3	Control	0.6470999999999999	n/a	Yes	2.782	n/a	n/a	GoodResponse	0	n/a	n/a	5	50	Blank	Neutral	True
481.266	1.45	Control	0.6470999999999999	n/a	Yes	2.782	n/a	5.0	GoodResponse	0	0.023	480.289	5	50	Feedback	Neutral	True
482.716	2.782	Control	0.6470999999999999	n/a	Yes	2.782	n/a	n/a	GoodResponse	0	0.0	n/a	5	50	ISIslide	Neutral	True
485.515	0.25	Control	0.6537999999999999	0.0	Yes	2.735	0.015	n/a	GoodResponse	0	n/a	n/a	5	51	Cue	Neutral	True
485.765	3.95	Control	0.6537999999999999	0.0	Yes	2.735	0.0	n/a	GoodResponse	0	n/a	n/a	5	51	Fixation	Neutral	True
489.713	0.41	Control	0.6537999999999999	0.002	Yes	2.735	-0.002	4.0	GoodResponse	0	0.255	488.968	5	51	Target	Neutral	True
489.968	0.3	Control	0.6537999999999999	0.002	Yes	2.735	-0.002	4.0	GoodResponse	0	0.255	n/a	5	51	ButtonPress	Neutral	True
490.13	0.29	Control	0.6537999999999999	n/a	Yes	2.735	n/a	n/a	GoodResponse	0	n/a	n/a	5	51	Blank	Neutral	True
490.413	1.45	Control	0.6537999999999999	n/a	Yes	2.735	n/a	5.0	GoodResponse	0	0.047	489.46	5	51	Feedback	Neutral	True
491.862	2.735	Control	0.6537999999999999	n/a	Yes	2.735	n/a	n/a	GoodResponse	0	0.0	n/a	5	51	ISIslide	Neutral	True
494.628	0.25	Control	0.6604000000000001	0.0	Yes	2.622	0.028	n/a	GoodResponse	0	n/a	n/a	5	52	Cue	Neutral	True
494.878	4.05	Control	0.6604000000000001	0.0	Yes	2.622	0.0	n/a	GoodResponse	0	n/a	n/a	5	52	Fixation	Neutral	True
498.927	0.42	Control	0.6604000000000001	0.001	Yes	2.622	-0.001	4.0	GoodResponse	0	0.193	498.12	5	52	Target	Neutral	True
499.12	0.3	Control	0.6604000000000001	0.001	Yes	2.622	-0.001	4.0	GoodResponse	0	0.193	n/a	5	52	ButtonPress	Neutral	True
499.36	0.28	Control	0.6604000000000001	n/a	Yes	2.622	n/a	n/a	GoodResponse	0	n/a	n/a	5	52	Blank	Neutral	True
499.626	1.45	Control	0.6604000000000001	n/a	Yes	2.622	n/a	5.0	GoodResponse	0	0.005	498.631	5	52	Feedback	Neutral	True
501.076	2.622	Control	0.6604000000000001	n/a	Yes	2.622	n/a	n/a	GoodResponse	0	0.0	n/a	5	52	ISIslide	Neutral	True
503.725	0.25	Win2	0.6667000000000001	0.0	Yes	2.925	0.025	n/a	GoodResponse	1	n/a	n/a	6	53	Cue	Win	False
503.975	4.05	Win2	0.6667000000000001	0.0	Yes	2.925	0.0	4.0	GoodResponse	1	0.185	503.16	6	53	Fixation	Win	False
504.16	0.3	Win2	0.6667000000000001	0.0	Yes	2.925	0.0	4.0	GoodResponse	1	0.185	n/a	6	53	ButtonPress	Win	False
508.023	0.42	Win2	0.6667000000000001	0.002	Yes	2.925	-0.002	4.0	GoodResponse	1	0.185	507.208	6	53	Target	Win	False
508.208	0.3	Win2	0.6667000000000001	0.002	Yes	2.925	-0.002	4.0	GoodResponse	1	0.185	n/a	6	53	ButtonPress	Win	False
508.457	0.28	Win2	0.6667000000000001	n/a	Yes	2.925	n/a	n/a	GoodResponse	1	n/a	n/a	6	53	Blank	Win	False
508.723	1.45	Win2	0.6667000000000001	n/a	Yes	2.925	n/a	5.0	GoodResponse	1	0.029	507.752	6	53	Feedback	Win	False
510.173	2.925	Win2	0.6667000000000001	n/a	Yes	2.925	n/a	n/a	GoodResponse	1	0.0	n/a	6	53	ISIslide	Win	False
513.122	0.25	Win2	0.6727	0.0	Yes	2.728	0.022	n/a	GoodResponse	1	n/a	n/a	7	54	Cue	Win	True
513.372	3.95	Win2	0.6727	0.0	Yes	2.728	0.0	n/a	GoodResponse	1	n/a	n/a	7	54	Fixation	Win	True
517.32	0.41	Win2	0.6727	0.002	Yes	2.728	-0.002	4.0	GoodResponse	1	0.226	516.546	7	54	Target	Win	True
517.546	0.3	Win2	0.6727	0.002	Yes	2.728	-0.002	4.0	GoodResponse	1	0.226	n/a	7	54	ButtonPress	Win	True
517.737	0.29	Win2	0.6727	n/a	Yes	2.728	n/a	n/a	GoodResponse	1	n/a	n/a	7	54	Blank	Win	True
518.02	1.45	Win2	0.6727	n/a	Yes	2.728	n/a	5.0	GoodResponse	1	0.0	517.02	7	54	Feedback	Win	True
519.469	2.728	Win2	0.6727	n/a	Yes	2.728	n/a	n/a	GoodResponse	1	0.0	n/a	7	54	ISIslide	Win	True
522.218	0.25	Control	0.6786	0.0	Yes	3.032	0.018	n/a	GoodResponse	0	n/a	n/a	7	55	Cue	Neutral	True
522.468	3.95	Control	0.6786	0.0	Yes	3.032	0.0	n/a	GoodResponse	0	n/a	n/a	7	55	Fixation	Neutral	True
526.417	0.4	Control	0.6786	0.001	Yes	3.032	-0.001	4.0	GoodResponse	0	0.214	525.631	7	55	Target	Neutral	True
526.631	0.3	Control	0.6786	0.001	Yes	3.032	-0.001	4.0	GoodResponse	0	0.214	n/a	7	55	ButtonPress	Neutral	True
526.817	0.3	Control	0.6786	n/a	Yes	3.032	n/a	n/a	GoodResponse	0	n/a	n/a	7	55	Blank	Neutral	True
527.117	1.45	Control	0.6786	n/a	Yes	3.032	n/a	5.0	GoodResponse	0	0.025	526.142	7	55	Feedback	Neutral	True
528.566	3.032	Control	0.6786	n/a	Yes	3.032	n/a	n/a	GoodResponse	0	0.0	n/a	7	55	ISIslide	Neutral	True
531.615	0.25	Control	0.6667000000000001	0.0	No	2.835	0.015	n/a	NoResponse	0	n/a	n/a	7	56	Cue	Neutral	False
531.865	3.95	Control	0.6667000000000001	0.0	No	2.835	0.0	n/a	NoResponse	0	n/a	n/a	7	56	Fixation	Neutral	False
535.814	0.39	Control	0.6667000000000001	0.001	No	2.835	-0.001	n/a	NoResponse	0	n/a	n/a	7	56	Target	Neutral	False
536.213	0.31	Control	0.6667000000000001	n/a	No	2.835	n/a	n/a	NoResponse	0	n/a	n/a	7	56	Blank	Neutral	False
536.513	1.45	Control	0.6667000000000001	n/a	No	2.835	n/a	5.0	NoResponse	0	0.044	535.557	7	56	Feedback	Neutral	False
537.963	2.835	Control	0.6667000000000001	n/a	No	2.835	n/a	n/a	NoResponse	0	0.0	n/a	7	56	ISIslide	Neutral	False
540.812	0.25	Control	0.6552	0.0	No	3.488	0.012	n/a	NoResponse	0	n/a	n/a	7	57	Cue	Neutral	False
541.062	4.0	Control	0.6552	0.0	No	3.488	0.0	n/a	NoResponse	0	n/a	n/a	7	57	Fixation	Neutral	False
545.06	0.38	Control	0.6552	0.002	No	3.488	-0.002	n/a	NoResponse	0	n/a	n/a	7	57	Target	Neutral	False
545.443	0.32	Control	0.6552	n/a	No	3.488	n/a	n/a	NoResponse	0	n/a	n/a	7	57	Blank	Neutral	False
545.76	1.45	Control	0.6552	n/a	No	3.488	n/a	5.0	NoResponse	0	0.016	544.776	7	57	Feedback	Neutral	False
547.209	3.488	Control	0.6552	n/a	No	3.488	n/a	n/a	NoResponse	0	0.0	n/a	7	57	ISIslide	Neutral	False
550.725	0.25	Win2	0.6609999999999999	0.0	Yes	2.725	0.025	n/a	GoodResponse	1	n/a	n/a	8	58	Cue	Win	True
550.975	4.05	Win2	0.6609999999999999	0.0	Yes	2.725	0.0	n/a	GoodResponse	1	n/a	n/a	8	58	Fixation	Win	True
555.023	0.38	Win2	0.6609999999999999	0.002	Yes	2.725	-0.002	4.0	GoodResponse	1	0.199	554.222	8	58	Target	Win	True
555.222	0.3	Win2	0.6609999999999999	0.002	Yes	2.725	-0.002	4.0	GoodResponse	1	0.199	n/a	8	58	ButtonPress	Win	True
555.407	0.32	Win2	0.6609999999999999	n/a	Yes	2.725	n/a	n/a	GoodResponse	1	n/a	n/a	8	58	Blank	Win	True
555.723	1.45	Win2	0.6609999999999999	n/a	Yes	2.725	n/a	5.0	GoodResponse	1	0.004	554.727	8	58	Feedback	Win	True
557.173	2.725	Win2	0.6609999999999999	n/a	Yes	2.725	n/a	n/a	GoodResponse	1	0.0	n/a	8	58	ISIslide	Win	True
559.922	0.25	Lose2	0.6667000000000001	0.0	Yes	2.678	0.022	n/a	GoodResponse	0	n/a	n/a	8	59	Cue	AvoidedLoss	True
560.172	4.0	Lose2	0.6667000000000001	0.0	Yes	2.678	0.0	n/a	GoodResponse	0	n/a	n/a	8	59	Fixation	AvoidedLoss	True
564.17	0.38	Lose2	0.6667000000000001	0.002	Yes	2.678	-0.002	4.0	GoodResponse	0	0.264	563.434	8	59	Target	AvoidedLoss	True
564.434	0.3	Lose2	0.6667000000000001	0.002	Yes	2.678	-0.002	4.0	GoodResponse	0	0.264	n/a	8	59	ButtonPress	AvoidedLoss	True
564.553	0.32	Lose2	0.6667000000000001	n/a	Yes	2.678	n/a	n/a	GoodResponse	0	n/a	n/a	8	59	Blank	AvoidedLoss	True
564.87	1.45	Lose2	0.6667000000000001	n/a	Yes	2.678	n/a	5.0	GoodResponse	0	0.027	563.897	8	59	Feedback	AvoidedLoss	True
566.319	2.678	Lose2	0.6667000000000001	n/a	Yes	2.678	n/a	n/a	GoodResponse	0	0.0	n/a	8	59	ISIslide	AvoidedLoss	True
569.018	0.25	Control	0.6557	0.0	No	2.682	0.018	n/a	NoResponse	0	n/a	n/a	8	60	Cue	Neutral	False
569.268	4.0	Control	0.6557	0.0	No	2.682	0.0	n/a	NoResponse	0	n/a	n/a	8	60	Fixation	Neutral	False
573.267	0.37	Control	0.6557	0.001	No	2.682	-0.001	n/a	NoResponse	0	n/a	n/a	8	60	Target	Neutral	False
573.633	0.33	Control	0.6557	n/a	No	2.682	n/a	n/a	NoResponse	0	n/a	n/a	8	60	Blank	Neutral	False
573.967	1.45	Control	0.6557	n/a	No	2.682	n/a	5.0	NoResponse	0	0.004	572.971	8	60	Feedback	Neutral	False
575.416	2.682	Control	0.6557	n/a	No	2.682	n/a	n/a	NoResponse	0	0.0	n/a	8	60	ISIslide	Neutral	False
578.115	0.25	Lose2	0.6613	0.0	Yes	2.985	0.015	n/a	GoodResponse	0	n/a	n/a	8	61	Cue	AvoidedLoss	True
578.365	4.0	Lose2	0.6613	0.0	Yes	2.985	0.0	n/a	GoodResponse	0	n/a	n/a	8	61	Fixation	AvoidedLoss	True
582.364	0.37	Lose2	0.6613	0.001	Yes	2.985	-0.001	4.0	GoodResponse	0	0.19	581.554	8	61	Target	AvoidedLoss	True
582.554	0.3	Lose2	0.6613	0.001	Yes	2.985	-0.001	4.0	GoodResponse	0	0.19	n/a	8	61	ButtonPress	AvoidedLoss	True
582.747	0.33	Lose2	0.6613	n/a	Yes	2.985	n/a	n/a	GoodResponse	0	n/a	n/a	8	61	Blank	AvoidedLoss	True
583.063	1.45	Lose2	0.6613	n/a	Yes	2.985	n/a	5.0	GoodResponse	0	0.03	582.093	8	61	Feedback	AvoidedLoss	True
584.513	2.985	Lose2	0.6613	n/a	Yes	2.985	n/a	n/a	GoodResponse	0	0.0	n/a	8	61	ISIslide	AvoidedLoss	True
587.512	0.25	Lose2	0.6667000000000001	0.0	Yes	2.888	0.012	n/a	GoodResponse	0	n/a	n/a	8	62	Cue	AvoidedLoss	True
587.762	3.9	Lose2	0.6667000000000001	0.0	Yes	2.888	0.0	n/a	GoodResponse	0	n/a	n/a	8	62	Fixation	AvoidedLoss	True
591.66	0.37	Lose2	0.6667000000000001	0.002	Yes	2.888	-0.002	4.0	GoodResponse	0	0.235	590.895	8	62	Target	AvoidedLoss	True
591.895	0.3	Lose2	0.6667000000000001	0.002	Yes	2.888	-0.002	4.0	GoodResponse	0	0.235	n/a	8	62	ButtonPress	AvoidedLoss	True
592.044	0.33	Lose2	0.6667000000000001	n/a	Yes	2.888	n/a	n/a	GoodResponse	0	n/a	n/a	8	62	Blank	AvoidedLoss	True
592.36	1.45	Lose2	0.6667000000000001	n/a	Yes	2.888	n/a	5.0	GoodResponse	0	0.0	591.36	8	62	Feedback	AvoidedLoss	True
593.81	2.888	Lose2	0.6667000000000001	n/a	Yes	2.888	n/a	n/a	GoodResponse	0	0.0	n/a	8	62	ISIslide	AvoidedLoss	True
596.725	0.25	Lose2	0.6718999999999999	0.0	Yes	2.625	0.025	n/a	GoodResponse	0	n/a	n/a	8	63	Cue	AvoidedLoss	True
596.975	4.05	Lose2	0.6718999999999999	0.0	Yes	2.625	0.0	n/a	GoodResponse	0	n/a	n/a	8	63	Fixation	AvoidedLoss	True
601.024	0.36	Lose2	0.6718999999999999	0.001	Yes	2.625	-0.001	4.0	GoodResponse	0	0.21	600.234	8	63	Target	AvoidedLoss	True
601.234	0.3	Lose2	0.6718999999999999	0.001	Yes	2.625	-0.001	4.0	GoodResponse	0	0.21	n/a	8	63	ButtonPress	AvoidedLoss	True
601.39	0.34	Lose2	0.6718999999999999	n/a	Yes	2.625	n/a	n/a	GoodResponse	0	n/a	n/a	8	63	Blank	AvoidedLoss	True
601.723	1.45	Lose2	0.6718999999999999	n/a	Yes	2.625	n/a	5.0	GoodResponse	0	0.005	600.728	8	63	Feedback	AvoidedLoss	True
603.173	2.625	Lose2	0.6718999999999999	n/a	Yes	2.625	n/a	n/a	GoodResponse	0	0.0	n/a	8	63	ISIslide	AvoidedLoss	True
605.822	0.25	Win2	0.6769	0.0	Yes	3.128	0.022	n/a	GoodResponse	1	n/a	n/a	9	64	Cue	Win	True
606.072	4.15	Win2	0.6769	0.0	Yes	3.128	0.0	n/a	GoodResponse	1	n/a	n/a	9	64	Fixation	Win	True
610.22	0.35	Win2	0.6769	0.002	Yes	3.128	-0.002	4.0	GoodResponse	1	0.201	609.421	9	64	Target	Win	True
610.421	0.3	Win2	0.6769	0.002	Yes	3.128	-0.002	4.0	GoodResponse	1	0.201	n/a	9	64	ButtonPress	Win	True
610.57	0.35	Win2	0.6769	n/a	Yes	3.128	n/a	n/a	GoodResponse	1	n/a	n/a	9	64	Blank	Win	True
610.92	1.45	Win2	0.6769	n/a	Yes	3.128	n/a	5.0	GoodResponse	1	0.026	609.946	9	64	Feedback	Win	True
612.37	3.128	Win2	0.6769	n/a	Yes	3.128	n/a	n/a	GoodResponse	1	0.0	n/a	9	64	ISIslide	Win	True
615.519	0.25	Control	0.6667000000000001	0.0	No	2.781	0.019	n/a	NoResponse	0	n/a	n/a	9	65	Cue	Neutral	False
615.768	4.0	Control	0.6667000000000001	0.001	No	2.781	-0.001	n/a	NoResponse	0	n/a	n/a	9	65	Fixation	Neutral	False
619.767	0.34	Control	0.6667000000000001	0.002	No	2.781	-0.002	n/a	NoResponse	0	n/a	n/a	9	65	Target	Neutral	False
620.117	0.36	Control	0.6667000000000001	n/a	No	2.781	n/a	n/a	NoResponse	0	n/a	n/a	9	65	Blank	Neutral	False
620.467	1.45	Control	0.6667000000000001	n/a	No	2.781	n/a	5.0	NoResponse	0	0.04	619.507	9	65	Feedback	Neutral	False
621.916	2.781	Control	0.6667000000000001	n/a	No	2.781	n/a	n/a	NoResponse	0	0.0	n/a	9	65	ISIslide	Neutral	False
624.715	0.25	Win2	0.6716	0.0	Yes	2.785	0.015	n/a	GoodResponse	1	n/a	n/a	10	66	Cue	Win	True
624.965	3.9	Win2	0.6716	0.0	Yes	2.785	0.0	n/a	GoodResponse	1	n/a	n/a	10	66	Fixation	Win	True
628.864	0.33	Win2	0.6716	0.001	Yes	2.785	-0.001	4.0	GoodResponse	1	0.284	628.148	10	66	Target	Win	True
629.148	0.3	Win2	0.6716	0.001	Yes	2.785	-0.001	4.0	GoodResponse	1	0.284	n/a	10	66	ButtonPress	Win	True
629.197	0.37	Win2	0.6716	n/a	Yes	2.785	n/a	n/a	GoodResponse	1	n/a	n/a	10	66	Blank	Win	True
629.564	1.45	Win2	0.6716	n/a	Yes	2.785	n/a	5.0	GoodResponse	1	0.015	628.579	10	66	Feedback	Win	True
631.013	2.785	Win2	0.6716	n/a	Yes	2.785	n/a	n/a	GoodResponse	1	0.0	n/a	10	66	ISIslide	Win	True
633.812	0.25	Control	0.6765000000000001	0.0	Yes	2.738	0.012	n/a	GoodResponse	0	n/a	n/a	10	67	Cue	Neutral	True
634.062	3.95	Control	0.6765000000000001	0.0	Yes	2.738	0.0	n/a	GoodResponse	0	n/a	n/a	10	67	Fixation	Neutral	True
638.011	0.32	Control	0.6765000000000001	0.001	Yes	2.738	-0.001	4.0	GoodResponse	0	0.211	637.222	10	67	Target	Neutral	True
638.222	0.3	Control	0.6765000000000001	0.001	Yes	2.738	-0.001	4.0	GoodResponse	0	0.211	n/a	10	67	ButtonPress	Neutral	True
638.344	0.38	Control	0.6765000000000001	n/a	Yes	2.738	n/a	n/a	GoodResponse	0	n/a	n/a	10	67	Blank	Neutral	True
638.71	1.45	Control	0.6765000000000001	n/a	Yes	2.738	n/a	5.0	GoodResponse	0	0.04	637.75	10	67	Feedback	Neutral	True
640.16	2.738	Control	0.6765000000000001	n/a	Yes	2.738	n/a	n/a	GoodResponse	0	0.0	n/a	10	67	ISIslide	Neutral	True
642.925	0.25	Win2	0.6812	0.001	Yes	3.075	0.025	n/a	GoodResponse	1	n/a	n/a	11	68	Cue	Win	True
643.175	4.0	Win2	0.6812	0.0	Yes	3.075	0.0	n/a	GoodResponse	1	n/a	n/a	11	68	Fixation	Win	True
647.174	0.31	Win2	0.6812	0.001	Yes	3.075	-0.001	4.0	GoodResponse	1	0.215	646.389	11	68	Target	Win	True
647.389	0.3	Win2	0.6812	0.001	Yes	3.075	-0.001	4.0	GoodResponse	1	0.215	n/a	11	68	ButtonPress	Win	True
647.49	0.39	Win2	0.6812	n/a	Yes	3.075	n/a	n/a	GoodResponse	1	n/a	n/a	11	68	Blank	Win	True
647.874	1.45	Win2	0.6812	n/a	Yes	3.075	n/a	5.0	GoodResponse	1	0.047	646.921	11	68	Feedback	Win	True
649.323	3.075	Win2	0.6812	n/a	Yes	3.075	n/a	n/a	GoodResponse	1	0.0	n/a	11	68	ISIslide	Win	True
652.422	0.25	Win2	0.6857	0.0	Yes	3.228	0.022	n/a	GoodResponse	1	n/a	n/a	12	69	Cue	Win	True
652.672	3.95	Win2	0.6857	0.0	Yes	3.228	0.0	n/a	GoodResponse	1	n/a	n/a	12	69	Fixation	Win	True
656.621	0.3	Win2	0.6857	0.001	Yes	3.228	-0.001	4.0	GoodResponse	1	0.212	655.833	12	69	Target	Win	True
656.833	0.3	Win2	0.6857	0.001	Yes	3.228	-0.001	4.0	GoodResponse	1	0.212	n/a	12	69	ButtonPress	Win	True
656.92	0.4	Win2	0.6857	n/a	Yes	3.228	n/a	n/a	GoodResponse	1	n/a	n/a	12	69	Blank	Win	True
657.32	1.45	Win2	0.6857	n/a	Yes	3.228	n/a	5.0	GoodResponse	1	0.016	656.336	12	69	Feedback	Win	True
658.77	3.228	Win2	0.6857	n/a	Yes	3.228	n/a	n/a	GoodResponse	1	0.0	n/a	12	69	ISIslide	Win	True
662.019	0.25	Lose2	0.6901	0.0	Yes	3.031	0.019	n/a	GoodResponse	0	n/a	n/a	12	70	Cue	AvoidedLoss	True
662.269	4.05	Lose2	0.6901	0.0	Yes	3.031	0.0	n/a	GoodResponse	0	n/a	n/a	12	70	Fixation	AvoidedLoss	True
666.317	0.29	Lose2	0.6901	0.002	Yes	3.031	-0.002	4.0	GoodResponse	0	0.199	665.516	12	70	Target	AvoidedLoss	True
666.516	0.3	Lose2	0.6901	0.002	Yes	3.031	-0.002	4.0	GoodResponse	0	0.199	n/a	12	70	ButtonPress	AvoidedLoss	True
666.617	0.41	Lose2	0.6901	n/a	Yes	3.031	n/a	n/a	GoodResponse	0	n/a	n/a	12	70	Blank	AvoidedLoss	True
667.017	1.45	Lose2	0.6901	n/a	Yes	3.031	n/a	5.0	GoodResponse	0	0.025	666.042	12	70	Feedback	AvoidedLoss	True
668.466	3.031	Lose2	0.6901	n/a	Yes	3.031	n/a	n/a	GoodResponse	0	0.0	n/a	12	70	ISIslide	AvoidedLoss	True
671.515	0.25	Win2	0.6944	0.0	Yes	2.735	0.015	n/a	GoodResponse	1	n/a	n/a	13	71	Cue	Win	True
671.765	4.05	Win2	0.6944	0.0	Yes	2.735	0.0	n/a	GoodResponse	1	n/a	n/a	13	71	Fixation	Win	True
675.814	0.28	Win2	0.6944	0.001	Yes	2.735	-0.001	4.0	GoodResponse	1	0.201	675.015	13	71	Target	Win	True
676.015	0.3	Win2	0.6944	0.001	Yes	2.735	-0.001	4.0	GoodResponse	1	0.201	n/a	13	71	ButtonPress	Win	True
676.097	0.42	Win2	0.6944	n/a	Yes	2.735	n/a	n/a	GoodResponse	1	n/a	n/a	13	71	Blank	Win	True
676.513	1.45	Win2	0.6944	n/a	Yes	2.735	n/a	5.0	GoodResponse	1	0.041	675.554	13	71	Feedback	Win	True
677.963	2.735	Win2	0.6944	n/a	Yes	2.735	n/a	n/a	GoodResponse	1	0.0	n/a	13	71	ISIslide	Win	True
680.712	0.25	Win2	0.6986	0.0	Yes	2.788	0.012	n/a	GoodResponse	1	n/a	n/a	14	72	Cue	Win	True
680.962	4.1	Win2	0.6986	0.0	Yes	2.788	0.0	n/a	GoodResponse	1	n/a	n/a	14	72	Fixation	Win	True
685.06	0.27	Win2	0.6986	0.002	Yes	2.788	-0.002	4.0	GoodResponse	1	0.217	684.277	14	72	Target	Win	True
685.277	0.3	Win2	0.6986	0.002	Yes	2.788	-0.002	4.0	GoodResponse	1	0.217	n/a	14	72	ButtonPress	Win	True
685.344	0.43	Win2	0.6986	n/a	Yes	2.788	n/a	n/a	GoodResponse	1	n/a	n/a	14	72	Blank	Win	True
685.76	1.45	Win2	0.6986	n/a	Yes	2.788	n/a	5.0	GoodResponse	1	0.014	684.774	14	72	Feedback	Win	True
687.21	2.788	Win2	0.6986	n/a	Yes	2.788	n/a	n/a	GoodResponse	1	0.0	n/a	14	72	ISIslide	Win	True
690.025	0.25	Win2	0.7027	0.0	Yes	2.675	0.025	n/a	GoodResponse	1	n/a	n/a	15	73	Cue	Win	True
690.275	4.0	Win2	0.7027	0.0	Yes	2.675	0.0	n/a	GoodResponse	1	n/a	n/a	15	73	Fixation	Win	True
694.274	0.26	Win2	0.7027	0.001	Yes	2.675	-0.001	4.0	GoodResponse	1	0.211	693.485	15	73	Target	Win	True
694.485	0.3	Win2	0.7027	0.001	Yes	2.675	-0.001	4.0	GoodResponse	1	0.211	n/a	15	73	ButtonPress	Win	True
694.54	0.44	Win2	0.7027	n/a	Yes	2.675	n/a	n/a	GoodResponse	1	n/a	n/a	15	73	Blank	Win	True
694.974	1.45	Win2	0.7027	n/a	Yes	2.675	n/a	5.0	GoodResponse	1	0.02	693.994	15	73	Feedback	Win	True
696.423	2.675	Win2	0.7027	n/a	Yes	2.675	n/a	n/a	GoodResponse	1	0.0	n/a	15	73	ISIslide	Win	True
699.122	0.25	Lose2	0.7067	0.0	Yes	2.628	0.022	n/a	GoodResponse	0	n/a	n/a	15	74	Cue	AvoidedLoss	True
699.372	4.05	Lose2	0.7067	0.0	Yes	2.628	0.0	n/a	GoodResponse	0	n/a	n/a	15	74	Fixation	AvoidedLoss	True
703.421	0.25	Lose2	0.7067	0.001	Yes	2.628	-0.001	4.0	GoodResponse	0	0.198	702.619	15	74	Target	AvoidedLoss	True
703.619	0.3	Lose2	0.7067	0.001	Yes	2.628	-0.001	4.0	GoodResponse	0	0.198	n/a	15	74	ButtonPress	AvoidedLoss	True
703.67	0.45	Lose2	0.7067	n/a	Yes	2.628	n/a	n/a	GoodResponse	0	n/a	n/a	15	74	Blank	AvoidedLoss	True
704.12	1.45	Lose2	0.7067	n/a	Yes	2.628	n/a	5.0	GoodResponse	0	0.043	703.163	15	74	Feedback	AvoidedLoss	True
705.57	2.628	Lose2	0.7067	n/a	Yes	2.628	n/a	n/a	GoodResponse	0	0.0	n/a	15	74	ISIslide	AvoidedLoss	True
708.219	0.25	Lose2	0.7105	0.0	Yes	2.931	0.019	n/a	GoodResponse	0	n/a	n/a	15	75	Cue	AvoidedLoss	True
708.469	3.95	Lose2	0.7105	0.0	Yes	2.931	0.0	n/a	GoodResponse	0	n/a	n/a	15	75	Fixation	AvoidedLoss	True
712.417	0.24	Lose2	0.7105	0.002	Yes	2.931	-0.002	4.0	GoodResponse	0	0.185	711.602	15	75	Target	AvoidedLoss	True
712.602	0.3	Lose2	0.7105	0.002	Yes	2.931	-0.002	4.0	GoodResponse	0	0.185	n/a	15	75	ButtonPress	AvoidedLoss	True
712.667	0.46	Lose2	0.7105	n/a	Yes	2.931	n/a	n/a	GoodResponse	0	n/a	n/a	15	75	Blank	AvoidedLoss	True
713.117	1.45	Lose2	0.7105	n/a	Yes	2.931	n/a	5.0	GoodResponse	0	0.022	712.139	15	75	Feedback	AvoidedLoss	True
714.567	2.931	Lose2	0.7105	n/a	Yes	2.931	n/a	n/a	GoodResponse	0	0.0	n/a	15	75	ISIslide	AvoidedLoss	True
717.516	0.25	Control	0.7012999999999999	0.0	No	3.234	0.016	n/a	NoResponse	0	n/a	n/a	15	76	Cue	Neutral	False
717.765	4.05	Control	0.7012999999999999	0.001	No	3.234	-0.001	n/a	NoResponse	0	n/a	n/a	15	76	Fixation	Neutral	False
721.814	0.23	Control	0.7012999999999999	0.002	No	3.234	-0.002	n/a	NoResponse	0	n/a	n/a	15	76	Target	Neutral	False
722.047	0.47	Control	0.7012999999999999	n/a	No	3.234	n/a	n/a	NoResponse	0	n/a	n/a	15	76	Blank	Neutral	False
722.514	1.45	Control	0.7012999999999999	n/a	No	3.234	n/a	5.0	NoResponse	0	0.04	721.554	15	76	Feedback	Neutral	False
723.963	3.234	Control	0.7012999999999999	n/a	No	3.234	n/a	n/a	NoResponse	0	0.0	n/a	15	76	ISIslide	Neutral	False
727.229	0.25	Lose2	0.6923	0.0	No	2.571	0.029	n/a	LatePress	-1	n/a	n/a	14	77	Cue	Loss	True
727.479	3.95	Lose2	0.6923	0.0	No	2.571	0.0	n/a	LatePress	-1	n/a	n/a	14	77	Fixation	Loss	True
731.427	0.22	Lose2	0.6923	0.002	No	2.571	-0.002	4.0	LatePress	-1	0.221	730.648	14	77	Target	Loss	True
731.648	0.3	Lose2	0.6923	0.002	No	2.571	-0.002	4.0	LatePress	-1	0.221	n/a	14	77	ButtonPress	Loss	True
731.661	0.48	Lose2	0.6923	n/a	No	2.571	n/a	n/a	LatePress	-1	n/a	n/a	14	77	Blank	Loss	True
732.127	1.45	Lose2	0.6923	n/a	No	2.571	n/a	5.0	LatePress	-1	0.037	731.164	14	77	Feedback	Loss	True
733.577	2.571	Lose2	0.6923	n/a	No	2.571	n/a	n/a	LatePress	-1	0.0	n/a	14	77	ISIslide	Loss	True
