onset	duration	cue_type	current_mean_accuracy	duration_error	is_hit	isi_adjusted	onset_delay	response	response_type	reward	rt	rt_time	total_reward	trial_number	trial_phase	trial_type	one_press
11.112	0.25	Control	0.0	0.0	No	2.938	0.012	n/a	NoResponse	0	n/a	n/a	0	0	Cue	Neutral	False
11.362	3.85	Control	0.0	0.0	No	2.938	0.0	n/a	NoResponse	0	n/a	n/a	0	0	Fixation	Neutral	False
15.21	0.4	Control	0.0	0.002	No	2.938	-0.002	n/a	NoResponse	0	n/a	n/a	0	0	Target	Neutral	False
15.61	0.3	Control	0.0	n/a	No	2.938	n/a	n/a	NoResponse	0	n/a	n/a	0	0	Blank	Neutral	False
15.91	1.45	Control	0.0	n/a	No	2.938	n/a	5.0	NoResponse	0	0.016	14.926	0	0	Feedback	Neutral	False
17.359	2.938	Control	0.0	n/a	No	2.938	n/a	n/a	NoResponse	0	0.0	n/a	0	0	ISIslide	Neutral	False
20.325	0.25	Lose2	0.0	0.0	No	2.775	0.025	n/a	NoResponse	-1	n/a	n/a	-1	1	Cue	Loss	False
20.575	4.0	Lose2	0.0	0.0	No	2.775	0.0	n/a	NoResponse	-1	n/a	n/a	-1	1	Fixation	Loss	False
24.574	0.41	Lose2	0.0	0.001	No	2.775	-0.001	n/a	NoResponse	-1	n/a	n/a	-1	1	Target	Loss	False
24.99	0.29	Lose2	0.0	n/a	No	2.775	n/a	n/a	NoResponse	-1	n/a	n/a	-1	1	Blank	Loss	False
25.273	1.45	Lose2	0.0	n/a	No	2.775	n/a	5.0	NoResponse	-1	0.019	24.292	-1	1	Feedback	Loss	False
26.723	2.775	Lose2	0.0	n/a	No	2.775	n/a	n/a	NoResponse	-1	0.0	n/a	-1	1	ISIslide	Loss	False
29.522	0.25	Control	0.3333	0.0	Yes	2.578	0.022	n/a	GoodResponse	0	n/a	n/a	-1	2	Cue	Neutral	False
29.772	4.1	Control	0.3333	0.0	Yes	2.578	0.0	3.0	GoodResponse	0	0.222	28.994	-1	2	Fixation	Neutral	False
29.994	0.3	Control	0.3333	0.0	Yes	2.578	0.0	3.0	GoodResponse	0	0.222	n/a	-1	2	ButtonPress	Neutral	False
33.87	0.42	Control	0.3333	0.002	Yes	2.578	-0.002	3.0	GoodResponse	0	0.256	33.126	-1	2	Target	Neutral	False
34.126	0.3	Control	0.3333	0.002	Yes	2.578	-0.002	3.0	GoodResponse	0	0.256	n/a	-1	2	ButtonPress	Neutral	False
34.304	0.28	Control	0.3333	n/a	Yes	2.578	n/a	n/a	GoodResponse	0	n/a	n/a	-1	2	Blank	Neutral	False
34.57	1.45	Control	0.3333	n/a	Yes	2.578	n/a	5.0	GoodResponse	0	0.039	33.609	-1	2	Feedback	Neutral	False
36.02	2.578	Control	0.3333	n/a	Yes	2.578	n/a	n/a	GoodResponse	0	0.0	n/a	-1	2	ISIslide	Neutral	False
38.619	0.25	Win2	0.5	0.0	Yes	2.831	0.019	n/a	GoodResponse	1	n/a	n/a	0	3	Cue	Win	True
38.869	3.95	Win2	0.5	0.0	Yes	2.831	0.0	n/a	GoodResponse	1	n/a	n/a	0	3	Fixation	Win	True
42.817	0.43	Win2	0.5	0.002	Yes	2.831	-0.002	3.0	GoodResponse	1	0.245	42.062	0	3	Target	Win	True
43.062	0.3	Win2	0.5	0.002	Yes	2.831	-0.002	3.0	GoodResponse	1	0.245	n/a	0	3	ButtonPress	Win	True
43.251	0.27	Win2	0.5	n/a	Yes	2.831	n/a	n/a	GoodResponse	1	n/a	n/a	0	3	Blank	Win	True
43.517	1.45	Win2	0.5	n/a	Yes	2.831	n/a	5.0	GoodResponse	1	0.019	42.536	0	3	Feedback	Win	True
44.967	2.831	Win2	0.5	n/a	Yes	2.831	n/a	n/a	GoodResponse	1	0.0	n/a	0	3	ISIslide	Win	True
47.816	0.25	Win2	0.6	0.0	Yes	3.284	0.016	n/a	GoodResponse	1	n/a	n/a	1	4	Cue	Win	True
48.066	4.0	Win2	0.6	0.0	Yes	3.284	0.0	n/a	GoodResponse	1	n/a	n/a	1	4	Fixation	Win	True
52.064	0.44	Win2	0.6	0.002	Yes	3.284	-0.002	3.0	GoodResponse	1	0.179	51.243	1	4	Target	Win	True
52.243	0.3	Win2	0.6	0.002	Yes	3.284	-0.002	3.0	GoodResponse	1	0.179	n/a	1	4	ButtonPress	Win	True
52.514	0.26	Win2	0.6	n/a	Yes	3.284	n/a	n/a	GoodResponse	1	n/a	n/a	1	4	Blank	Win	True
52.764	1.45	Win2	0.6	n/a	Yes	3.284	n/a	5.0	GoodResponse	1	0.04	51.804	1	4	Feedback	Win	True
54.213	3.284	Win2	0.6	n/a	Yes	3.284	n/a	n/a	GoodResponse	1	0.0	n/a	1	4	ISIslide	Win	True
57.512	0.25	Win2	0.6667000000000001	0.0	Yes	2.788	0.012	n/a	GoodResponse	1	n/a	n/a	2	5	Cue	Win	True
57.762	4.0	Win2	0.6667000000000001	0.0	Yes	2.788	0.0	n/a	GoodResponse	1	n/a	n/a	2	5	Fixation	Win	True
61.761	0.45	Win2	0.6667000000000001	0.001	Yes	2.788	-0.001	3.0	GoodResponse	1	0.304	61.065	2	5	Target	Win	True
62.065	0.3	Win2	0.6667000000000001	0.001	Yes	2.788	-0.001	3.0	GoodResponse	1	0.304	n/a	2	5	ButtonPress	Win	True
62.211	0.25	Win2	0.6667000000000001	n/a	Yes	2.788	n/a	n/a	GoodResponse	1	n/a	n/a	2	5	Blank	Win	True
62.461	1.45	Win2	0.6667000000000001	n/a	Yes	2.788	n/a	5.0	GoodResponse	1	0.003	61.464	2	5	Feedback	Win	True
63.91	2.788	Win2	0.6667000000000001	n/a	Yes	2.788	n/a	n/a	GoodResponse	1	0.0	n/a	2	5	ISIslide	Win	True
66.726	0.25	Lose2	0.7143	0.0	Yes	2.724	0.026	n/a	GoodResponse	0	n/a	n/a	2	6	Cue	AvoidedLoss	True
66.976	3.95	Lose2	0.7143	0.0	Yes	2.724	0.0	n/a	GoodResponse	0	n/a	n/a	2	6	Fixation	AvoidedLoss	True
70.924	0.44	Lose2	0.7143	0.002	Yes	2.724	-0.002	3.0	GoodResponse	0	0.22	70.144	2	6	Target	AvoidedLoss	True
71.144	0.3	Lose2	0.7143	0.002	Yes	2.724	-0.002	3.0	GoodResponse	0	0.22	n/a	2	6	ButtonPress	AvoidedLoss	True
71.374	0.26	Lose2	0.7143	n/a	Yes	2.724	n/a	n/a	GoodResponse	0	n/a	n/a	2	6	Blank	AvoidedLoss	True
71.624	1.45	Lose2	0.7143	n/a	Yes	2.724	n/a	5.0	GoodResponse	0	0.009	70.633	2	6	Feedback	AvoidedLoss	True
73.074	2.724	Lose2	0.7143	n/a	Yes	2.724	n/a	n/a	GoodResponse	0	0.0	n/a	2	6	ISIslide	AvoidedLoss	True
75.823	0.25	Lose2	0.75	0.0	Yes	4.027	0.023	n/a	GoodResponse	0	n/a	n/a	2	7	Cue	AvoidedLoss	True
76.073	4.05	Lose2	0.75	0.0	Yes	4.027	0.0	n/a	GoodResponse	0	n/a	n/a	2	7	Fixation	AvoidedLoss	True
80.121	0.43	Lose2	0.75	0.002	Yes	4.027	-0.002	3.0	GoodResponse	0	0.221	79.342	2	7	Target	AvoidedLoss	True
80.342	0.3	Lose2	0.75	0.002	Yes	4.027	-0.002	3.0	GoodResponse	0	0.221	n/a	2	7	ButtonPress	AvoidedLoss	True
80.554	0.27	Lose2	0.75	n/a	Yes	4.027	n/a	n/a	GoodResponse	0	n/a	n/a	2	7	Blank	AvoidedLoss	True
80.821	1.45	Lose2	0.75	n/a	Yes	4.027	n/a	5.0	GoodResponse	0	0.031	79.852	2	7	Feedback	AvoidedLoss	True
82.27	4.027	Lose2	0.75	n/a	Yes	4.027	n/a	n/a	GoodResponse	0	0.0	n/a	2	7	ISIslide	AvoidedLoss	True
86.319	0.25	Lose2	0.7778	0.0	Yes	3.031	0.019	n/a	GoodResponse	0	n/a	n/a	2	8	Cue	AvoidedLoss	True
86.569	3.95	Lose2	0.7778	0.0	Yes	3.031	0.0	n/a	GoodResponse	0	n/a	n/a	2	8	Fixation	AvoidedLoss	True
90.518	0.42	Lose2	0.7778	0.001	Yes	3.031	-0.001	3.0	GoodResponse	0	0.302	89.82	2	8	Target	AvoidedLoss	True
90.82	0.3	Lose2	0.7778	0.001	Yes	3.031	-0.001	3.0	GoodResponse	0	0.302	n/a	2	8	ButtonPress	AvoidedLoss	True
90.951	0.28	Lose2	0.7778	n/a	Yes	3.031	n/a	n/a	GoodResponse	0	n/a	n/a	2	8	Blank	AvoidedLoss	True
91.217	1.45	Lose2	0.7778	n/a	Yes	3.031	n/a	5.0	GoodResponse	0	0.026	90.243	2	8	Feedback	AvoidedLoss	True
92.667	3.031	Lose2	0.7778	n/a	Yes	3.031	n/a	n/a	GoodResponse	0	0.0	n/a	2	8	ISIslide	AvoidedLoss	True
95.716	0.25	Lose2	0.7	0.0	No	3.134	0.016	n/a	NoResponse	-1	n/a	n/a	1	9	Cue	Loss	False
95.966	3.95	Lose2	0.7	0.0	No	3.134	0.0	n/a	NoResponse	-1	n/a	n/a	1	9	Fixation	Loss	False
99.914	0.41	Lose2	0.7	0.002	No	3.134	-0.002	n/a	NoResponse	-1	n/a	n/a	1	9	Target	Loss	False
100.331	0.29	Lose2	0.7	n/a	No	3.134	n/a	n/a	NoResponse	-1	n/a	n/a	1	9	Blank	Loss	False
100.614	1.45	Lose2	0.7	n/a	No	3.134	n/a	5.0	NoResponse	-1	0.044	99.658	1	9	Feedback	Loss	False
102.064	3.134	Lose2	0.7	n/a	No	3.134	n/a	n/a	NoResponse	-1	0.0	n/a	1	9	ISIslide	Loss	False
105.212	0.25	Control	0.6364	0.001	No	3.288	0.012	n/a	NoResponse	0	n/a	n/a	1	10	Cue	Neutral	False
105.462	4.0	Control	0.6364	0.0	No	3.288	0.0	n/a	NoResponse	0	n/a	n/a	1	10	Fixation	Neutral	False
109.461	0.4	Control	0.6364	0.001	No	3.288	-0.001	n/a	NoResponse	0	n/a	n/a	1	10	Target	Neutral	False
109.861	0.3	Control	0.6364	n/a	No	3.288	n/a	n/a	NoResponse	0	n/a	n/a	1	10	Blank	Neutral	False
110.161	1.45	Control	0.6364	n/a	No	3.288	n/a	5.0	NoResponse	0	0.009	109.17	1	10	Feedback	Neutral	False
111.61	3.288	Control	0.6364	n/a	No	3.288	n/a	n/a	NoResponse	0	0.0	n/a	1	10	ISIslide	Neutral	False
114.926	0.25	Lose2	0.6667000000000001	0.0	Yes	2.724	0.026	n/a	GoodResponse	0	n/a	n/a	1	11	Cue	AvoidedLoss	True
115.176	4.05	Lose2	0.6667000000000001	0.0	Yes	2.724	0.0	n/a	GoodResponse	0	n/a	n/a	1	11	Fixation	AvoidedLoss	True
119.224	0.41	Lose2	0.6667000000000001	0.002	Yes	2.724	-0.002	4.0	GoodResponse	0	0.36	118.584	1	11	Target	AvoidedLoss	True
119.584	0.3	Lose2	0.6667000000000001	0.002	Yes	2.724	-0.002	4.0	GoodResponse	0	0.36	n/a	1	11	ButtonPress	AvoidedLoss	True
119.641	0.29	Lose2	0.6667000000000001	n/a	Yes	2.724	n/a	n/a	GoodResponse	0	n/a	n/a	1	11	Blank	AvoidedLoss	True
119.924	1.45	Lose2	0.6667000000000001	n/a	Yes	2.724	n/a	5.0	GoodResponse	0	0.002	118.926	1	11	Feedback	AvoidedLoss	True
121.374	2.724	Lose2	0.6667000000000001	n/a	Yes	2.724	n/a	n/a	GoodResponse	0	0.0	n/a	1	11	ISIslide	AvoidedLoss	True
124.123	0.25	Control	0.6923	0.0	Yes	2.977	0.023	n/a	GoodResponse	0	n/a	n/a	1	12	Cue	Neutral	True
124.372	3.9	Control	0.6923	0.001	Yes	2.977	-0.001	n/a	GoodResponse	0	n/a	n/a	1	12	Fixation	Neutral	True
128.271	0.4	Control	0.6923	0.002	Yes	2.977	-0.002	4.0	GoodResponse	0	0.21	127.481	1	12	Target	Neutral	True
128.481	0.3	Control	0.6923	0.002	Yes	2.977	-0.002	4.0	GoodResponse	0	0.21	n/a	1	12	ButtonPress	Neutral	True
128.671	0.3	Control	0.6923	n/a	Yes	2.977	n/a	n/a	GoodResponse	0	n/a	n/a	1	12	Blank	Neutral	True
128.971	1.45	Control	0.6923	n/a	Yes	2.977	n/a	5.0	GoodResponse	0	0.027	127.998	1	12	Feedback	Neutral	True
130.42	2.977	Control	0.6923	n/a	Yes	2.977	n/a	n/a	GoodResponse	0	0.0	n/a	1	12	ISIslide	Neutral	True
133.419	0.25	Control	0.7143	0.0	Yes	2.781	0.019	n/a	GoodResponse	0	n/a	n/a	1	13	Cue	Neutral	True
133.669	4.0	Control	0.7143	0.0	Yes	2.781	0.0	n/a	GoodResponse	0	n/a	n/a	1	13	Fixation	Neutral	True
137.668	0.39	Control	0.7143	0.001	Yes	2.781	-0.001	4.0	GoodResponse	0	0.207	136.875	1	13	Target	Neutral	True
137.875	0.3	Control	0.7143	0.001	Yes	2.781	-0.001	4.0	GoodResponse	0	0.207	n/a	1	13	ButtonPress	Neutral	True
138.068	0.31	Control	0.7143	n/a	Yes	2.781	n/a	n/a	GoodResponse	0	n/a	n/a	1	13	Blank	Neutral	True
138.368	1.45	Control	0.7143	n/a	Yes	2.781	n/a	5.0	GoodResponse	0	0.045	137.413	1	13	Feedback	Neutral	True
139.817	2.781	Control	0.7143	n/a	Yes	2.781	n/a	n/a	GoodResponse	0	0.0	n/a	1	13	ISIslide	Neutral	True
142.616	0.25	Win2	0.7333	0.0	Yes	2.684	0.016	n/a	GoodResponse	1	n/a	n/a	2	14	Cue	Win	True
142.866	4.1	Win2	0.7333	0.0	Yes	2.684	0.0	n/a	GoodResponse	1	n/a	n/a	2	14	Fixation	Win	True
146.965	0.38	Win2	0.7333	0.001	Yes	2.684	-0.001	4.0	GoodResponse	1	0.218	146.183	2	14	Target	Win	True
147.183	0.3	Win2	0.7333	0.001	Yes	2.684	-0.001	4.0	GoodResponse	1	0.218	n/a	2	14	ButtonPress	Win	True
147.348	0.32	Win2	0.7333	n/a	Yes	2.684	n/a	n/a	GoodResponse	1	n/a	n/a	2	14	Blank	Win	True
147.664	1.45	Win2	0.7333	n/a	Yes	2.684	n/a	5.0	GoodResponse	1	0.018	146.682	2	14	Feedback	Win	True
149.114	2.684	Win2	0.7333	n/a	Yes	2.684	n/a	n/a	GoodResponse	1	0.0	n/a	2	14	ISIslide	Win	True
151.813	0.25	Control	0.75	0.0	Yes	2.987	0.013	n/a	GoodResponse	0	n/a	n/a	2	15	Cue	Neutral	True
152.063	4.0	Control	0.75	0.0	Yes	2.987	0.0	n/a	GoodResponse	0	n/a	n/a	2	15	Fixation	Neutral	True
156.062	0.37	Control	0.75	0.001	Yes	2.987	-0.001	4.0	GoodResponse	0	0.268	155.33	2	15	Target	Neutral	True
156.33	0.3	Control	0.75	0.001	Yes	2.987	-0.001	4.0	GoodResponse	0	0.268	n/a	2	15	ButtonPress	Neutral	True
156.445	0.33	Control	0.75	n/a	Yes	2.987	n/a	n/a	GoodResponse	0	n/a	n/a	2	15	Blank	Neutral	True
156.761	1.45	Control	0.75	n/a	Yes	2.987	n/a	5.0	GoodResponse	0	0.043	155.804	2	15	Feedback	Neutral	True
158.211	2.987	Control	0.75	n/a	Yes	2.987	n/a	n/a	GoodResponse	0	0.0	n/a	2	15	ISIslide	Neutral	True
161.226	0.25	Win2	0.7646999999999999	0.0	Yes	2.874	0.026	n/a	GoodResponse	1	n/a	n/a	3	16	Cue	Win	True
161.476	4.0	Win2	0.7646999999999999	0.0	Yes	2.874	0.0	n/a	GoodResponse	1	n/a	n/a	3	16	Fixation	Win	True
165.475	0.36	Win2	0.7646999999999999	0.001	Yes	2.874	-0.001	4.0	GoodResponse	1	0.232	164.707	3	16	Target	Win	True
165.707	0.3	Win2	0.7646999999999999	0.001	Yes	2.874	-0.001	4.0	GoodResponse	1	0.232	n/a	3	16	ButtonPress	Win	True
165.841	0.34	Win2	0.7646999999999999	n/a	Yes	2.874	n/a	n/a	GoodResponse	1	n/a	n/a	3	16	Blank	Win	True
166.175	1.45	Win2	0.7646999999999999	n/a	Yes	2.874	n/a	5.0	GoodResponse	1	0.043	165.218	3	16	Feedback	Win	True
167.624	2.874	Win2	0.7646999999999999	n/a	Yes	2.874	n/a	n/a	GoodResponse	1	0.0	n/a	3	16	ISIslide	Win	True
170.523	0.25	Lose2	0.7778	0.0	Yes	2.727	0.023	n/a	GoodResponse	0	n/a	n/a	3	17	Cue	AvoidedLoss	True
170.773	3.95	Lose2	0.7778	0.0	Yes	2.727	0.0	n/a	GoodResponse	0	n/a	n/a	3	17	Fixation	AvoidedLoss	True
174.722	0.35	Lose2	0.7778	0.001	Yes	2.727	-0.001	4.0	GoodResponse	0	0.224	173.946	3	17	Target	AvoidedLoss	True
174.946	0.3	Lose2	0.7778	0.001	Yes	2.727	-0.001	4.0	GoodResponse	0	0.224	n/a	3	17	ButtonPress	AvoidedLoss	True
175.072	0.35	Lose2	0.7778	n/a	Yes	2.727	n/a	n/a	GoodResponse	0	n/a	n/a	3	17	Blank	AvoidedLoss	True
175.421	1.45	Lose2	0.7778	n/a	Yes	2.727	n/a	5.0	GoodResponse	0	0.017	174.438	3	17	Feedback	AvoidedLoss	True
176.871	2.727	Lose2	0.7778	n/a	Yes	2.727	n/a	n/a	GoodResponse	0	0.0	n/a	3	17	ISIslide	AvoidedLoss	True
179.62	0.25	Lose2	0.7895	0.0	Yes	2.73	0.02	n/a	GoodResponse	0	n/a	n/a	3	18	Cue	AvoidedLoss	True
179.87	4.05	Lose2	0.7895	0.0	Yes	2.73	0.0	n/a	GoodResponse	0	n/a	n/a	3	18	Fixation	AvoidedLoss	True
183.919	0.34	Lose2	0.7895	0.001	Yes	2.73	-0.001	4.0	GoodResponse	0	0.235	183.154	3	18	Target	AvoidedLoss	True
184.154	0.3	Lose2	0.7895	0.001	Yes	2.73	-0.001	4.0	GoodResponse	0	0.235	n/a	3	18	ButtonPress	AvoidedLoss	True
184.268	0.36	Lose2	0.7895	n/a	Yes	2.73	n/a	n/a	GoodResponse	0	n/a	n/a	3	18	Blank	AvoidedLoss	True
184.618	1.45	Lose2	0.7895	n/a	Yes	2.73	n/a	5.0	GoodResponse	0	0.039	183.657	3	18	Feedback	AvoidedLoss	True
186.068	2.73	Lose2	0.7895	n/a	Yes	2.73	n/a	n/a	GoodResponse	0	0.0	n/a	3	18	ISIslide	AvoidedLoss	True
188.817	0.25	Control	0.8	0.0	Yes	2.933	0.017	n/a	GoodResponse	0	n/a	n/a	3	19	Cue	Neutral	True
189.067	3.95	Control	0.8	0.0	Yes	2.933	0.0	n/a	GoodResponse	0	n/a	n/a	3	19	Fixation	Neutral	True
193.015	0.33	Control	0.8	0.002	Yes	2.933	-0.002	4.0	GoodResponse	0	0.177	192.192	3	19	Target	Neutral	True
193.192	0.3	Control	0.8	0.002	Yes	2.933	-0.002	4.0	GoodResponse	0	0.177	n/a	3	19	ButtonPress	Neutral	True
193.349	0.37	Control	0.8	n/a	Yes	2.933	n/a	n/a	GoodResponse	0	n/a	n/a	3	19	Blank	Neutral	True
193.715	1.45	Control	0.8	n/a	Yes	2.933	n/a	5.0	GoodResponse	0	0.015	192.73	3	19	Feedback	Neutral	True
195.165	2.933	Control	0.8	n/a	Yes	2.933	n/a	n/a	GoodResponse	0	0.0	n/a	3	19	ISIslide	Neutral	True
198.114	0.25	Control	0.8095	0.0	Yes	2.636	0.014	n/a	GoodResponse	0	n/a	n/a	3	20	Cue	Neutral	True
198.364	4.05	Control	0.8095	0.0	Yes	2.636	0.0	n/a	GoodResponse	0	n/a	n/a	3	20	Fixation	Neutral	True
202.412	0.32	Control	0.8095	0.002	Yes	2.636	-0.002	4.0	GoodResponse	0	0.241	201.653	3	20	Target	Neutral	True
202.653	0.3	Control	0.8095	0.002	Yes	2.636	-0.002	4.0	GoodResponse	0	0.241	n/a	3	20	ButtonPress	Neutral	True
202.745	0.38	Control	0.8095	n/a	Yes	2.636	n/a	n/a	GoodResponse	0	n/a	n/a	3	20	Blank	Neutral	True
203.112	1.45	Control	0.8095	n/a	Yes	2.636	n/a	5.0	GoodResponse	0	0.033	202.145	3	20	Feedback	Neutral	True
204.561	2.636	Control	0.8095	n/a	Yes	2.636	n/a	n/a	GoodResponse	0	0.0	n/a	3	20	ISIslide	Neutral	True
207.211	0.25	Control	0.8181999999999999	0.0	Yes	2.789	0.011	n/a	GoodResponse	0	n/a	n/a	3	21	Cue	Neutral	True
207.46	4.1	Control	0.8181999999999999	0.001	Yes	2.789	-0.001	n/a	GoodResponse	0	n/a	n/a	3	21	Fixation	Neutral	True
211.559	0.31	Control	0.8181999999999999	0.002	Yes	2.789	-0.002	4.0	GoodResponse	0	0.238	210.797	3	21	Target	Neutral	True
211.797	0.3	Control	0.8181999999999999	0.002	Yes	2.789	-0.002	4.0	GoodResponse	0	0.238	n/a	3	21	ButtonPress	Neutral	True
211.876	0.39	Control	0.8181999999999999	n/a	Yes	2.789	n/a	n/a	GoodResponse	0	n/a	n/a	3	21	Blank	Neutral	True
212.259	1.45	Control	0.8181999999999999	n/a	Yes	2.789	n/a	5.0	GoodResponse	0	0.008	211.267	3	21	Feedback	Neutral	True
213.708	2.789	Control	0.8181999999999999	n/a	Yes	2.789	n/a	n/a	GoodResponse	0	0.0	n/a	3	21	ISIslide	Neutral	True
216.524	0.25	Control	0.7826000000000001	0.0	No	2.776	0.024	n/a	NoResponse	0	n/a	n/a	3	22	Cue	Neutral	True
216.774	4.0	Control	0.7826000000000001	0.0	No	2.776	0.0	n/a	NoResponse	0	n/a	n/a	3	22	Fixation	Neutral	True
220.772	0.3	Control	0.7826000000000001	0.002	No	2.776	-0.002	4.0	NoResponse	0	0.313	220.085	3	22	Target	Neutral	True
221.072	0.4	Control	0.7826000000000001	n/a	No	2.776	n/a	n/a	NoResponse	0	n/a	n/a	3	22	Blank	Neutral	True
221.085	0.3	Control	0.7826000000000001	0.002	No	2.776	-0.002	4.0	NoResponse	0	0.313	n/a	3	22	ButtonPress	Neutral	True
221.472	1.45	Control	0.7826000000000001	n/a	No	2.776	n/a	5.0	NoResponse	0	0.014	220.486	3	22	Feedback	Neutral	True
222.922	2.776	Control	0.7826000000000001	n/a	No	2.776	n/a	n/a	NoResponse	0	0.0	n/a	3	22	ISIslide	Neutral	True
225.721	0.25	Control	0.75	0.0	No	2.779	0.021	n/a	NoResponse	0	n/a	n/a	3	23	Cue	Neutral	False
225.971	3.9	Control	0.75	0.0	No	2.779	0.0	n/a	NoResponse	0	n/a	n/a	3	23	Fixation	Neutral	False
229.869	0.29	Control	0.75	0.002	No	2.779	-0.002	n/a	NoResponse	0	n/a	n/a	3	23	Target	Neutral	False
230.169	0.41	Control	0.75	n/a	No	2.779	n/a	n/a	NoResponse	0	n/a	n/a	3	23	Blank	Neutral	False
230.569	1.45	Control	0.75	n/a	No	2.779	n/a	5.0	NoResponse	0	0.039	229.608	3	23	Feedback	Neutral	False
232.019	2.779	Control	0.75	n/a	No	2.779	n/a	n/a	NoResponse	0	0.0	n/a	3	23	ISIslide	Neutral	False
234.818	0.25	Win2	0.72	0.0	No	3.132	0.018	n/a	NoResponse	0	n/a	n/a	3	24	Cue	MissedWin	True
235.068	3.95	Win2	0.72	0.0	No	3.132	0.0	4.0	NoResponse	0	3.259	237.327	3	24	Fixation	MissedWin	True
238.327	0.3	Win2	0.72	0.0	No	3.132	0.0	4.0	NoResponse	0	3.259	n/a	3	24	ButtonPress	MissedWin	True
239.016	0.28	Win2	0.72	0.002	No	3.132	-0.002	n/a	NoResponse	0	n/a	n/a	3	24	Target	MissedWin	True
239.299	0.42	Win2	0.72	n/a	No	3.132	n/a	n/a	NoResponse	0	n/a	n/a	3	24	Blank	MissedWin	True
239.716	1.45	Win2	0.72	n/a	No	3.132	n/a	5.0	NoResponse	0	0.014	238.73	3	24	Feedback	MissedWin	True
241.165	3.132	Win2	0.72	n/a	No	3.132	n/a	n/a	NoResponse	0	0.0	n/a	3	24	ISIslide	MissedWin	True
244.314	0.25	Win2	0.7308	0.0	Yes	3.086	0.014	n/a	GoodResponse	1	n/a	n/a	4	25	Cue	Win	True
244.564	4.0	Win2	0.7308	0.0	Yes	3.086	0.0	n/a	GoodResponse	1	n/a	n/a	4	25	Fixation	Win	True
248.563	0.27	Win2	0.7308	0.001	Yes	3.086	-0.001	4.0	GoodResponse	1	0.235	247.798	4	25	Target	Win	True
248.798	0.3	Win2	0.7308	0.001	Yes	3.086	-0.001	4.0	GoodResponse	1	0.235	n/a	4	25	ButtonPress	Win	True
248.829	0.43	Win2	0.7308	n/a	Yes	3.086	n/a	n/a	GoodResponse	1	n/a	n/a	4	25	Blank	Win	True
249.263	1.45	Win2	0.7308	n/a	Yes	3.086	n/a	5.0	GoodResponse	1	0.028	248.291	4	25	Feedback	Win	True
250.712	3.086	Win2	0.7308	n/a	Yes	3.086	n/a	n/a	GoodResponse	1	0.0	n/a	4	25	ISIslide	Win	True
253.828	0.25	Win2	0.7406999999999999	0.0	Yes	2.922	0.028	n/a	GoodResponse	1	n/a	n/a	5	26	Cue	Win	True
254.078	3.95	Win2	0.7406999999999999	0.0	Yes	2.922	0.0	n/a	GoodResponse	1	n/a	n/a	5	26	Fixation	Win	True
258.026	0.26	Win2	0.7406999999999999	0.002	Yes	2.922	-0.002	4.0	GoodResponse	1	0.257	257.283	5	26	Target	Win	True
258.283	0.3	Win2	0.7406999999999999	0.002	Yes	2.922	-0.002	4.0	GoodResponse	1	0.257	n/a	5	26	ButtonPress	Win	True
258.293	0.44	Win2	0.7406999999999999	n/a	Yes	2.922	n/a	n/a	GoodResponse	1	n/a	n/a	5	26	Blank	Win	True
258.726	1.45	Win2	0.7406999999999999	n/a	Yes	2.922	n/a	5.0	GoodResponse	1	0.028	257.754	5	26	Feedback	Win	True
260.176	2.922	Win2	0.7406999999999999	n/a	Yes	2.922	n/a	n/a	GoodResponse	1	0.0	n/a	5	26	ISIslide	Win	True
263.125	0.25	Lose2	0.7143	0.0	No	2.825	0.025	n/a	NoResponse	-1	n/a	n/a	4	27	Cue	Loss	False
263.374	4.05	Lose2	0.7143	0.001	No	2.825	-0.001	n/a	NoResponse	-1	n/a	n/a	4	27	Fixation	Loss	False
267.423	0.25	Lose2	0.7143	0.002	No	2.825	-0.002	n/a	NoResponse	-1	n/a	n/a	4	27	Target	Loss	False
267.673	0.45	Lose2	0.7143	n/a	No	2.825	n/a	n/a	NoResponse	-1	n/a	n/a	4	27	Blank	Loss	False
268.123	1.45	Lose2	0.7143	n/a	No	2.825	n/a	5.0	NoResponse	-1	0.046	267.169	4	27	Feedback	Loss	False
269.572	2.825	Lose2	0.7143	n/a	No	2.825	n/a	n/a	NoResponse	-1	0.0	n/a	4	27	ISIslide	Loss	False
272.421	0.25	Control	0.7241	0.0	Yes	2.829	0.021	n/a	GoodResponse	0	n/a	n/a	4	28	Cue	Neutral	True
272.671	4.05	Control	0.7241	0.0	Yes	2.829	0.0	n/a	GoodResponse	0	n/a	n/a	4	28	Fixation	Neutral	True
276.72	0.24	Control	0.7241	0.001	Yes	2.829	-0.001	4.0	GoodResponse	0	0.231	275.951	4	28	Target	Neutral	True
276.951	0.3	Control	0.7241	0.001	Yes	2.829	-0.001	4.0	GoodResponse	0	0.231	n/a	4	28	ButtonPress	Neutral	True
276.97	0.46	Control	0.7241	n/a	Yes	2.829	n/a	n/a	GoodResponse	0	n/a	n/a	4	28	Blank	Neutral	True
277.42	1.45	Control	0.7241	n/a	Yes	2.829	n/a	5.0	GoodResponse	0	0.017	276.437	4	28	Feedback	Neutral	True
278.869	2.829	Control	0.7241	n/a	Yes	2.829	n/a	n/a	GoodResponse	0	0.0	n/a	4	28	ISIslide	Neutral	True
281.718	0.25	Lose2	0.7333	0.0	Yes	2.832	0.018	n/a	GoodResponse	0	n/a	n/a	4	29	Cue	AvoidedLoss	True
281.968	3.95	Lose2	0.7333	0.0	Yes	2.832	0.0	n/a	GoodResponse	0	n/a	n/a	4	29	Fixation	AvoidedLoss	True
285.917	0.23	Lose2	0.7333	0.001	Yes	2.832	-0.001	4.0	GoodResponse	0	0.212	285.129	4	29	Target	AvoidedLoss	True
286.129	0.3	Lose2	0.7333	0.001	Yes	2.832	-0.001	4.0	GoodResponse	0	0.212	n/a	4	29	ButtonPress	AvoidedLoss	True
286.15	0.47	Lose2	0.7333	n/a	Yes	2.832	n/a	n/a	GoodResponse	0	n/a	n/a	4	29	Blank	AvoidedLoss	True
286.616	1.45	Lose2	0.7333	n/a	Yes	2.832	n/a	5.0	GoodResponse	0	0.041	285.657	4	29	Feedback	AvoidedLoss	True
288.066	2.832	Lose2	0.7333	n/a	Yes	2.832	n/a	n/a	GoodResponse	0	0.0	n/a	4	29	ISIslide	AvoidedLoss	True
290.915	0.25	Win2	0.7419	0.0	Yes	2.785	0.015	n/a	GoodResponse	1	n/a	n/a	5	30	Cue	Win	True
291.165	3.9	Win2	0.7419	0.0	Yes	2.785	0.0	n/a	GoodResponse	1	n/a	n/a	5	30	Fixation	Win	True
295.063	0.22	Win2	0.7419	0.002	Yes	2.785	-0.002	4.0	GoodResponse	1	0.217	294.28	5	30	Target	Win	True
295.28	0.3	Win2	0.7419	0.002	Yes	2.785	-0.002	4.0	GoodResponse	1	0.217	n/a	5	30	ButtonPress	Win	True
295.297	0.48	Win2	0.7419	n/a	Yes	2.785	n/a	n/a	GoodResponse	1	n/a	n/a	5	30	Blank	Win	True
295.763	1.45	Win2	0.7419	n/a	Yes	2.785	n/a	5.0	GoodResponse	1	0.016	294.779	5	30	Feedback	Win	True
297.213	2.785	Win2	0.7419	n/a	Yes	2.785	n/a	n/a	GoodResponse	1	0.0	n/a	5	30	ISIslide	Win	True
300.012	0.25	Lose2	0.75	0.0	Yes	2.838	0.012	n/a	GoodResponse	0	n/a	n/a	5	31	Cue	AvoidedLoss	True
300.262	4.05	Lose2	0.75	0.0	Yes	2.838	0.0	n/a	GoodResponse	0	n/a	n/a	5	31	Fixation	AvoidedLoss	True
304.31	0.21	Lose2	0.75	0.002	Yes	2.838	-0.002	4.0	GoodResponse	0	0.127	303.437	5	31	Target	AvoidedLoss	True
304.437	0.3	Lose2	0.75	0.002	Yes	2.838	-0.002	4.0	GoodResponse	0	0.127	n/a	5	31	ButtonPress	AvoidedLoss	True
304.527	0.49	Lose2	0.75	n/a	Yes	2.838	n/a	n/a	GoodResponse	0	n/a	n/a	5	31	Blank	AvoidedLoss	True
305.01	1.45	Lose2	0.75	n/a	Yes	2.838	n/a	5.0	GoodResponse	0	0.036	304.046	5	31	Feedback	AvoidedLoss	True
306.46	2.838	Lose2	0.75	n/a	Yes	2.838	n/a	n/a	GoodResponse	0	0.0	n/a	5	31	ISIslide	AvoidedLoss	True
309.325	0.25	Lose2	0.7273000000000001	0.0	No	2.625	0.025	n/a	NoResponse	-1	n/a	n/a	4	32	Cue	Loss	True
309.575	4.15	Lose2	0.7273000000000001	0.0	No	2.625	0.0	n/a	NoResponse	-1	n/a	n/a	4	32	Fixation	Loss	True
313.724	0.2	Lose2	0.7273000000000001	0.001	No	2.625	-0.001	4.0	NoResponse	-1	0.255	312.979	4	32	Target	Loss	True
313.924	0.5	Lose2	0.7273000000000001	n/a	No	2.625	n/a	n/a	NoResponse	-1	n/a	n/a	4	32	Blank	Loss	True
313.979	0.3	Lose2	0.7273000000000001	0.001	No	2.625	-0.001	4.0	NoResponse	-1	0.255	n/a	4	32	ButtonPress	Loss	True
314.423	1.45	Lose2	0.7273000000000001	n/a	No	2.625	n/a	5.0	NoResponse	-1	0.038	313.461	4	32	Feedback	Loss	True
315.873	2.625	Lose2	0.7273000000000001	n/a	No	2.625	n/a	n/a	NoResponse	-1	0.0	n/a	4	32	ISIslide	Loss	True
318.522	0.25	Win2	0.7059000000000001	0.0	No	2.678	0.022	n/a	NoResponse	0	n/a	n/a	4	33	Cue	MissedWin	True
318.772	4.0	Win2	0.7059000000000001	0.0	No	2.678	0.0	n/a	NoResponse	0	n/a	n/a	4	33	Fixation	MissedWin	True
322.771	0.19	Win2	0.7059000000000001	0.001	No	2.678	-0.001	4.0	NoResponse	0	0.249	322.02	4	33	Target	MissedWin	True
322.97	0.51	Win2	0.7059000000000001	n/a	No	2.678	n/a	n/a	NoResponse	0	n/a	n/a	4	33	Blank	MissedWin	True
323.02	0.3	Win2	0.7059000000000001	0.001	No	2.678	-0.001	4.0	NoResponse	0	0.249	n/a	4	33	ButtonPress	MissedWin	True
323.47	1.45	Win2	0.7059000000000001	n/a	No	2.678	n/a	5.0	NoResponse	0	0.016	322.486	4	33	Feedback	MissedWin	True
324.92	2.678	Win2	0.7059000000000001	n/a	No	2.678	n/a	n/a	NoResponse	0	0.0	n/a	4	33	ISIslide	MissedWin	True
327.619	0.25	Lose2	0.7143	0.0	Yes	2.631	0.019	n/a	GoodResponse	0	n/a	n/a	4	34	Cue	AvoidedLoss	True
327.869	4.05	Lose2	0.7143	0.0	Yes	2.631	0.0	n/a	GoodResponse	0	n/a	n/a	4	34	Fixation	AvoidedLoss	True
331.917	0.18	Lose2	0.7143	0.002	Yes	2.631	-0.002	4.0	GoodResponse	0	0.171	331.088	4	34	Target	AvoidedLoss	True
332.088	0.3	Lose2	0.7143	0.002	Yes	2.631	-0.002	4.0	GoodResponse	0	0.171	n/a	4	34	ButtonPress	AvoidedLoss	True
332.101	0.52	Lose2	0.7143	n/a	Yes	2.631	n/a	n/a	GoodResponse	0	n/a	n/a	4	34	Blank	AvoidedLoss	True
332.617	1.45	Lose2	0.7143	n/a	Yes	2.631	n/a	5.0	GoodResponse	0	0.039	331.656	4	34	Feedback	AvoidedLoss	True
334.067	2.631	Lose2	0.7143	n/a	Yes	2.631	n/a	n/a	GoodResponse	0	0.0	n/a	4	34	ISIslide	AvoidedLoss	True
336.716	0.25	Lose2	0.6944	0.0	No	2.684	0.016	n/a	LatePress	-1	n/a	n/a	3	35	Cue	Loss	True
336.966	4.0	Lose2	0.6944	0.0	No	2.684	0.0	n/a	LatePress	-1	n/a	n/a	3	35	Fixation	Loss	True
340.964	0.17	Lose2	0.6944	0.002	No	2.684	-0.002	4.0	LatePress	-1	0.183	340.147	3	35	Target	Loss	True
341.147	0.3	Lose2	0.6944	0.002	No	2.684	-0.002	4.0	LatePress	-1	0.183	n/a	3	35	ButtonPress	Loss	True
341.148	0.53	Lose2	0.6944	n/a	No	2.684	n/a	n/a	LatePress	-1	n/a	n/a	3	35	Blank	Loss	True
341.664	1.45	Lose2	0.6944	n/a	No	2.684	n/a	5.0	LatePress	-1	0.017	340.681	3	35	Feedback	Loss	True
343.114	2.684	Lose2	0.6944	n/a	No	2.684	n/a	n/a	LatePress	-1	0.0	n/a	3	35	ISIslide	Loss	True
345.813	0.25	Control	0.6757	0.0	No	2.687	0.013	n/a	NoResponse	0	n/a	n/a	3	36	Cue	Neutral	True
346.062	4.0	Control	0.6757	0.001	No	2.687	-0.001	n/a	NoResponse	0	n/a	n/a	3	36	Fixation	Neutral	True
350.061	0.16	Control	0.6757	0.002	No	2.687	-0.002	4.0	NoResponse	0	0.215	349.276	3	36	Target	Neutral	True
350.228	0.54	Control	0.6757	n/a	No	2.687	n/a	n/a	NoResponse	0	n/a	n/a	3	36	Blank	Neutral	True
350.276	0.3	Control	0.6757	0.002	No	2.687	-0.002	4.0	NoResponse	0	0.215	n/a	3	36	ButtonPress	Neutral	True
350.761	1.45	Control	0.6757	n/a	No	2.687	n/a	5.0	NoResponse	0	0.042	349.803	3	36	Feedback	Neutral	True
352.21	2.687	Control	0.6757	n/a	No	2.687	n/a	n/a	NoResponse	0	0.0	n/a	3	36	ISIslide	Neutral	True
354.926	0.25	Win2	0.6579	0.0	No	2.874	0.026	n/a	NoResponse	0	n/a	n/a	3	37	Cue	MissedWin	True
355.176	4.0	Win2	0.6579	0.0	No	2.874	0.0	n/a	NoResponse	0	n/a	n/a	3	37	Fixation	MissedWin	True
359.175	0.15	Win2	0.6579	0.001	No	2.874	-0.001	4.0	NoResponse	0	0.196	358.371	3	37	Target	MissedWin	True
359.325	0.55	Win2	0.6579	n/a	No	2.874	n/a	n/a	NoResponse	0	n/a	n/a	3	37	Blank	MissedWin	True
359.371	0.3	Win2	0.6579	0.001	No	2.874	-0.001	4.0	NoResponse	0	0.196	n/a	3	37	ButtonPress	MissedWin	True
359.874	1.45	Win2	0.6579	n/a	No	2.874	n/a	5.0	NoResponse	0	0.002	358.876	3	37	Feedback	MissedWin	True
361.324	2.874	Win2	0.6579	n/a	No	2.874	n/a	n/a	NoResponse	0	0.0	n/a	3	37	ISIslide	MissedWin	True
364.223	0.25	Lose2	0.6409999999999999	0.0	No	2.827	0.023	n/a	NoResponse	-1	n/a	n/a	2	38	Cue	Loss	True
364.473	3.95	Lose2	0.6409999999999999	0.0	No	2.827	0.0	n/a	NoResponse	-1	n/a	n/a	2	38	Fixation	Loss	True
368.421	0.15	Lose2	0.6409999999999999	0.002	No	2.827	-0.002	4.0	NoResponse	-1	0.188	367.609	2	38	Target	Loss	True
368.571	0.55	Lose2	0.6409999999999999	n/a	No	2.827	n/a	n/a	NoResponse	-1	n/a	n/a	2	38	Blank	Loss	True
368.609	0.3	Lose2	0.6409999999999999	0.002	No	2.827	-0.002	4.0	NoResponse	-1	0.188	n/a	2	38	ButtonPress	Loss	True
369.121	1.45	Lose2	0.6409999999999999	n/a	No	2.827	n/a	5.0	NoResponse	-1	0.023	368.144	2	38	Feedback	Loss	True
370.571	2.827	Lose2	0.6409999999999999	n/a	No	2.827	n/a	n/a	NoResponse	-1	0.0	n/a	2	38	ISIslide	Loss	True
373.42	0.25	Win2	0.625	0.0	No	2.98	0.02	n/a	NoResponse	0	n/a	n/a	2	39	Cue	MissedWin	False
373.67	4.1	Win2	0.625	0.0	No	2.98	0.0	4.0	NoResponse	0	2.038	374.708	2	39	Fixation	MissedWin	False
375.708	0.3	Win2	0.625	0.0	No	2.98	0.0	4.0	NoResponse	0	2.038	n/a	2	39	ButtonPress	MissedWin	False
377.768	0.16	Win2	0.625	0.002	No	2.98	-0.002	4.0	NoResponse	0	0.194	376.962	2	39	Target	MissedWin	False
377.935	0.54	Win2	0.625	n/a	No	2.98	n/a	n/a	NoResponse	0	n/a	n/a	2	39	Blank	MissedWin	False
377.962	0.3	Win2	0.625	0.002	No	2.98	-0.002	4.0	NoResponse	0	0.194	n/a	2	39	ButtonPress	MissedWin	False
378.468	1.45	Win2	0.625	n/a	No	2.98	n/a	5.0	NoResponse	0	0.042	377.51	2	39	Feedback	MissedWin	False
379.917	2.98	Win2	0.625	n/a	No	2.98	n/a	n/a	NoResponse	0	0.0	n/a	2	39	ISIslide	MissedWin	False
382.916	0.25	Win2	0.6098	0.0	No	2.734	0.016	n/a	NoResponse	0	n/a	n/a	2	40	Cue	MissedWin	True
383.166	3.95	Win2	0.6098	0.0	No	2.734	0.0	n/a	NoResponse	0	n/a	n/a	2	40	Fixation	MissedWin	True
387.115	0.17	Win2	0.6098	0.001	No	2.734	-0.001	4.0	NoResponse	0	0.201	386.316	2	40	Target	MissedWin	True
387.282	0.53	Win2	0.6098	n/a	No	2.734	n/a	n/a	NoResponse	0	n/a	n/a	2	40	Blank	MissedWin	True
387.316	0.3	Win2	0.6098	0.001	No	2.734	-0.001	4.0	NoResponse	0	0.201	n/a	2	40	ButtonPress	MissedWin	True
387.815	1.45	Win2	0.6098	n/a	No	2.734	n/a	5.0	NoResponse	0	0.012	386.827	2	40	Feedback	MissedWin	True
389.264	2.734	Win2	0.6098	n/a	No	2.734	n/a	n/a	NoResponse	0	0.0	n/a	2	40	ISIslide	MissedWin	True
392.013	0.25	Win2	0.5952000000000001	0.0	No	2.787	0.013	n/a	NoResponse	0	n/a	n/a	2	41	Cue	MissedWin	True
392.263	3.9	Win2	0.5952000000000001	0.0	No	2.787	0.0	n/a	NoResponse	0	n/a	n/a	2	41	Fixation	MissedWin	True
396.162	0.18	Win2	0.5952000000000001	0.001	No	2.787	-0.001	4.0	NoResponse	0	0.21	395.372	2	41	Target	MissedWin	True
396.345	0.52	Win2	0.5952000000000001	n/a	No	2.787	n/a	n/a	NoResponse	0	n/a	n/a	2	41	Blank	MissedWin	True
396.372	0.3	Win2	0.5952000000000001	0.001	No	2.787	-0.001	4.0	NoResponse	0	0.21	n/a	2	41	ButtonPress	MissedWin	True
396.862	1.45	Win2	0.5952000000000001	n/a	No	2.787	n/a	5.0	NoResponse	0	0.038	395.9	2	41	Feedback	MissedWin	True
398.311	2.787	Win2	0.5952000000000001	n/a	No	2.787	n/a	n/a	NoResponse	0	0.0	n/a	2	41	ISIslide	MissedWin	True
401.11	0.25	Control	0.5814	0.0	No	2.94	0.01	n/a	NoResponse	0	n/a	n/a	2	42	Cue	Neutral	True
401.36	3.85	Control	0.5814	0.0	No	2.94	0.0	n/a	NoResponse	0	n/a	n/a	2	42	Fixation	Neutral	True
405.209	0.19	Control	0.5814	0.001	No	2.94	-0.001	4.0	NoResponse	0	0.247	404.456	2	42	Target	Neutral	True
405.409	0.51	Control	0.5814	n/a	No	2.94	n/a	n/a	NoResponse	0	n/a	n/a	2	42	Blank	Neutral	True
405.456	0.3	Control	0.5814	0.001	No	2.94	-0.001	4.0	NoResponse	0	0.247	n/a	2	42	ButtonPress	Neutral	True
405.908	1.45	Control	0.5814	n/a	No	2.94	n/a	5.0	NoResponse	0	0.017	404.925	2	42	Feedback	Neutral	True
407.358	2.94	Control	0.5814	n/a	No	2.94	n/a	n/a	NoResponse	0	0.0	n/a	2	42	ISIslide	Neutral	True
410.324	0.25	Win2	0.5909	0.0	Yes	3.176	0.024	n/a	GoodResponse	1	n/a	n/a	3	43	Cue	Win	True
410.574	4.0	Win2	0.5909	0.0	Yes	3.176	0.0	n/a	GoodResponse	1	n/a	n/a	3	43	Fixation	Win	True
414.572	0.2	Win2	0.5909	0.002	Yes	3.176	-0.002	4.0	GoodResponse	1	0.167	413.739	3	43	Target	Win	True
414.739	0.3	Win2	0.5909	0.002	Yes	3.176	-0.002	4.0	GoodResponse	1	0.167	n/a	3	43	ButtonPress	Win	True
414.772	0.5	Win2	0.5909	n/a	Yes	3.176	n/a	n/a	GoodResponse	1	n/a	n/a	3	43	Blank	Win	True
415.272	1.45	Win2	0.5909	n/a	Yes	3.176	n/a	5.0	GoodResponse	1	0.019	414.291	3	43	Feedback	Win	True
416.721	3.176	Win2	0.5909	n/a	Yes	3.176	n/a	n/a	GoodResponse	1	0.0	n/a	3	43	ISIslide	Win	True
419.92	0.25	Win2	0.6	0.0	Yes	2.98	0.02	n/a	GoodResponse	1	n/a	n/a	4	44	Cue	Win	True
420.17	4.0	Win2	0.6	0.0	Yes	2.98	0.0	n/a	GoodResponse	1	n/a	n/a	4	44	Fixation	Win	True
424.169	0.21	Win2	0.6	0.001	Yes	2.98	-0.001	4.0	GoodResponse	1	0.193	423.362	4	44	Target	Win	True
424.362	0.3	Win2	0.6	0.001	Yes	2.98	-0.001	4.0	GoodResponse	1	0.193	n/a	4	44	ButtonPress	Win	True
424.385	0.49	Win2	0.6	n/a	Yes	2.98	n/a	n/a	GoodResponse	1	n/a	n/a	4	44	Blank	Win	True
424.869	1.45	Win2	0.6	n/a	Yes	2.98	n/a	5.0	GoodResponse	1	0.031	423.9	4	44	Feedback	Win	True
426.318	2.98	Win2	0.6	n/a	Yes	2.98	n/a	n/a	GoodResponse	1	0.0	n/a	4	44	ISIslide	Win	True
429.317	0.25	Control	0.5870000000000001	0.0	No	2.883	0.017	n/a	NoResponse	0	n/a	n/a	4	45	Cue	Neutral	True
429.567	4.1	Control	0.5870000000000001	0.0	No	2.883	0.0	4.0	NoResponse	0	4.038	432.605	4	45	Fixation	Neutral	True
433.605	0.3	Control	0.5870000000000001	0.0	No	2.883	0.0	4.0	NoResponse	0	4.038	n/a	4	45	ButtonPress	Neutral	True
433.666	0.22	Control	0.5870000000000001	0.001	No	2.883	-0.001	n/a	NoResponse	0	n/a	n/a	4	45	Target	Neutral	True
433.899	0.48	Control	0.5870000000000001	n/a	No	2.883	n/a	n/a	NoResponse	0	n/a	n/a	4	45	Blank	Neutral	True
434.365	1.45	Control	0.5870000000000001	n/a	No	2.883	n/a	5.0	NoResponse	0	0.047	433.412	4	45	Feedback	Neutral	True
435.815	2.883	Control	0.5870000000000001	n/a	No	2.883	n/a	n/a	NoResponse	0	0.0	n/a	4	45	ISIslide	Neutral	True
438.714	0.25	Lose2	0.5745	0.0	No	3.386	0.014	n/a	NoResponse	-1	n/a	n/a	3	46	Cue	Loss	True
438.964	4.0	Lose2	0.5745	0.0	No	3.386	0.0	n/a	NoResponse	-1	n/a	n/a	3	46	Fixation	Loss	True
442.962	0.23	Lose2	0.5745	0.002	No	3.386	-0.002	4.0	NoResponse	-1	0.267	442.229	3	46	Target	Loss	True
443.196	0.47	Lose2	0.5745	n/a	No	3.386	n/a	n/a	NoResponse	-1	n/a	n/a	3	46	Blank	Loss	True
443.229	0.3	Lose2	0.5745	0.002	No	3.386	-0.002	4.0	NoResponse	-1	0.267	n/a	3	46	ButtonPress	Loss	True
443.662	1.45	Lose2	0.5745	n/a	No	3.386	n/a	5.0	NoResponse	-1	0.018	442.68	3	46	Feedback	Loss	True
445.112	3.386	Lose2	0.5745	n/a	No	3.386	n/a	n/a	NoResponse	-1	0.0	n/a	3	46	ISIslide	Loss	True
448.527	0.25	Lose2	0.5625	0.0	No	2.673	0.027	n/a	PrematurePress	-1	n/a	n/a	2	47	Cue	Loss	True
448.777	4.0	Lose2	0.5625	0.0	No	2.673	0.0	n/a	PrematurePress	-1	n/a	n/a	2	47	Fixation	Loss	True
452.776	0.24	Lose2	0.5625	0.001	No	2.673	-0.001	4.0	PrematurePress	-1	0.004	451.78	2	47	Target	Loss	True
452.78	0.3	Lose2	0.5625	0.001	No	2.673	-0.001	4.0	PrematurePress	-1	0.004	n/a	2	47	ButtonPress	Loss	True
453.026	0.46	Lose2	0.5625	n/a	No	2.673	n/a	n/a	PrematurePress	-1	n/a	n/a	2	47	Blank	Loss	True
453.475	1.45	Lose2	0.5625	n/a	No	2.673	n/a	5.0	PrematurePress	-1	0.01	452.485	2	47	Feedback	Loss	True
454.925	2.673	Lose2	0.5625	n/a	No	2.673	n/a	4.0	PrematurePress	-1	0.464	n/a	2	47	ISIslide	Loss	True
457.607	0.25	Lose2	0.5714	0.0	Yes	3.043	0.007	n/a	GoodResponse	0	n/a	n/a	2	48	Cue	AvoidedLoss	True
457.857	3.95	Lose2	0.5714	0.0	Yes	3.043	0.0	n/a	GoodResponse	0	n/a	n/a	2	48	Fixation	AvoidedLoss	True
461.806	0.25	Lose2	0.5714	0.001	Yes	3.043	-0.001	4.0	GoodResponse	0	0.214	461.02	2	48	Target	AvoidedLoss	True
462.02	0.3	Lose2	0.5714	0.001	Yes	3.043	-0.001	4.0	GoodResponse	0	0.214	n/a	2	48	ButtonPress	AvoidedLoss	True
462.056	0.45	Lose2	0.5714	n/a	Yes	3.043	n/a	n/a	GoodResponse	0	n/a	n/a	2	48	Blank	AvoidedLoss	True
462.506	1.45	Lose2	0.5714	n/a	Yes	3.043	n/a	5.0	GoodResponse	0	0.006	461.512	2	48	Feedback	AvoidedLoss	True
463.955	3.043	Lose2	0.5714	n/a	Yes	3.043	n/a	n/a	GoodResponse	0	0.0	n/a	2	48	ISIslide	AvoidedLoss	True
467.021	0.25	Control	0.58	0.0	Yes	2.879	0.021	n/a	GoodResponse	0	n/a	n/a	2	49	Cue	Neutral	True
467.271	4.0	Control	0.58	0.0	Yes	2.879	0.0	n/a	GoodResponse	0	n/a	n/a	2	49	Fixation	Neutral	True
471.269	0.26	Control	0.58	0.002	Yes	2.879	-0.002	4.0	GoodResponse	0	0.189	470.458	2	49	Target	Neutral	True
471.458	0.3	Control	0.58	0.002	Yes	2.879	-0.002	4.0	GoodResponse	0	0.189	n/a	2	49	ButtonPress	Neutral	True
471.536	0.44	Control	0.58	n/a	Yes	2.879	n/a	n/a	GoodResponse	0	n/a	n/a	2	49	Blank	Neutral	True
471.969	1.45	Control	0.58	n/a	Yes	2.879	n/a	5.0	GoodResponse	0	0.006	470.975	2	49	Feedback	Neutral	True
473.418	2.879	Control	0.58	n/a	Yes	2.879	n/a	n/a	GoodResponse	0	0.0	n/a	2	49	ISIslide	Neutral	True
476.317	0.25	Control	0.5686	0.001	No	2.783	0.017	n/a	NoResponse	0	n/a	n/a	2	50	Cue	Neutral	True
476.567	4.0	Control	0.5686	0.0	No	2.783	0.0	n/a	NoResponse	0	n/a	n/a	2	50	Fixation	Neutral	True
480.566	0.27	Control	0.5686	0.001	No	2.783	-0.001	4.0	NoResponse	0	0.356	479.922	2	50	Target	Neutral	True
480.833	0.43	Control	0.5686	n/a	No	2.783	n/a	n/a	NoResponse	0	n/a	n/a	2	50	Blank	Neutral	True
480.922	0.3	Control	0.5686	0.001	No	2.783	-0.001	4.0	NoResponse	0	0.356	n/a	2	50	ButtonPress	Neutral	True
481.266	1.45	Control	0.5686	n/a	No	2.783	n/a	5.0	NoResponse	0	0.024	480.29	2	50	Feedback	Neutral	True
482.715	2.783	Control	0.5686	n/a	No	2.783	n/a	n/a	NoResponse	0	0.0	n/a	2	50	ISIslide	Neutral	True
485.514	0.25	Control	0.5769	0.0	Yes	2.736	0.014	n/a	GoodResponse	0	n/a	n/a	2	51	Cue	Neutral	True
485.764	3.95	Control	0.5769	0.0	Yes	2.736	0.0	n/a	GoodResponse	0	n/a	n/a	2	51	Fixation	Neutral	True
489.713	0.28	Control	0.5769	0.001	Yes	2.736	-0.001	4.0	GoodResponse	0	0.253	488.966	2	51	Target	Neutral	True
489.966	0.3	Control	0.5769	0.001	Yes	2.736	-0.001	4.0	GoodResponse	0	0.253	n/a	2	51	ButtonPress	Neutral	True
489.996	0.42	Control	0.5769	n/a	Yes	2.736	n/a	n/a	GoodResponse	0	n/a	n/a	2	51	Blank	Neutral	True
490.413	1.45	Control	0.5769	n/a	Yes	2.736	n/a	5.0	GoodResponse	0	0.047	489.46	2	51	Feedback	Neutral	True
491.862	2.736	Control	0.5769	n/a	Yes	2.736	n/a	n/a	GoodResponse	0	0.0	n/a	2	51	ISIslide	Neutral	True
494.628	0.25	Control	0.5849	0.0	Yes	2.622	0.028	n/a	GoodResponse	0	n/a	n/a	2	52	Cue	Neutral	True
494.878	4.05	Control	0.5849	0.0	Yes	2.622	0.0	n/a	GoodResponse	0	n/a	n/a	2	52	Fixation	Neutral	True
498.926	0.29	Control	0.5849	0.002	Yes	2.622	-0.002	4.0	GoodResponse	0	0.177	498.103	2	52	Target	Neutral	True
499.103	0.3	Control	0.5849	0.002	Yes	2.622	-0.002	4.0	GoodResponse	0	0.177	n/a	2	52	ButtonPress	Neutral	True
499.226	0.41	Control	0.5849	n/a	Yes	2.622	n/a	n/a	GoodResponse	0	n/a	n/a	2	52	Blank	Neutral	True
499.626	1.45	Control	0.5849	n/a	Yes	2.622	n/a	5.0	GoodResponse	0	0.007	498.633	2	52	Feedback	Neutral	True
501.076	2.622	Control	0.5849	n/a	Yes	2.622	n/a	n/a	GoodResponse	0	0.0	n/a	2	52	ISIslide	Neutral	True
503.725	0.25	Win2	0.5740999999999999	0.0	No	2.925	0.025	n/a	NoResponse	0	n/a	n/a	2	53	Cue	MissedWin	True
503.975	4.05	Win2	0.5740999999999999	0.0	No	2.925	0.0	n/a	NoResponse	0	n/a	n/a	2	53	Fixation	MissedWin	True
508.023	0.3	Win2	0.5740999999999999	0.002	No	2.925	-0.002	4.0	NoResponse	0	0.36	507.383	2	53	Target	MissedWin	True
508.323	0.4	Win2	0.5740999999999999	n/a	No	2.925	n/a	n/a	NoResponse	0	n/a	n/a	2	53	Blank	MissedWin	True
508.383	0.3	Win2	0.5740999999999999	0.002	No	2.925	-0.002	4.0	NoResponse	0	0.36	n/a	2	53	ButtonPress	MissedWin	True
508.723	1.45	Win2	0.5740999999999999	n/a	No	2.925	n/a	5.0	NoResponse	0	0.03	507.753	2	53	Feedback	MissedWin	True
510.172	2.925	Win2	0.5740999999999999	n/a	No	2.925	n/a	n/a	NoResponse	0	0.0	n/a	2	53	ISIslide	MissedWin	True
513.121	0.25	Win2	0.5818	0.001	Yes	2.729	0.021	n/a	GoodResponse	1	n/a	n/a	3	54	Cue	Win	True
513.371	3.95	Win2	0.5818	0.0	Yes	2.729	0.0	n/a	GoodResponse	1	n/a	n/a	3	54	Fixation	Win	True
517.32	0.31	Win2	0.5818	0.001	Yes	2.729	-0.001	4.0	GoodResponse	1	0.172	516.492	3	54	Target	Win	True
517.492	0.3	Win2	0.5818	0.001	Yes	2.729	-0.001	4.0	GoodResponse	1	0.172	n/a	3	54	ButtonPress	Win	True
517.637	0.39	Win2	0.5818	n/a	Yes	2.729	n/a	n/a	GoodResponse	1	n/a	n/a	3	54	Blank	Win	True
518.02	1.45	Win2	0.5818	n/a	Yes	2.729	n/a	5.0	GoodResponse	1	0.006	517.026	3	54	Feedback	Win	True
519.469	2.729	Win2	0.5818	n/a	Yes	2.729	n/a	n/a	GoodResponse	1	0.0	n/a	3	54	ISIslide	Win	True
522.218	0.25	Control	0.5893	0.0	Yes	3.032	0.018	n/a	GoodResponse	0	n/a	n/a	3	55	Cue	Neutral	True
522.468	3.95	Control	0.5893	0.0	Yes	3.032	0.0	n/a	GoodResponse	0	n/a	n/a	3	55	Fixation	Neutral	True
526.417	0.32	Control	0.5893	0.001	Yes	3.032	-0.001	4.0	GoodResponse	0	0.2	525.617	3	55	Target	Neutral	True
526.617	0.3	Control	0.5893	0.001	Yes	3.032	-0.001	4.0	GoodResponse	0	0.2	n/a	3	55	ButtonPress	Neutral	True
526.75	0.38	Control	0.5893	n/a	Yes	3.032	n/a	n/a	GoodResponse	0	n/a	n/a	3	55	Blank	Neutral	True
527.117	1.45	Control	0.5893	n/a	Yes	3.032	n/a	5.0	GoodResponse	0	0.027	526.144	3	55	Feedback	Neutral	True
528.566	3.032	Control	0.5893	n/a	Yes	3.032	n/a	n/a	GoodResponse	0	0.0	n/a	3	55	ISIslide	Neutral	True
531.615	0.25	Control	0.5965	0.0	Yes	2.835	0.015	n/a	GoodResponse	0	n/a	n/a	3	56	Cue	Neutral	True
531.865	3.95	Control	0.5965	0.0	Yes	2.835	0.0	n/a	GoodResponse	0	n/a	n/a	3	56	Fixation	Neutral	True
535.814	0.33	Control	0.5965	0.001	Yes	2.835	-0.001	4.0	GoodResponse	0	0.267	535.081	3	56	Target	Neutral	True
536.081	0.3	Control	0.5965	0.001	Yes	2.835	-0.001	4.0	GoodResponse	0	0.267	n/a	3	56	ButtonPress	Neutral	True
536.147	0.37	Control	0.5965	n/a	Yes	2.835	n/a	n/a	GoodResponse	0	n/a	n/a	3	56	Blank	Neutral	True
536.513	1.45	Control	0.5965	n/a	Yes	2.835	n/a	5.0	GoodResponse	0	0.045	535.558	3	56	Feedback	Neutral	True
537.963	2.835	Control	0.5965	n/a	Yes	2.835	n/a	n/a	GoodResponse	0	0.0	n/a	3	56	ISIslide	Neutral	True
540.828	0.25	Control	0.6034	0.001	Yes	3.472	0.028	n/a	GoodResponse	0	n/a	n/a	3	57	Cue	Neutral	True
541.078	4.0	Control	0.6034	0.0	Yes	3.472	0.0	n/a	GoodResponse	0	n/a	n/a	3	57	Fixation	Neutral	True
545.077	0.34	Control	0.6034	0.001	Yes	3.472	-0.001	4.0	GoodResponse	0	0.241	544.318	3	57	Target	Neutral	True
545.318	0.3	Control	0.6034	0.001	Yes	3.472	-0.001	4.0	GoodResponse	0	0.241	n/a	3	57	ButtonPress	Neutral	True
545.427	0.36	Control	0.6034	n/a	Yes	3.472	n/a	n/a	GoodResponse	0	n/a	n/a	3	57	Blank	Neutral	True
545.777	1.45	Control	0.6034	n/a	Yes	3.472	n/a	5.0	GoodResponse	0	0.0	544.777	3	57	Feedback	Neutral	True
547.226	3.472	Control	0.6034	n/a	Yes	3.472	n/a	n/a	GoodResponse	0	0.0	n/a	3	57	ISIslide	Neutral	True
550.725	0.25	Win2	0.6102000000000001	0.0	Yes	2.725	0.025	n/a	GoodResponse	1	n/a	n/a	4	58	Cue	Win	True
550.975	4.05	Win2	0.6102000000000001	0.0	Yes	2.725	0.0	n/a	GoodResponse	1	n/a	n/a	4	58	Fixation	Win	True
555.024	0.35	Win2	0.6102000000000001	0.001	Yes	2.725	-0.001	4.0	GoodResponse	1	0.198	554.222	4	58	Target	Win	True
555.222	0.3	Win2	0.6102000000000001	0.001	Yes	2.725	-0.001	4.0	GoodResponse	1	0.198	n/a	4	58	ButtonPress	Win	True
555.373	0.35	Win2	0.6102000000000001	n/a	Yes	2.725	n/a	n/a	GoodResponse	1	n/a	n/a	4	58	Blank	Win	True
555.723	1.45	Win2	0.6102000000000001	n/a	Yes	2.725	n/a	5.0	GoodResponse	1	0.007	554.73	4	58	Feedback	Win	True
557.173	2.725	Win2	0.6102000000000001	n/a	Yes	2.725	n/a	n/a	GoodResponse	1	0.0	n/a	4	58	ISIslide	Win	True
559.922	0.25	Lose2	0.6167	0.0	Yes	2.678	0.022	n/a	GoodResponse	0	n/a	n/a	4	59	Cue	AvoidedLoss	True
560.172	4.0	Lose2	0.6167	0.0	Yes	2.678	0.0	n/a	GoodResponse	0	n/a	n/a	4	59	Fixation	AvoidedLoss	True
564.17	0.36	Lose2	0.6167	0.002	Yes	2.678	-0.002	4.0	GoodResponse	0	0.208	563.378	4	59	Target	AvoidedLoss	True
564.378	0.3	Lose2	0.6167	0.002	Yes	2.678	-0.002	4.0	GoodResponse	0	0.208	n/a	4	59	ButtonPress	AvoidedLoss	True
564.537	0.34	Lose2	0.6167	n/a	Yes	2.678	n/a	n/a	GoodResponse	0	n/a	n/a	4	59	Blank	AvoidedLoss	True
564.87	1.45	Lose2	0.6167	n/a	Yes	2.678	n/a	5.0	GoodResponse	0	0.029	563.899	4	59	Feedback	AvoidedLoss	True
566.32	2.678	Lose2	0.6167	n/a	Yes	2.678	n/a	n/a	GoodResponse	0	0.0	n/a	4	59	ISIslide	AvoidedLoss	True
569.019	0.25	Control	0.623	0.0	Yes	2.681	0.019	n/a	GoodResponse	0	n/a	n/a	4	60	Cue	Neutral	True
569.269	4.0	Control	0.623	0.0	Yes	2.681	0.0	n/a	GoodResponse	0	n/a	n/a	4	60	Fixation	Neutral	True
573.267	0.37	Control	0.623	0.002	Yes	2.681	-0.002	4.0	GoodResponse	0	0.211	572.478	4	60	Target	Neutral	True
573.478	0.3	Control	0.623	0.002	Yes	2.681	-0.002	4.0	GoodResponse	0	0.211	n/a	4	60	ButtonPress	Neutral	True
573.65	0.33	Control	0.623	n/a	Yes	2.681	n/a	n/a	GoodResponse	0	n/a	n/a	4	60	Blank	Neutral	True
573.967	1.45	Control	0.623	n/a	Yes	2.681	n/a	5.0	GoodResponse	0	0.007	572.974	4	60	Feedback	Neutral	True
575.417	2.681	Control	0.623	n/a	Yes	2.681	n/a	n/a	GoodResponse	0	0.0	n/a	4	60	ISIslide	Neutral	True
578.116	0.25	Lose2	0.629	0.0	Yes	2.984	0.016	n/a	GoodResponse	0	n/a	n/a	4	61	Cue	AvoidedLoss	True
578.365	4.0	Lose2	0.629	0.001	Yes	2.984	-0.001	n/a	GoodResponse	0	n/a	n/a	4	61	Fixation	AvoidedLoss	True
582.364	0.38	Lose2	0.629	0.002	Yes	2.984	-0.002	4.0	GoodResponse	0	0.289	581.653	4	61	Target	AvoidedLoss	True
582.653	0.3	Lose2	0.629	0.002	Yes	2.984	-0.002	4.0	GoodResponse	0	0.289	n/a	4	61	ButtonPress	AvoidedLoss	True
582.747	0.32	Lose2	0.629	n/a	Yes	2.984	n/a	n/a	GoodResponse	0	n/a	n/a	4	61	Blank	AvoidedLoss	True
583.064	1.45	Lose2	0.629	n/a	Yes	2.984	n/a	5.0	GoodResponse	0	0.031	582.095	4	61	Feedback	AvoidedLoss	True
584.513	2.984	Lose2	0.629	n/a	Yes	2.984	n/a	n/a	GoodResponse	0	0.0	n/a	4	61	ISIslide	AvoidedLoss	True
587.529	0.25	Lose2	0.619	0.0	No	2.871	0.029	n/a	NoResponse	-1	n/a	n/a	3	62	Cue	Loss	False
587.779	3.9	Lose2	0.619	0.0	No	2.871	0.0	n/a	NoResponse	-1	n/a	n/a	3	62	Fixation	Loss	False
591.678	0.39	Lose2	0.619	0.001	No	2.871	-0.001	n/a	NoResponse	-1	n/a	n/a	3	62	Target	Loss	False
592.077	0.31	Lose2	0.619	n/a	No	2.871	n/a	n/a	NoResponse	-1	n/a	n/a	3	62	Blank	Loss	False
592.377	1.45	Lose2	0.619	n/a	No	2.871	n/a	5.0	NoResponse	-1	0.035	591.412	3	62	Feedback	Loss	False
593.827	2.871	Lose2	0.619	n/a	No	2.871	n/a	4.0	NoResponse	-1	0.574	n/a	3	62	ISIslide	Loss	False
596.709	0.25	Lose2	0.625	0.0	Yes	2.641	0.009	n/a	GoodResponse	0	n/a	n/a	3	63	Cue	AvoidedLoss	True
596.959	4.05	Lose2	0.625	0.0	Yes	2.641	0.0	n/a	GoodResponse	0	n/a	n/a	3	63	Fixation	AvoidedLoss	True
601.008	0.4	Lose2	0.625	0.001	Yes	2.641	-0.001	4.0	GoodResponse	0	0.301	600.309	3	63	Target	AvoidedLoss	True
601.309	0.3	Lose2	0.625	0.001	Yes	2.641	-0.001	4.0	GoodResponse	0	0.301	n/a	3	63	ButtonPress	AvoidedLoss	True
601.408	0.3	Lose2	0.625	n/a	Yes	2.641	n/a	n/a	GoodResponse	0	n/a	n/a	3	63	Blank	AvoidedLoss	True
601.707	1.45	Lose2	0.625	n/a	Yes	2.641	n/a	5.0	GoodResponse	0	0.021	600.728	3	63	Feedback	AvoidedLoss	True
603.157	2.641	Lose2	0.625	n/a	Yes	2.641	n/a	n/a	GoodResponse	0	0.0	n/a	3	63	ISIslide	AvoidedLoss	True
605.823	0.25	Win2	0.6308	0.0	Yes	3.127	0.023	n/a	GoodResponse	1	n/a	n/a	4	64	Cue	Win	True
606.073	4.15	Win2	0.6308	0.0	Yes	3.127	0.0	n/a	GoodResponse	1	n/a	n/a	4	64	Fixation	Win	True
610.221	0.41	Win2	0.6308	0.002	Yes	3.127	-0.002	4.0	GoodResponse	1	0.241	609.462	4	64	Target	Win	True
610.462	0.3	Win2	0.6308	0.002	Yes	3.127	-0.002	4.0	GoodResponse	1	0.241	n/a	4	64	ButtonPress	Win	True
610.638	0.29	Win2	0.6308	n/a	Yes	3.127	n/a	n/a	GoodResponse	1	n/a	n/a	4	64	Blank	Win	True
610.921	1.45	Win2	0.6308	n/a	Yes	3.127	n/a	5.0	GoodResponse	1	0.027	609.948	4	64	Feedback	Win	True
612.37	3.127	Win2	0.6308	n/a	Yes	3.127	n/a	n/a	GoodResponse	1	0.0	n/a	4	64	ISIslide	Win	True
615.519	0.25	Control	0.6364	0.0	Yes	2.781	0.019	n/a	GoodResponse	0	n/a	n/a	4	65	Cue	Neutral	True
615.769	4.0	Control	0.6364	0.0	Yes	2.781	0.0	n/a	GoodResponse	0	n/a	n/a	4	65	Fixation	Neutral	True
619.768	0.42	Control	0.6364	0.001	Yes	2.781	-0.001	4.0	GoodResponse	0	0.236	619.004	4	65	Target	Neutral	True
620.004	0.3	Control	0.6364	0.001	Yes	2.781	-0.001	4.0	GoodResponse	0	0.236	n/a	4	65	ButtonPress	Neutral	True
620.184	0.28	Control	0.6364	n/a	Yes	2.781	n/a	n/a	GoodResponse	0	n/a	n/a	4	65	Blank	Neutral	True
620.468	1.45	Control	0.6364	n/a	Yes	2.781	n/a	5.0	GoodResponse	0	0.041	619.509	4	65	Feedback	Neutral	True
621.917	2.781	Control	0.6364	n/a	Yes	2.781	n/a	n/a	GoodResponse	0	0.0	n/a	4	65	ISIslide	Neutral	True
624.716	0.25	Win2	0.6418	0.0	Yes	2.784	0.016	n/a	GoodResponse	1	n/a	n/a	5	66	Cue	Win	True
624.966	3.9	Win2	0.6418	0.0	Yes	2.784	0.0	n/a	GoodResponse	1	n/a	n/a	5	66	Fixation	Win	True
628.865	0.43	Win2	0.6418	0.001	Yes	2.784	-0.001	4.0	GoodResponse	1	0.34	628.205	5	66	Target	Win	True
629.205	0.3	Win2	0.6418	0.001	Yes	2.784	-0.001	4.0	GoodResponse	1	0.34	n/a	5	66	ButtonPress	Win	True
629.298	0.27	Win2	0.6418	n/a	Yes	2.784	n/a	n/a	GoodResponse	1	n/a	n/a	5	66	Blank	Win	True
629.564	1.45	Win2	0.6418	n/a	Yes	2.784	n/a	5.0	GoodResponse	1	0.018	628.582	5	66	Feedback	Win	True
631.014	2.784	Win2	0.6418	n/a	Yes	2.784	n/a	n/a	GoodResponse	1	0.0	n/a	5	66	ISIslide	Win	True
633.813	0.25	Control	0.6470999999999999	0.0	Yes	2.737	0.013	n/a	GoodResponse	0	n/a	n/a	5	67	Cue	Neutral	True
634.063	3.95	Control	0.6470999999999999	0.0	Yes	2.737	0.0	n/a	GoodResponse	0	n/a	n/a	5	67	Fixation	Neutral	True
638.012	0.44	Control	0.6470999999999999	0.001	Yes	2.737	-0.001	4.0	GoodResponse	0	0.289	637.301	5	67	Target	Neutral	True
638.301	0.3	Control	0.6470999999999999	0.001	Yes	2.737	-0.001	4.0	GoodResponse	0	0.289	n/a	5	67	ButtonPress	Neutral	True
638.461	0.26	Control	0.6470999999999999	n/a	Yes	2.737	n/a	n/a	GoodResponse	0	n/a	n/a	5	67	Blank	Neutral	True
638.711	1.45	Control	0.6470999999999999	n/a	Yes	2.737	n/a	5.0	GoodResponse	0	0.042	637.753	5	67	Feedback	Neutral	True
640.161	2.737	Control	0.6470999999999999	n/a	Yes	2.737	n/a	n/a	GoodResponse	0	0.0	n/a	5	67	ISIslide	Neutral	True
642.927	0.25	Win2	0.6377	0.0	No	3.073	0.027	n/a	NoResponse	0	n/a	n/a	5	68	Cue	MissedWin	False
643.176	4.0	Win2	0.6377	0.001	No	3.073	-0.001	n/a	NoResponse	0	n/a	n/a	5	68	Fixation	MissedWin	False
647.175	0.45	Win2	0.6377	0.002	No	3.073	-0.002	n/a	NoResponse	0	n/a	n/a	5	68	Target	MissedWin	False
647.625	0.25	Win2	0.6377	n/a	No	3.073	n/a	n/a	NoResponse	0	n/a	n/a	5	68	Blank	MissedWin	False
647.875	1.45	Win2	0.6377	n/a	No	3.073	n/a	5.0	NoResponse	0	0.049	646.924	5	68	Feedback	MissedWin	False
649.324	3.073	Win2	0.6377	n/a	No	3.073	n/a	4.0	NoResponse	0	0.262	n/a	5	68	ISIslide	MissedWin	False
652.407	0.25	Win2	0.6429	0.0	Yes	3.243	0.007	n/a	GoodResponse	1	n/a	n/a	6	69	Cue	Win	True
652.656	3.95	Win2	0.6429	0.001	Yes	3.243	-0.001	n/a	GoodResponse	1	n/a	n/a	6	69	Fixation	Win	True
656.605	0.46	Win2	0.6429	0.002	Yes	3.243	-0.002	4.0	GoodResponse	1	0.221	655.826	6	69	Target	Win	True
656.826	0.3	Win2	0.6429	0.002	Yes	3.243	-0.002	4.0	GoodResponse	1	0.221	n/a	6	69	ButtonPress	Win	True
657.072	0.24	Win2	0.6429	n/a	Yes	3.243	n/a	n/a	GoodResponse	1	n/a	n/a	6	69	Blank	Win	True
657.305	1.45	Win2	0.6429	n/a	Yes	3.243	n/a	5.0	GoodResponse	1	0.034	656.339	6	69	Feedback	Win	True
658.754	3.243	Win2	0.6429	n/a	Yes	3.243	n/a	n/a	GoodResponse	1	0.0	n/a	6	69	ISIslide	Win	True
662.02	0.25	Lose2	0.6479	0.0	Yes	3.03	0.02	n/a	GoodResponse	0	n/a	n/a	6	70	Cue	AvoidedLoss	True
662.27	4.05	Lose2	0.6479	0.0	Yes	3.03	0.0	n/a	GoodResponse	0	n/a	n/a	6	70	Fixation	AvoidedLoss	True
666.318	0.47	Lose2	0.6479	0.002	Yes	3.03	-0.002	4.0	GoodResponse	0	0.234	665.552	6	70	Target	AvoidedLoss	True
666.552	0.3	Lose2	0.6479	0.002	Yes	3.03	-0.002	4.0	GoodResponse	0	0.234	n/a	6	70	ButtonPress	AvoidedLoss	True
666.802	0.23	Lose2	0.6479	n/a	Yes	3.03	n/a	n/a	GoodResponse	0	n/a	n/a	6	70	Blank	AvoidedLoss	True
667.018	1.45	Lose2	0.6479	n/a	Yes	3.03	n/a	5.0	GoodResponse	0	0.027	666.045	6	70	Feedback	AvoidedLoss	True
668.468	3.03	Lose2	0.6479	n/a	Yes	3.03	n/a	n/a	GoodResponse	0	0.0	n/a	6	70	ISIslide	AvoidedLoss	True
671.517	0.25	Win2	0.6528	0.0	Yes	2.733	0.017	n/a	GoodResponse	1	n/a	n/a	7	71	Cue	Win	True
671.767	4.05	Win2	0.6528	0.0	Yes	2.733	0.0	n/a	GoodResponse	1	n/a	n/a	7	71	Fixation	Win	True
675.815	0.48	Win2	0.6528	0.002	Yes	2.733	-0.002	4.0	GoodResponse	1	0.191	675.006	7	71	Target	Win	True
676.006	0.3	Win2	0.6528	0.002	Yes	2.733	-0.002	4.0	GoodResponse	1	0.191	n/a	7	71	ButtonPress	Win	True
676.298	0.22	Win2	0.6528	n/a	Yes	2.733	n/a	n/a	GoodResponse	1	n/a	n/a	7	71	Blank	Win	True
676.515	1.45	Win2	0.6528	n/a	Yes	2.733	n/a	5.0	GoodResponse	1	0.042	675.557	7	71	Feedback	Win	True
677.964	2.733	Win2	0.6528	n/a	Yes	2.733	n/a	n/a	GoodResponse	1	0.0	n/a	7	71	ISIslide	Win	True
680.713	0.25	Win2	0.6575	0.001	Yes	2.787	0.013	n/a	GoodResponse	1	n/a	n/a	8	72	Cue	Win	True
680.963	4.1	Win2	0.6575	0.0	Yes	2.787	0.0	n/a	GoodResponse	1	n/a	n/a	8	72	Fixation	Win	True
685.062	0.49	Win2	0.6575	0.001	Yes	2.787	-0.001	4.0	GoodResponse	1	0.237	684.299	8	72	Target	Win	True
685.299	0.3	Win2	0.6575	0.001	Yes	2.787	-0.001	4.0	GoodResponse	1	0.237	n/a	8	72	ButtonPress	Win	True
685.562	0.21	Win2	0.6575	n/a	Yes	2.787	n/a	n/a	GoodResponse	1	n/a	n/a	8	72	Blank	Win	True
685.762	1.45	Win2	0.6575	n/a	Yes	2.787	n/a	5.0	GoodResponse	1	0.015	684.777	8	72	Feedback	Win	True
687.211	2.787	Win2	0.6575	n/a	Yes	2.787	n/a	n/a	GoodResponse	1	0.0	n/a	8	72	ISIslide	Win	True
690.027	0.25	Win2	0.6486	0.0	No	2.673	0.027	n/a	NoResponse	0	n/a	n/a	8	73	Cue	MissedWin	True
690.277	4.0	Win2	0.6486	0.0	No	2.673	0.0	n/a	NoResponse	0	n/a	n/a	8	73	Fixation	MissedWin	True
694.275	0.49	Win2	0.6486	0.002	No	2.673	-0.002	4.0	NoResponse	0	0.524	693.799	8	73	Target	MissedWin	True
694.775	0.21	Win2	0.6486	n/a	No	2.673	n/a	n/a	NoResponse	0	n/a	n/a	8	73	Blank	MissedWin	True
694.799	0.3	Win2	0.6486	0.002	No	2.673	-0.002	4.0	NoResponse	0	0.524	n/a	8	73	ButtonPress	MissedWin	True
694.975	1.45	Win2	0.6486	n/a	No	2.673	n/a	5.0	NoResponse	0	0.022	693.997	8	73	Feedback	MissedWin	True
696.425	2.673	Win2	0.6486	n/a	No	2.673	n/a	n/a	NoResponse	0	0.0	n/a	8	73	ISIslide	MissedWin	True
699.124	0.25	Lose2	0.6533	0.0	Yes	2.626	0.024	n/a	GoodResponse	0	n/a	n/a	8	74	Cue	AvoidedLoss	True
699.374	4.05	Lose2	0.6533	0.0	Yes	2.626	0.0	n/a	GoodResponse	0	n/a	n/a	8	74	Fixation	AvoidedLoss	True
703.422	0.5	Lose2	0.6533	0.002	Yes	2.626	-0.002	4.0	GoodResponse	0	0.204	702.626	8	74	Target	AvoidedLoss	True
703.626	0.3	Lose2	0.6533	0.002	Yes	2.626	-0.002	4.0	GoodResponse	0	0.204	n/a	8	74	ButtonPress	AvoidedLoss	True
703.922	0.2	Lose2	0.6533	n/a	Yes	2.626	n/a	n/a	GoodResponse	0	n/a	n/a	8	74	Blank	AvoidedLoss	True
704.122	1.45	Lose2	0.6533	n/a	Yes	2.626	n/a	5.0	GoodResponse	0	0.045	703.167	8	74	Feedback	AvoidedLoss	True
705.572	2.626	Lose2	0.6533	n/a	Yes	2.626	n/a	n/a	GoodResponse	0	0.0	n/a	8	74	ISIslide	AvoidedLoss	True
708.221	0.25	Lose2	0.6579	0.0	Yes	2.929	0.021	n/a	GoodResponse	0	n/a	n/a	8	75	Cue	AvoidedLoss	True
708.471	3.95	Lose2	0.6579	0.0	Yes	2.929	0.0	n/a	GoodResponse	0	n/a	n/a	8	75	Fixation	AvoidedLoss	True
712.419	0.5	Lose2	0.6579	0.002	Yes	2.929	-0.002	4.0	GoodResponse	0	0.172	711.591	8	75	Target	AvoidedLoss	True
712.591	0.3	Lose2	0.6579	0.002	Yes	2.929	-0.002	4.0	GoodResponse	0	0.172	n/a	8	75	ButtonPress	AvoidedLoss	True
712.919	0.2	Lose2	0.6579	n/a	Yes	2.929	n/a	n/a	GoodResponse	0	n/a	n/a	8	75	Blank	AvoidedLoss	True
713.119	1.45	Lose2	0.6579	n/a	Yes	2.929	n/a	5.0	GoodResponse	0	0.024	712.143	8	75	Feedback	AvoidedLoss	True
714.568	2.929	Lose2	0.6579	n/a	Yes	2.929	n/a	n/a	GoodResponse	0	0.0	n/a	8	75	ISIslide	AvoidedLoss	True
717.517	0.25	Control	0.6623	0.0	Yes	3.233	0.017	n/a	GoodResponse	0	n/a	n/a	8	76	Cue	Neutral	True
717.767	4.05	Control	0.6623	0.0	Yes	3.233	0.0	n/a	GoodResponse	0	n/a	n/a	8	76	Fixation	Neutral	True
721.816	0.5	Control	0.6623	0.001	Yes	3.233	-0.001	4.0	GoodResponse	0	0.216	721.032	8	76	Target	Neutral	True
722.032	0.3	Control	0.6623	0.001	Yes	3.233	-0.001	4.0	GoodResponse	0	0.216	n/a	8	76	ButtonPress	Neutral	True
722.316	0.2	Control	0.6623	n/a	Yes	3.233	n/a	n/a	GoodResponse	0	n/a	n/a	8	76	Blank	Neutral	True
722.516	1.45	Control	0.6623	n/a	Yes	3.233	n/a	5.0	GoodResponse	0	0.041	721.557	8	76	Feedback	Neutral	True
723.965	3.233	Control	0.6623	n/a	Yes	3.233	n/a	n/a	GoodResponse	0	0.0	n/a	8	76	ISIslide	Neutral	True
727.214	0.25	Lose2	0.6667000000000001	0.0	Yes	2.586	0.014	n/a	GoodResponse	0	n/a	n/a	8	77	Cue	AvoidedLoss	True
727.464	3.95	Lose2	0.6667000000000001	0.0	Yes	2.586	0.0	n/a	GoodResponse	0	n/a	n/a	8	77	Fixation	AvoidedLoss	True
731.413	0.5	Lose2	0.6667000000000001	0.001	Yes	2.586	-0.001	4.0	GoodResponse	0	0.198	730.611	8	77	Target	AvoidedLoss	True
731.611	0.3	Lose2	0.6667000000000001	0.001	Yes	2.586	-0.001	4.0	GoodResponse	0	0.198	n/a	8	77	ButtonPress	AvoidedLoss	True
731.912	0.2	Lose2	0.6667000000000001	n/a	Yes	2.586	n/a	n/a	GoodResponse	0	n/a	n/a	8	77	Blank	AvoidedLoss	True
732.112	1.45	Lose2	0.6667000000000001	n/a	Yes	2.586	n/a	5.0	GoodResponse	0	0.007	731.119	8	77	Feedback	AvoidedLoss	True
733.562	2.586	Lose2	0.6667000000000001	n/a	Yes	2.586	n/a	4.0	GoodResponse	0	1.48	n/a	8	77	ISIslide	AvoidedLoss	True
