onset	duration	cue_type	current_mean_accuracy	duration_error	is_hit	isi_adjusted	onset_delay	response	response_type	reward	rt	rt_time	total_reward	trial_number	trial_phase	trial_type	one_press
11.111	0.25	Control	1.0	0.0	Yes	2.939	0.011	n/a	GoodResponse	0	n/a	n/a	0	0	Cue	Neutral	True
11.361	3.85	Control	1.0	0.001	Yes	2.939	0.0	n/a	GoodResponse	0	n/a	n/a	0	0	Fixation	Neutral	True
15.223	0.4	Control	1.0	0.0	Yes	2.939	0.012	3.0	GoodResponse	0	0.211	14.434	0	0	Target	Neutral	True
15.434	0.3	Control	1.0	0.0	Yes	2.939	0.012	3.0	GoodResponse	0	0.211	n/a	0	0	ButtonPress	Neutral	True
15.608	0.3	Control	1.0	n/a	Yes	2.939	n/a	n/a	GoodResponse	0	n/a	n/a	0	0	Blank	Neutral	True
15.908	1.45	Control	1.0	n/a	Yes	2.939	n/a	5.0	GoodResponse	0	0.019	14.927	0	0	Feedback	Neutral	True
17.363	2.939	Control	1.0	n/a	Yes	2.939	n/a	n/a	GoodResponse	0	0.0	n/a	0	0	ISIslide	Neutral	True
20.322	0.25	Lose2	1.0	0.0	Yes	2.778	0.022	n/a	GoodResponse	0	n/a	n/a	0	1	Cue	AvoidedLoss	True
20.572	4.0	Lose2	1.0	0.001	Yes	2.778	0.0	n/a	GoodResponse	0	n/a	n/a	0	1	Fixation	AvoidedLoss	True
24.568	0.39	Lose2	1.0	0.004	Yes	2.778	-0.004	3.0	GoodResponse	0	0.194	23.762	0	1	Target	AvoidedLoss	True
24.762	0.3	Lose2	1.0	0.004	Yes	2.778	-0.004	3.0	GoodResponse	0	0.194	n/a	0	1	ButtonPress	AvoidedLoss	True
24.969	0.31	Lose2	1.0	n/a	Yes	2.778	n/a	n/a	GoodResponse	0	n/a	n/a	0	1	Blank	AvoidedLoss	True
25.27	1.45	Lose2	1.0	n/a	Yes	2.778	n/a	5.0	GoodResponse	0	0.023	24.293	0	1	Feedback	AvoidedLoss	True
26.724	2.778	Lose2	1.0	n/a	Yes	2.778	n/a	n/a	GoodResponse	0	0.0	n/a	0	1	ISIslide	AvoidedLoss	True
29.516	0.25	Control	1.0	0.0	Yes	2.584	0.016	n/a	GoodResponse	0	n/a	n/a	0	2	Cue	Neutral	True
29.767	4.1	Control	1.0	0.0	Yes	2.584	0.001	n/a	GoodResponse	0	n/a	n/a	0	2	Fixation	Neutral	True
33.862	0.38	Control	1.0	0.004	Yes	2.584	-0.004	3.0	GoodResponse	0	0.219	33.081	0	2	Target	Neutral	True
34.081	0.3	Control	1.0	0.004	Yes	2.584	-0.004	3.0	GoodResponse	0	0.219	n/a	0	2	ButtonPress	Neutral	True
34.247	0.32	Control	1.0	n/a	Yes	2.584	n/a	n/a	GoodResponse	0	n/a	n/a	0	2	Blank	Neutral	True
34.564	1.45	Control	1.0	n/a	Yes	2.584	n/a	5.0	GoodResponse	0	0.046	33.61	0	2	Feedback	Neutral	True
36.019	2.584	Control	1.0	n/a	Yes	2.584	n/a	n/a	GoodResponse	0	0.0	n/a	0	2	ISIslide	Neutral	True
38.627	0.25	Win2	1.0	0.0	Yes	2.823	0.027	n/a	GoodResponse	1	n/a	n/a	1	3	Cue	Win	True
38.877	3.95	Win2	1.0	0.0	Yes	2.823	0.0	n/a	GoodResponse	1	n/a	n/a	1	3	Fixation	Win	True
42.823	0.37	Win2	1.0	0.004	Yes	2.823	-0.004	3.0	GoodResponse	1	0.223	42.046	1	3	Target	Win	True
43.046	0.3	Win2	1.0	0.004	Yes	2.823	-0.004	3.0	GoodResponse	1	0.223	n/a	1	3	ButtonPress	Win	True
43.207	0.33	Win2	1.0	n/a	Yes	2.823	n/a	n/a	GoodResponse	1	n/a	n/a	1	3	Blank	Win	True
43.525	1.45	Win2	1.0	n/a	Yes	2.823	n/a	5.0	GoodResponse	1	0.012	42.537	1	3	Feedback	Win	True
44.979	2.823	Win2	1.0	n/a	Yes	2.823	n/a	n/a	GoodResponse	1	0.0	n/a	1	3	ISIslide	Win	True
47.821	0.25	Win2	1.0	0.0	Yes	3.279	0.021	n/a	GoodResponse	1	n/a	n/a	2	4	Cue	Win	True
48.072	4.0	Win2	1.0	0.0	Yes	3.279	0.001	n/a	GoodResponse	1	n/a	n/a	2	4	Fixation	Win	True
52.067	0.36	Win2	1.0	0.004	Yes	3.279	-0.004	3.0	GoodResponse	1	0.201	51.268	2	4	Target	Win	True
52.268	0.3	Win2	1.0	0.004	Yes	3.279	-0.004	3.0	GoodResponse	1	0.201	n/a	2	4	ButtonPress	Win	True
52.435	0.34	Win2	1.0	n/a	Yes	3.279	n/a	n/a	GoodResponse	1	n/a	n/a	2	4	Blank	Win	True
52.769	1.45	Win2	1.0	n/a	Yes	3.279	n/a	5.0	GoodResponse	1	0.035	51.804	2	4	Feedback	Win	True
54.223	3.279	Win2	1.0	n/a	Yes	3.279	n/a	n/a	GoodResponse	1	0.0	n/a	2	4	ISIslide	Win	True
57.517	0.25	Win2	1.0	0.0	Yes	2.783	0.017	n/a	GoodResponse	1	n/a	n/a	3	5	Cue	Win	True
57.767	4.0	Win2	1.0	0.0	Yes	2.783	0.0	n/a	GoodResponse	1	n/a	n/a	3	5	Fixation	Win	True
61.763	0.35	Win2	1.0	0.004	Yes	2.783	-0.004	3.0	GoodResponse	1	0.228	60.991	3	5	Target	Win	True
61.991	0.3	Win2	1.0	0.004	Yes	2.783	-0.004	3.0	GoodResponse	1	0.228	n/a	3	5	ButtonPress	Win	True
62.114	0.35	Win2	1.0	n/a	Yes	2.783	n/a	n/a	GoodResponse	1	n/a	n/a	3	5	Blank	Win	True
62.465	1.45	Win2	1.0	n/a	Yes	2.783	n/a	5.0	GoodResponse	1	0.047	61.512	3	5	Feedback	Win	True
63.919	2.783	Win2	1.0	n/a	Yes	2.783	n/a	n/a	GoodResponse	1	0.0	n/a	3	5	ISIslide	Win	True
66.728	0.25	Lose2	1.0	0.0	Yes	2.722	0.028	n/a	GoodResponse	0	n/a	n/a	3	6	Cue	AvoidedLoss	True
66.978	3.95	Lose2	1.0	0.0	Yes	2.722	0.0	n/a	GoodResponse	0	n/a	n/a	3	6	Fixation	AvoidedLoss	True
70.924	0.34	Lose2	1.0	0.004	Yes	2.722	-0.004	3.0	GoodResponse	0	0.207	70.131	3	6	Target	AvoidedLoss	True
71.131	0.3	Lose2	1.0	0.004	Yes	2.722	-0.004	3.0	GoodResponse	0	0.207	n/a	3	6	ButtonPress	AvoidedLoss	True
71.275	0.36	Lose2	1.0	n/a	Yes	2.722	n/a	n/a	GoodResponse	0	n/a	n/a	3	6	Blank	AvoidedLoss	True
71.626	1.45	Lose2	1.0	n/a	Yes	2.722	n/a	5.0	GoodResponse	0	0.008	70.634	3	6	Feedback	AvoidedLoss	True
73.08	2.722	Lose2	1.0	n/a	Yes	2.722	n/a	n/a	GoodResponse	0	0.0	n/a	3	6	ISIslide	AvoidedLoss	True
75.822	0.25	Lose2	1.0	0.0	Yes	4.028	0.022	n/a	GoodResponse	0	n/a	n/a	3	7	Cue	AvoidedLoss	True
76.072	4.05	Lose2	1.0	0.0	Yes	4.028	0.0	n/a	GoodResponse	0	n/a	n/a	3	7	Fixation	AvoidedLoss	True
80.118	0.33	Lose2	1.0	0.004	Yes	4.028	-0.004	3.0	GoodResponse	0	0.211	79.329	3	7	Target	AvoidedLoss	True
80.329	0.3	Lose2	1.0	0.004	Yes	4.028	-0.004	3.0	GoodResponse	0	0.211	n/a	3	7	ButtonPress	AvoidedLoss	True
80.452	0.37	Lose2	1.0	n/a	Yes	4.028	n/a	n/a	GoodResponse	0	n/a	n/a	3	7	Blank	AvoidedLoss	True
80.82	1.45	Lose2	1.0	n/a	Yes	4.028	n/a	5.0	GoodResponse	0	0.033	79.853	3	7	Feedback	AvoidedLoss	True
82.274	4.028	Lose2	1.0	n/a	Yes	4.028	n/a	n/a	GoodResponse	0	0.0	n/a	3	7	ISIslide	AvoidedLoss	True
86.32	0.25	Lose2	1.0	0.0	Yes	3.03	0.02	n/a	GoodResponse	0	n/a	n/a	3	8	Cue	AvoidedLoss	True
86.57	3.95	Lose2	1.0	0.001	Yes	3.03	0.0	n/a	GoodResponse	0	n/a	n/a	3	8	Fixation	AvoidedLoss	True
90.516	0.32	Lose2	1.0	0.004	Yes	3.03	-0.004	3.0	GoodResponse	0	0.185	89.701	3	8	Target	AvoidedLoss	True
90.701	0.3	Lose2	1.0	0.004	Yes	3.03	-0.004	3.0	GoodResponse	0	0.185	n/a	3	8	ButtonPress	AvoidedLoss	True
90.85	0.38	Lose2	1.0	n/a	Yes	3.03	n/a	n/a	GoodResponse	0	n/a	n/a	3	8	Blank	AvoidedLoss	True
91.218	1.45	Lose2	1.0	n/a	Yes	3.03	n/a	5.0	GoodResponse	0	0.026	90.244	3	8	Feedback	AvoidedLoss	True
92.672	3.03	Lose2	1.0	n/a	Yes	3.03	n/a	n/a	GoodResponse	0	0.0	n/a	3	8	ISIslide	AvoidedLoss	True
95.715	0.25	Lose2	1.0	0.0	Yes	3.135	0.015	n/a	GoodResponse	0	n/a	n/a	3	9	Cue	AvoidedLoss	True
95.965	3.95	Lose2	1.0	0.0	Yes	3.135	0.0	n/a	GoodResponse	0	n/a	n/a	3	9	Fixation	AvoidedLoss	True
99.927	0.31	Lose2	1.0	0.0	Yes	3.135	0.012	3.0	GoodResponse	0	0.205	99.132	3	9	Target	AvoidedLoss	True
100.132	0.3	Lose2	1.0	0.0	Yes	3.135	0.012	3.0	GoodResponse	0	0.205	n/a	3	9	ButtonPress	AvoidedLoss	True
100.228	0.39	Lose2	1.0	n/a	Yes	3.135	n/a	n/a	GoodResponse	0	n/a	n/a	3	9	Blank	AvoidedLoss	True
100.613	1.45	Lose2	1.0	n/a	Yes	3.135	n/a	5.0	GoodResponse	0	0.045	99.658	3	9	Feedback	AvoidedLoss	True
102.067	3.135	Lose2	1.0	n/a	Yes	3.135	n/a	n/a	GoodResponse	0	0.0	n/a	3	9	ISIslide	AvoidedLoss	True
105.226	0.25	Control	1.0	0.0	Yes	3.274	0.026	n/a	GoodResponse	0	n/a	n/a	3	10	Cue	Neutral	True
105.477	4.0	Control	1.0	0.0	Yes	3.274	0.001	n/a	GoodResponse	0	n/a	n/a	3	10	Fixation	Neutral	True
109.472	0.3	Control	1.0	0.004	Yes	3.274	-0.004	3.0	GoodResponse	0	0.255	108.727	3	10	Target	Neutral	True
109.727	0.3	Control	1.0	0.004	Yes	3.274	-0.004	3.0	GoodResponse	0	0.255	n/a	3	10	ButtonPress	Neutral	True
109.773	0.4	Control	1.0	n/a	Yes	3.274	n/a	n/a	GoodResponse	0	n/a	n/a	3	10	Blank	Neutral	True
110.175	1.45	Control	1.0	n/a	Yes	3.274	n/a	5.0	GoodResponse	0	0.045	109.22	3	10	Feedback	Neutral	True
111.629	3.274	Control	1.0	n/a	Yes	3.274	n/a	3.0	GoodResponse	0	0.228	n/a	3	10	ISIslide	Neutral	True
114.905	0.25	Lose2	0.9167000000000001	0.001	No	2.745	0.005	n/a	PrematurePress	-1	n/a	n/a	2	11	Cue	Loss	True
115.156	4.05	Lose2	0.9167000000000001	0.0	No	2.745	0.001	n/a	PrematurePress	-1	n/a	n/a	2	11	Fixation	Loss	True
119.202	0.29	Lose2	0.9167000000000001	0.003	No	2.745	-0.003	3.0	PrematurePress	-1	0.063	118.265	2	11	Target	Loss	True
119.265	0.3	Lose2	0.9167000000000001	0.003	No	2.745	-0.003	3.0	PrematurePress	-1	0.063	n/a	2	11	ButtonPress	Loss	True
119.503	0.41	Lose2	0.9167000000000001	n/a	No	2.745	n/a	n/a	PrematurePress	-1	n/a	n/a	2	11	Blank	Loss	True
119.904	1.45	Lose2	0.9167000000000001	n/a	No	2.745	n/a	5.0	PrematurePress	-1	0.022	118.926	2	11	Feedback	Loss	True
121.358	2.745	Lose2	0.9167000000000001	n/a	No	2.745	n/a	n/a	PrematurePress	-1	0.0	n/a	2	11	ISIslide	Loss	True
124.116	0.25	Control	0.9231	0.0	Yes	2.984	0.016	n/a	GoodResponse	0	n/a	n/a	2	12	Cue	Neutral	True
124.367	3.9	Control	0.9231	0.0	Yes	2.984	0.001	n/a	GoodResponse	0	n/a	n/a	2	12	Fixation	Neutral	True
128.262	0.28	Control	0.9231	0.004	Yes	2.984	-0.004	3.0	GoodResponse	0	0.185	127.447	2	12	Target	Neutral	True
128.447	0.3	Control	0.9231	0.004	Yes	2.984	-0.004	3.0	GoodResponse	0	0.185	n/a	2	12	ButtonPress	Neutral	True
128.546	0.42	Control	0.9231	n/a	Yes	2.984	n/a	n/a	GoodResponse	0	n/a	n/a	2	12	Blank	Neutral	True
128.964	1.45	Control	0.9231	n/a	Yes	2.984	n/a	5.0	GoodResponse	0	0.035	127.999	2	12	Feedback	Neutral	True
130.419	2.984	Control	0.9231	n/a	Yes	2.984	n/a	n/a	GoodResponse	0	0.0	n/a	2	12	ISIslide	Neutral	True
133.428	0.25	Control	0.9286	0.0	Yes	2.772	0.028	n/a	GoodResponse	0	n/a	n/a	2	13	Cue	Neutral	True
133.678	4.0	Control	0.9286	0.0	Yes	2.772	0.0	n/a	GoodResponse	0	n/a	n/a	2	13	Fixation	Neutral	True
137.674	0.27	Control	0.9286	0.004	Yes	2.772	-0.004	3.0	GoodResponse	0	0.171	136.845	2	13	Target	Neutral	True
137.845	0.3	Control	0.9286	0.004	Yes	2.772	-0.004	3.0	GoodResponse	0	0.171	n/a	2	13	ButtonPress	Neutral	True
137.958	0.43	Control	0.9286	n/a	Yes	2.772	n/a	n/a	GoodResponse	0	n/a	n/a	2	13	Blank	Neutral	True
138.376	1.45	Control	0.9286	n/a	Yes	2.772	n/a	5.0	GoodResponse	0	0.038	137.414	2	13	Feedback	Neutral	True
139.83	2.772	Control	0.9286	n/a	Yes	2.772	n/a	n/a	GoodResponse	0	0.0	n/a	2	13	ISIslide	Neutral	True
142.622	0.25	Win2	0.9333	0.0	Yes	2.678	0.022	n/a	GoodResponse	1	n/a	n/a	3	14	Cue	Win	False
142.873	4.1	Win2	0.9333	0.0	Yes	2.678	0.001	3.0	GoodResponse	1	3.154	145.027	3	14	Fixation	Win	False
146.027	0.3	Win2	0.9333	0.0	Yes	2.678	0.001	3.0	GoodResponse	1	3.154	n/a	3	14	ButtonPress	Win	False
146.968	0.26	Win2	0.9333	0.004	Yes	2.678	-0.004	3.0	GoodResponse	1	0.117	146.085	3	14	Target	Win	False
147.085	0.3	Win2	0.9333	0.004	Yes	2.678	-0.004	3.0	GoodResponse	1	0.117	n/a	3	14	ButtonPress	Win	False
147.236	0.44	Win2	0.9333	n/a	Yes	2.678	n/a	n/a	GoodResponse	1	n/a	n/a	3	14	Blank	Win	False
147.67	1.45	Win2	0.9333	n/a	Yes	2.678	n/a	5.0	GoodResponse	1	0.012	146.682	3	14	Feedback	Win	False
149.125	2.678	Win2	0.9333	n/a	Yes	2.678	n/a	n/a	GoodResponse	1	0.0	n/a	3	14	ISIslide	Win	False
151.816	0.25	Control	0.9375	0.0	Yes	2.984	0.016	n/a	GoodResponse	0	n/a	n/a	3	15	Cue	Neutral	True
152.067	4.0	Control	0.9375	0.0	Yes	2.984	0.001	n/a	GoodResponse	0	n/a	n/a	3	15	Fixation	Neutral	True
156.062	0.25	Control	0.9375	0.004	Yes	2.984	-0.004	3.0	GoodResponse	0	0.227	155.289	3	15	Target	Neutral	True
156.289	0.3	Control	0.9375	0.004	Yes	2.984	-0.004	3.0	GoodResponse	0	0.227	n/a	3	15	ButtonPress	Neutral	True
156.313	0.45	Control	0.9375	n/a	Yes	2.984	n/a	n/a	GoodResponse	0	n/a	n/a	3	15	Blank	Neutral	True
156.764	1.45	Control	0.9375	n/a	Yes	2.984	n/a	5.0	GoodResponse	0	0.04	155.804	3	15	Feedback	Neutral	True
158.219	2.984	Control	0.9375	n/a	Yes	2.984	n/a	n/a	GoodResponse	0	0.0	n/a	3	15	ISIslide	Neutral	True
161.228	0.25	Win2	0.9412	0.0	Yes	2.872	0.028	n/a	GoodResponse	1	n/a	n/a	4	16	Cue	Win	True
161.478	4.0	Win2	0.9412	0.001	Yes	2.872	0.0	n/a	GoodResponse	1	n/a	n/a	4	16	Fixation	Win	True
165.474	0.24	Win2	0.9412	0.004	Yes	2.872	-0.004	3.0	GoodResponse	1	0.195	164.669	4	16	Target	Win	True
165.669	0.3	Win2	0.9412	0.004	Yes	2.872	-0.004	3.0	GoodResponse	1	0.195	n/a	4	16	ButtonPress	Win	True
165.725	0.46	Win2	0.9412	n/a	Yes	2.872	n/a	n/a	GoodResponse	1	n/a	n/a	4	16	Blank	Win	True
166.176	1.45	Win2	0.9412	n/a	Yes	2.872	n/a	5.0	GoodResponse	1	0.043	165.219	4	16	Feedback	Win	True
167.63	2.872	Win2	0.9412	n/a	Yes	2.872	n/a	n/a	GoodResponse	1	0.0	n/a	4	16	ISIslide	Win	True
170.522	0.25	Lose2	0.9444	0.0	Yes	2.728	0.022	n/a	GoodResponse	0	n/a	n/a	4	17	Cue	AvoidedLoss	True
170.773	3.95	Lose2	0.9444	0.0	Yes	2.728	0.001	n/a	GoodResponse	0	n/a	n/a	4	17	Fixation	AvoidedLoss	True
174.718	0.23	Lose2	0.9444	0.004	Yes	2.728	-0.004	3.0	GoodResponse	0	0.203	173.921	4	17	Target	AvoidedLoss	True
174.921	0.3	Lose2	0.9444	0.004	Yes	2.728	-0.004	3.0	GoodResponse	0	0.203	n/a	4	17	ButtonPress	AvoidedLoss	True
174.952	0.47	Lose2	0.9444	n/a	Yes	2.728	n/a	n/a	GoodResponse	0	n/a	n/a	4	17	Blank	AvoidedLoss	True
175.42	1.45	Lose2	0.9444	n/a	Yes	2.728	n/a	5.0	GoodResponse	0	0.019	174.439	4	17	Feedback	AvoidedLoss	True
176.875	2.728	Lose2	0.9444	n/a	Yes	2.728	n/a	n/a	GoodResponse	0	0.0	n/a	4	17	ISIslide	AvoidedLoss	True
179.616	0.25	Lose2	0.9473999999999999	0.0	Yes	2.734	0.016	n/a	GoodResponse	0	n/a	n/a	4	18	Cue	AvoidedLoss	True
179.867	4.05	Lose2	0.9473999999999999	0.0	Yes	2.734	0.001	n/a	GoodResponse	0	n/a	n/a	4	18	Fixation	AvoidedLoss	True
183.912	0.22	Lose2	0.9473999999999999	0.004	Yes	2.734	-0.004	3.0	GoodResponse	0	0.171	183.083	4	18	Target	AvoidedLoss	True
184.083	0.3	Lose2	0.9473999999999999	0.004	Yes	2.734	-0.004	3.0	GoodResponse	0	0.171	n/a	4	18	ButtonPress	AvoidedLoss	True
184.146	0.48	Lose2	0.9473999999999999	n/a	Yes	2.734	n/a	n/a	GoodResponse	0	n/a	n/a	4	18	Blank	AvoidedLoss	True
184.615	1.45	Lose2	0.9473999999999999	n/a	Yes	2.734	n/a	5.0	GoodResponse	0	0.043	183.658	4	18	Feedback	AvoidedLoss	True
186.069	2.734	Lose2	0.9473999999999999	n/a	Yes	2.734	n/a	n/a	GoodResponse	0	0.0	n/a	4	18	ISIslide	AvoidedLoss	True
188.827	0.25	Control	0.9	0.0	No	2.923	0.027	n/a	NoResponse	0	n/a	n/a	4	19	Cue	Neutral	True
189.078	3.95	Control	0.9	0.0	No	2.923	0.001	n/a	NoResponse	0	n/a	n/a	4	19	Fixation	Neutral	True
193.023	0.21	Control	0.9	0.004	No	2.923	-0.004	3.0	NoResponse	0	0.237	192.26	4	19	Target	Neutral	True
193.24	0.49	Control	0.9	n/a	No	2.923	n/a	n/a	NoResponse	0	n/a	n/a	4	19	Blank	Neutral	True
193.26	0.3	Control	0.9	0.004	No	2.923	-0.004	3.0	NoResponse	0	0.237	n/a	4	19	ButtonPress	Neutral	True
193.725	1.45	Control	0.9	n/a	No	2.923	n/a	5.0	NoResponse	0	0.007	192.732	4	19	Feedback	Neutral	True
195.18	2.923	Control	0.9	n/a	No	2.923	n/a	n/a	NoResponse	0	0.0	n/a	4	19	ISIslide	Neutral	True
198.122	0.25	Control	0.8571	0.0	No	2.628	0.022	n/a	NoResponse	0	n/a	n/a	4	20	Cue	Neutral	False
198.372	4.05	Control	0.8571	0.001	No	2.628	0.0	n/a	NoResponse	0	n/a	n/a	4	20	Fixation	Neutral	False
202.418	0.2	Control	0.8571	0.004	No	2.628	-0.004	n/a	NoResponse	0	n/a	n/a	4	20	Target	Neutral	False
202.619	0.5	Control	0.8571	n/a	No	2.628	n/a	n/a	NoResponse	0	n/a	n/a	4	20	Blank	Neutral	False
203.12	1.45	Control	0.8571	n/a	No	2.628	n/a	5.0	NoResponse	0	0.025	202.145	4	20	Feedback	Neutral	False
204.574	2.628	Control	0.8571	n/a	No	2.628	n/a	n/a	NoResponse	0	0.0	n/a	4	20	ISIslide	Neutral	False
207.216	0.25	Control	0.8636	0.0	Yes	2.784	0.016	n/a	GoodResponse	0	n/a	n/a	4	21	Cue	Neutral	True
207.466	4.1	Control	0.8636	0.001	Yes	2.784	0.0	n/a	GoodResponse	0	n/a	n/a	4	21	Fixation	Neutral	True
211.562	0.19	Control	0.8636	0.004	Yes	2.784	-0.004	3.0	GoodResponse	0	0.172	210.734	4	21	Target	Neutral	True
211.734	0.3	Control	0.8636	0.004	Yes	2.784	-0.004	3.0	GoodResponse	0	0.172	n/a	4	21	ButtonPress	Neutral	True
211.763	0.51	Control	0.8636	n/a	Yes	2.784	n/a	n/a	GoodResponse	0	n/a	n/a	4	21	Blank	Neutral	True
212.264	1.45	Control	0.8636	n/a	Yes	2.784	n/a	5.0	GoodResponse	0	0.004	211.268	4	21	Feedback	Neutral	True
213.719	2.784	Control	0.8636	n/a	Yes	2.784	n/a	n/a	GoodResponse	0	0.0	n/a	4	21	ISIslide	Neutral	True
216.527	0.25	Control	0.8261	0.0	No	2.773	0.027	n/a	NoResponse	0	n/a	n/a	4	22	Cue	Neutral	True
216.778	4.0	Control	0.8261	0.0	No	2.773	0.001	n/a	NoResponse	0	n/a	n/a	4	22	Fixation	Neutral	True
220.773	0.18	Control	0.8261	0.004	No	2.773	-0.004	3.0	NoResponse	0	0.204	219.977	4	22	Target	Neutral	True
220.957	0.52	Control	0.8261	n/a	No	2.773	n/a	n/a	NoResponse	0	n/a	n/a	4	22	Blank	Neutral	True
220.977	0.3	Control	0.8261	0.004	No	2.773	-0.004	3.0	NoResponse	0	0.204	n/a	4	22	ButtonPress	Neutral	True
221.475	1.45	Control	0.8261	n/a	No	2.773	n/a	5.0	NoResponse	0	0.012	220.487	4	22	Feedback	Neutral	True
222.929	2.773	Control	0.8261	n/a	No	2.773	n/a	n/a	NoResponse	0	0.0	n/a	4	22	ISIslide	Neutral	True
225.721	0.25	Control	0.7917000000000001	0.0	No	2.779	0.021	n/a	NoResponse	0	n/a	n/a	4	23	Cue	Neutral	True
225.972	3.9	Control	0.7917000000000001	0.0	No	2.779	0.001	n/a	NoResponse	0	n/a	n/a	4	23	Fixation	Neutral	True
229.867	0.17	Control	0.7917000000000001	0.004	No	2.779	-0.004	3.0	NoResponse	0	0.2	229.067	4	23	Target	Neutral	True
230.051	0.53	Control	0.7917000000000001	n/a	No	2.779	n/a	n/a	NoResponse	0	n/a	n/a	4	23	Blank	Neutral	True
230.067	0.3	Control	0.7917000000000001	0.004	No	2.779	-0.004	3.0	NoResponse	0	0.2	n/a	4	23	ButtonPress	Neutral	True
230.569	1.45	Control	0.7917000000000001	n/a	No	2.779	n/a	5.0	NoResponse	0	0.04	229.609	4	23	Feedback	Neutral	True
232.023	2.779	Control	0.7917000000000001	n/a	No	2.779	n/a	n/a	NoResponse	0	0.0	n/a	4	23	ISIslide	Neutral	True
234.815	0.25	Win2	0.76	0.0	No	3.135	0.015	n/a	NoResponse	0	n/a	n/a	4	24	Cue	MissedWin	True
235.066	3.95	Win2	0.76	0.0	No	3.135	0.001	n/a	NoResponse	0	n/a	n/a	4	24	Fixation	MissedWin	True
239.011	0.16	Win2	0.76	0.004	No	3.135	-0.004	3.0	NoResponse	0	0.189	238.2	4	24	Target	MissedWin	True
239.178	0.54	Win2	0.76	n/a	No	3.135	n/a	n/a	NoResponse	0	n/a	n/a	4	24	Blank	MissedWin	True
239.2	0.3	Win2	0.76	0.004	No	3.135	-0.004	3.0	NoResponse	0	0.189	n/a	4	24	ButtonPress	MissedWin	True
239.713	1.45	Win2	0.76	n/a	No	3.135	n/a	5.0	NoResponse	0	0.018	238.731	4	24	Feedback	MissedWin	True
241.168	3.135	Win2	0.76	n/a	No	3.135	n/a	n/a	NoResponse	0	0.0	n/a	4	24	ISIslide	MissedWin	True
244.327	0.25	Win2	0.7308	0.0	No	3.073	0.027	n/a	NoResponse	0	n/a	n/a	4	25	Cue	MissedWin	True
244.578	4.0	Win2	0.7308	0.0	No	3.073	0.001	n/a	NoResponse	0	n/a	n/a	4	25	Fixation	MissedWin	True
248.573	0.15	Win2	0.7308	0.004	No	3.073	-0.004	3.0	NoResponse	0	0.194	247.767	4	25	Target	MissedWin	True
248.724	0.55	Win2	0.7308	n/a	No	3.073	n/a	n/a	NoResponse	0	n/a	n/a	4	25	Blank	MissedWin	True
248.767	0.3	Win2	0.7308	0.004	No	3.073	-0.004	3.0	NoResponse	0	0.194	n/a	4	25	ButtonPress	MissedWin	True
249.275	1.45	Win2	0.7308	n/a	No	3.073	n/a	5.0	NoResponse	0	0.017	248.292	4	25	Feedback	MissedWin	True
250.73	3.073	Win2	0.7308	n/a	No	3.073	n/a	n/a	NoResponse	0	0.0	n/a	4	25	ISIslide	MissedWin	True
253.822	0.25	Win2	0.7037	0.0	No	2.928	0.022	n/a	NoResponse	0	n/a	n/a	4	26	Cue	MissedWin	True
254.073	3.95	Win2	0.7037	0.0	No	2.928	0.001	n/a	NoResponse	0	n/a	n/a	4	26	Fixation	MissedWin	True
258.018	0.15	Win2	0.7037	0.004	No	2.928	-0.004	3.0	NoResponse	0	0.191	257.209	4	26	Target	MissedWin	True
258.169	0.55	Win2	0.7037	n/a	No	2.928	n/a	n/a	NoResponse	0	n/a	n/a	4	26	Blank	MissedWin	True
258.209	0.3	Win2	0.7037	0.004	No	2.928	-0.004	3.0	NoResponse	0	0.191	n/a	4	26	ButtonPress	MissedWin	True
258.72	1.45	Win2	0.7037	n/a	No	2.928	n/a	5.0	NoResponse	0	0.036	257.756	4	26	Feedback	MissedWin	True
260.175	2.928	Win2	0.7037	n/a	No	2.928	n/a	n/a	NoResponse	0	0.0	n/a	4	26	ISIslide	MissedWin	True
263.117	0.25	Lose2	0.6786	0.0	No	2.833	0.017	n/a	NoResponse	-1	n/a	n/a	3	27	Cue	Loss	True
263.367	4.05	Lose2	0.6786	0.001	No	2.833	0.0	n/a	NoResponse	-1	n/a	n/a	3	27	Fixation	Loss	True
267.413	0.15	Lose2	0.6786	0.004	No	2.833	-0.004	3.0	NoResponse	-1	0.201	266.614	3	27	Target	Loss	True
267.563	0.55	Lose2	0.6786	n/a	No	2.833	n/a	n/a	NoResponse	-1	n/a	n/a	3	27	Blank	Loss	True
267.614	0.3	Lose2	0.6786	0.004	No	2.833	-0.004	3.0	NoResponse	-1	0.201	n/a	3	27	ButtonPress	Loss	True
268.115	1.45	Lose2	0.6786	n/a	No	2.833	n/a	5.0	NoResponse	-1	0.007	267.122	3	27	Feedback	Loss	True
269.569	2.833	Lose2	0.6786	n/a	No	2.833	n/a	n/a	NoResponse	-1	0.0	n/a	3	27	ISIslide	Loss	True
272.428	0.25	Control	0.6552	0.0	No	2.822	0.028	n/a	NoResponse	0	n/a	n/a	3	28	Cue	Neutral	True
272.679	4.05	Control	0.6552	0.0	No	2.822	0.001	n/a	NoResponse	0	n/a	n/a	3	28	Fixation	Neutral	True
276.724	0.15	Control	0.6552	0.004	No	2.822	-0.004	3.0	NoResponse	0	0.209	275.933	3	28	Target	Neutral	True
276.875	0.55	Control	0.6552	n/a	No	2.822	n/a	n/a	NoResponse	0	n/a	n/a	3	28	Blank	Neutral	True
276.933	0.3	Control	0.6552	0.004	No	2.822	-0.004	3.0	NoResponse	0	0.209	n/a	3	28	ButtonPress	Neutral	True
277.426	1.45	Control	0.6552	n/a	No	2.822	n/a	5.0	NoResponse	0	0.012	276.438	3	28	Feedback	Neutral	True
278.881	2.822	Control	0.6552	n/a	No	2.822	n/a	n/a	NoResponse	0	0.0	n/a	3	28	ISIslide	Neutral	True
281.723	0.25	Lose2	0.6333	0.0	No	2.827	0.023	n/a	NoResponse	-1	n/a	n/a	2	29	Cue	Loss	True
281.973	3.95	Lose2	0.6333	0.0	No	2.827	0.0	n/a	NoResponse	-1	n/a	n/a	2	29	Fixation	Loss	True
285.935	0.15	Lose2	0.6333	0.0	No	2.827	0.012	3.0	NoResponse	-1	0.214	285.149	2	29	Target	Loss	True
286.069	0.55	Lose2	0.6333	n/a	No	2.827	n/a	n/a	NoResponse	-1	n/a	n/a	2	29	Blank	Loss	True
286.149	0.3	Lose2	0.6333	0.0	No	2.827	0.012	3.0	NoResponse	-1	0.214	n/a	2	29	ButtonPress	Loss	True
286.621	1.45	Lose2	0.6333	n/a	No	2.827	n/a	5.0	NoResponse	-1	0.036	285.657	2	29	Feedback	Loss	True
288.075	2.827	Lose2	0.6333	n/a	No	2.827	n/a	n/a	NoResponse	-1	0.0	n/a	2	29	ISIslide	Loss	True
290.917	0.25	Win2	0.6129	0.0	No	2.783	0.017	n/a	NoResponse	0	n/a	n/a	2	30	Cue	MissedWin	True
291.168	3.9	Win2	0.6129	0.0	No	2.783	0.001	n/a	NoResponse	0	n/a	n/a	2	30	Fixation	MissedWin	True
295.063	0.16	Win2	0.6129	0.004	No	2.783	-0.004	3.0	NoResponse	0	0.253	294.316	2	30	Target	MissedWin	True
295.23	0.54	Win2	0.6129	n/a	No	2.783	n/a	n/a	NoResponse	0	n/a	n/a	2	30	Blank	MissedWin	True
295.316	0.3	Win2	0.6129	0.004	No	2.783	-0.004	3.0	NoResponse	0	0.253	n/a	2	30	ButtonPress	MissedWin	True
295.765	1.45	Win2	0.6129	n/a	No	2.783	n/a	5.0	NoResponse	0	0.015	294.78	2	30	Feedback	MissedWin	True
297.219	2.783	Win2	0.6129	n/a	No	2.783	n/a	n/a	NoResponse	0	0.0	n/a	2	30	ISIslide	MissedWin	True
300.027	0.25	Lose2	0.625	0.001	Yes	2.823	0.027	n/a	GoodResponse	0	n/a	n/a	2	31	Cue	AvoidedLoss	True
300.278	4.05	Lose2	0.625	0.0	Yes	2.823	0.001	n/a	GoodResponse	0	n/a	n/a	2	31	Fixation	AvoidedLoss	True
304.324	0.17	Lose2	0.625	0.003	Yes	2.823	-0.003	3.0	GoodResponse	0	0.144	303.468	2	31	Target	AvoidedLoss	True
304.468	0.3	Lose2	0.625	0.003	Yes	2.823	-0.003	3.0	GoodResponse	0	0.144	n/a	2	31	ButtonPress	AvoidedLoss	True
304.508	0.53	Lose2	0.625	n/a	Yes	2.823	n/a	n/a	GoodResponse	0	n/a	n/a	2	31	Blank	AvoidedLoss	True
305.026	1.45	Lose2	0.625	n/a	Yes	2.823	n/a	5.0	GoodResponse	0	0.022	304.048	2	31	Feedback	AvoidedLoss	True
306.48	2.823	Lose2	0.625	n/a	Yes	2.823	n/a	n/a	GoodResponse	0	0.0	n/a	2	31	ISIslide	AvoidedLoss	True
309.322	0.25	Lose2	0.6061	0.0	No	2.628	0.022	n/a	NoResponse	-1	n/a	n/a	1	32	Cue	Loss	True
309.573	4.15	Lose2	0.6061	0.0	No	2.628	0.001	3.0	NoResponse	-1	3.473	312.046	1	32	Fixation	Loss	True
313.046	0.3	Lose2	0.6061	0.0	No	2.628	0.001	3.0	NoResponse	-1	3.473	n/a	1	32	ButtonPress	Loss	True
313.719	0.18	Lose2	0.6061	0.003	No	2.628	-0.003	n/a	NoResponse	-1	n/a	n/a	1	32	Target	Loss	True
313.902	0.52	Lose2	0.6061	n/a	No	2.628	n/a	n/a	NoResponse	-1	n/a	n/a	1	32	Blank	Loss	True
314.421	1.45	Lose2	0.6061	n/a	No	2.628	n/a	5.0	NoResponse	-1	0.042	313.463	1	32	Feedback	Loss	True
315.875	2.628	Lose2	0.6061	n/a	No	2.628	n/a	n/a	NoResponse	-1	0.0	n/a	1	32	ISIslide	Loss	True
318.516	0.25	Win2	0.5882000000000001	0.0	No	2.684	0.016	n/a	NoResponse	0	n/a	n/a	1	33	Cue	MissedWin	True
318.767	4.0	Win2	0.5882000000000001	0.0	No	2.684	0.001	n/a	NoResponse	0	n/a	n/a	1	33	Fixation	MissedWin	True
322.762	0.19	Win2	0.5882000000000001	0.004	No	2.684	-0.004	3.0	NoResponse	0	0.231	321.993	1	33	Target	MissedWin	True
322.963	0.51	Win2	0.5882000000000001	n/a	No	2.684	n/a	n/a	NoResponse	0	n/a	n/a	1	33	Blank	MissedWin	True
322.993	0.3	Win2	0.5882000000000001	0.004	No	2.684	-0.004	3.0	NoResponse	0	0.231	n/a	1	33	ButtonPress	MissedWin	True
323.464	1.45	Win2	0.5882000000000001	n/a	No	2.684	n/a	5.0	NoResponse	0	0.023	322.487	1	33	Feedback	MissedWin	True
324.919	2.684	Win2	0.5882000000000001	n/a	No	2.684	n/a	n/a	NoResponse	0	0.0	n/a	1	33	ISIslide	MissedWin	True
327.627	0.25	Lose2	0.5714	0.0	No	2.623	0.027	n/a	NoResponse	-1	n/a	n/a	0	34	Cue	Loss	True
327.878	4.05	Lose2	0.5714	0.0	No	2.623	0.001	n/a	NoResponse	-1	n/a	n/a	0	34	Fixation	Loss	True
331.923	0.2	Lose2	0.5714	0.004	No	2.623	-0.004	3.0	NoResponse	-1	0.218	331.141	0	34	Target	Loss	True
332.124	0.5	Lose2	0.5714	n/a	No	2.623	n/a	n/a	NoResponse	-1	n/a	n/a	0	34	Blank	Loss	True
332.141	0.3	Lose2	0.5714	0.004	No	2.623	-0.004	3.0	NoResponse	-1	0.218	n/a	0	34	ButtonPress	Loss	True
332.625	1.45	Lose2	0.5714	n/a	No	2.623	n/a	5.0	NoResponse	-1	0.033	331.658	0	34	Feedback	Loss	True
334.08	2.623	Lose2	0.5714	n/a	No	2.623	n/a	n/a	NoResponse	-1	0.0	n/a	0	34	ISIslide	Loss	True
336.721	0.25	Lose2	0.5832999999999999	0.0	Yes	2.679	0.021	n/a	GoodResponse	0	n/a	n/a	0	35	Cue	AvoidedLoss	True
336.972	4.0	Lose2	0.5832999999999999	0.0	Yes	2.679	0.001	n/a	GoodResponse	0	n/a	n/a	0	35	Fixation	AvoidedLoss	True
340.967	0.21	Lose2	0.5832999999999999	0.004	Yes	2.679	-0.004	3.0	GoodResponse	0	0.191	340.158	0	35	Target	AvoidedLoss	True
341.158	0.3	Lose2	0.5832999999999999	0.004	Yes	2.679	-0.004	3.0	GoodResponse	0	0.191	n/a	0	35	ButtonPress	AvoidedLoss	True
341.184	0.49	Lose2	0.5832999999999999	n/a	Yes	2.679	n/a	n/a	GoodResponse	0	n/a	n/a	0	35	Blank	AvoidedLoss	True
341.669	1.45	Lose2	0.5832999999999999	n/a	Yes	2.679	n/a	5.0	GoodResponse	0	0.013	340.682	0	35	Feedback	AvoidedLoss	True
343.123	2.679	Lose2	0.5832999999999999	n/a	Yes	2.679	n/a	n/a	GoodResponse	0	0.0	n/a	0	35	ISIslide	AvoidedLoss	True
345.815	0.25	Control	0.5946	0.0	Yes	2.685	0.015	n/a	GoodResponse	0	n/a	n/a	0	36	Cue	Neutral	True
346.066	4.0	Control	0.5946	0.0	Yes	2.685	0.001	n/a	GoodResponse	0	n/a	n/a	0	36	Fixation	Neutral	True
350.061	0.22	Control	0.5946	0.004	Yes	2.685	-0.004	3.0	GoodResponse	0	0.179	349.24	0	36	Target	Neutral	True
350.24	0.3	Control	0.5946	0.004	Yes	2.685	-0.004	3.0	GoodResponse	0	0.179	n/a	0	36	ButtonPress	Neutral	True
350.295	0.48	Control	0.5946	n/a	Yes	2.685	n/a	n/a	GoodResponse	0	n/a	n/a	0	36	Blank	Neutral	True
350.763	1.45	Control	0.5946	n/a	Yes	2.685	n/a	5.0	GoodResponse	0	0.041	349.804	0	36	Feedback	Neutral	True
352.217	2.685	Control	0.5946	n/a	Yes	2.685	n/a	n/a	GoodResponse	0	0.0	n/a	0	36	ISIslide	Neutral	True
354.925	0.25	Win2	0.6053000000000001	0.001	Yes	2.875	0.025	n/a	GoodResponse	1	n/a	n/a	1	37	Cue	Win	True
355.176	4.0	Win2	0.6053000000000001	0.0	Yes	2.875	0.001	n/a	GoodResponse	1	n/a	n/a	1	37	Fixation	Win	True
359.172	0.23	Win2	0.6053000000000001	0.003	Yes	2.875	-0.003	3.0	GoodResponse	1	0.161	358.333	1	37	Target	Win	True
359.333	0.3	Win2	0.6053000000000001	0.003	Yes	2.875	-0.003	3.0	GoodResponse	1	0.161	n/a	1	37	ButtonPress	Win	True
359.406	0.47	Win2	0.6053000000000001	n/a	Yes	2.875	n/a	n/a	GoodResponse	1	n/a	n/a	1	37	Blank	Win	True
359.874	1.45	Win2	0.6053000000000001	n/a	Yes	2.875	n/a	5.0	GoodResponse	1	0.004	358.878	1	37	Feedback	Win	True
361.328	2.875	Win2	0.6053000000000001	n/a	Yes	2.875	n/a	n/a	GoodResponse	1	0.0	n/a	1	37	ISIslide	Win	True
364.22	0.25	Lose2	0.6154	0.0	Yes	2.83	0.02	n/a	GoodResponse	0	n/a	n/a	1	38	Cue	AvoidedLoss	True
364.471	3.95	Lose2	0.6154	0.0	Yes	2.83	0.001	n/a	GoodResponse	0	n/a	n/a	1	38	Fixation	AvoidedLoss	True
368.416	0.24	Lose2	0.6154	0.004	Yes	2.83	-0.004	3.0	GoodResponse	0	0.222	367.638	1	38	Target	AvoidedLoss	True
368.638	0.3	Lose2	0.6154	0.004	Yes	2.83	-0.004	3.0	GoodResponse	0	0.222	n/a	1	38	ButtonPress	AvoidedLoss	True
368.667	0.46	Lose2	0.6154	n/a	Yes	2.83	n/a	n/a	GoodResponse	0	n/a	n/a	1	38	Blank	AvoidedLoss	True
369.118	1.45	Lose2	0.6154	n/a	Yes	2.83	n/a	5.0	GoodResponse	0	0.027	368.145	1	38	Feedback	AvoidedLoss	True
370.572	2.83	Lose2	0.6154	n/a	Yes	2.83	n/a	n/a	GoodResponse	0	0.0	n/a	1	38	ISIslide	AvoidedLoss	True
373.414	0.25	Win2	0.625	0.0	Yes	2.986	0.014	n/a	GoodResponse	1	n/a	n/a	2	39	Cue	Win	True
373.665	4.1	Win2	0.625	0.0	Yes	2.986	0.001	n/a	GoodResponse	1	n/a	n/a	2	39	Fixation	Win	True
377.761	0.25	Win2	0.625	0.003	Yes	2.986	-0.003	3.0	GoodResponse	1	0.198	376.959	2	39	Target	Win	True
377.959	0.3	Win2	0.625	0.003	Yes	2.986	-0.003	3.0	GoodResponse	1	0.198	n/a	2	39	ButtonPress	Win	True
378.011	0.45	Win2	0.625	n/a	Yes	2.986	n/a	n/a	GoodResponse	1	n/a	n/a	2	39	Blank	Win	True
378.463	1.45	Win2	0.625	n/a	Yes	2.986	n/a	5.0	GoodResponse	1	0.048	377.511	2	39	Feedback	Win	True
379.917	2.986	Win2	0.625	n/a	Yes	2.986	n/a	n/a	GoodResponse	1	0.0	n/a	2	39	ISIslide	Win	True
382.926	0.25	Win2	0.6341	0.0	Yes	2.724	0.026	n/a	GoodResponse	1	n/a	n/a	3	40	Cue	Win	True
383.177	3.95	Win2	0.6341	0.0	Yes	2.724	0.001	n/a	GoodResponse	1	n/a	n/a	3	40	Fixation	Win	True
387.122	0.26	Win2	0.6341	0.004	Yes	2.724	-0.004	3.0	GoodResponse	1	0.23	386.352	3	40	Target	Win	True
387.352	0.3	Win2	0.6341	0.004	Yes	2.724	-0.004	3.0	GoodResponse	1	0.23	n/a	3	40	ButtonPress	Win	True
387.389	0.44	Win2	0.6341	n/a	Yes	2.724	n/a	n/a	GoodResponse	1	n/a	n/a	3	40	Blank	Win	True
387.824	1.45	Win2	0.6341	n/a	Yes	2.724	n/a	5.0	GoodResponse	1	0.004	386.828	3	40	Feedback	Win	True
389.278	2.724	Win2	0.6341	n/a	Yes	2.724	n/a	n/a	GoodResponse	1	0.0	n/a	3	40	ISIslide	Win	True
392.02	0.25	Win2	0.6429	0.0	Yes	2.78	0.02	n/a	GoodResponse	1	n/a	n/a	4	41	Cue	Win	True
392.271	3.9	Win2	0.6429	0.0	Yes	2.78	0.001	n/a	GoodResponse	1	n/a	n/a	4	41	Fixation	Win	True
396.166	0.27	Win2	0.6429	0.004	Yes	2.78	-0.004	3.0	GoodResponse	1	0.234	395.4	4	41	Target	Win	True
396.4	0.3	Win2	0.6429	0.004	Yes	2.78	-0.004	3.0	GoodResponse	1	0.234	n/a	4	41	ButtonPress	Win	True
396.45	0.43	Win2	0.6429	n/a	Yes	2.78	n/a	n/a	GoodResponse	1	n/a	n/a	4	41	Blank	Win	True
396.868	1.45	Win2	0.6429	n/a	Yes	2.78	n/a	5.0	GoodResponse	1	0.034	395.902	4	41	Feedback	Win	True
398.322	2.78	Win2	0.6429	n/a	Yes	2.78	n/a	n/a	GoodResponse	1	0.0	n/a	4	41	ISIslide	Win	True
401.114	0.25	Control	0.6512	0.0	Yes	2.936	0.014	n/a	GoodResponse	0	n/a	n/a	4	42	Cue	Neutral	True
401.365	3.85	Control	0.6512	0.0	Yes	2.936	0.001	n/a	GoodResponse	0	n/a	n/a	4	42	Fixation	Neutral	True
405.21	0.28	Control	0.6512	0.004	Yes	2.936	-0.004	3.0	GoodResponse	0	0.233	404.443	4	42	Target	Neutral	True
405.443	0.3	Control	0.6512	0.004	Yes	2.936	-0.004	3.0	GoodResponse	0	0.233	n/a	4	42	ButtonPress	Neutral	True
405.494	0.42	Control	0.6512	n/a	Yes	2.936	n/a	n/a	GoodResponse	0	n/a	n/a	4	42	Blank	Neutral	True
405.912	1.45	Control	0.6512	n/a	Yes	2.936	n/a	5.0	GoodResponse	0	0.014	404.926	4	42	Feedback	Neutral	True
407.366	2.936	Control	0.6512	n/a	Yes	2.936	n/a	n/a	GoodResponse	0	0.0	n/a	4	42	ISIslide	Neutral	True
410.325	0.25	Win2	0.6591	0.0	Yes	3.175	0.025	n/a	GoodResponse	1	n/a	n/a	5	43	Cue	Win	True
410.576	4.0	Win2	0.6591	0.0	Yes	3.175	0.001	n/a	GoodResponse	1	n/a	n/a	5	43	Fixation	Win	True
414.571	0.29	Win2	0.6591	0.004	Yes	3.175	-0.004	3.0	GoodResponse	1	0.186	413.757	5	43	Target	Win	True
414.757	0.3	Win2	0.6591	0.004	Yes	3.175	-0.004	3.0	GoodResponse	1	0.186	n/a	5	43	ButtonPress	Win	True
414.872	0.41	Win2	0.6591	n/a	Yes	3.175	n/a	n/a	GoodResponse	1	n/a	n/a	5	43	Blank	Win	True
415.273	1.45	Win2	0.6591	n/a	Yes	3.175	n/a	5.0	GoodResponse	1	0.019	414.292	5	43	Feedback	Win	True
416.728	3.175	Win2	0.6591	n/a	Yes	3.175	n/a	n/a	GoodResponse	1	0.0	n/a	5	43	ISIslide	Win	True
419.92	0.25	Win2	0.6667000000000001	0.0	Yes	2.98	0.02	n/a	GoodResponse	1	n/a	n/a	6	44	Cue	Win	True
420.171	4.0	Win2	0.6667000000000001	0.0	Yes	2.98	0.001	n/a	GoodResponse	1	n/a	n/a	6	44	Fixation	Win	True
424.166	0.29	Win2	0.6667000000000001	0.004	Yes	2.98	-0.004	3.0	GoodResponse	1	0.188	423.354	6	44	Target	Win	True
424.354	0.3	Win2	0.6667000000000001	0.004	Yes	2.98	-0.004	3.0	GoodResponse	1	0.188	n/a	6	44	ButtonPress	Win	True
424.467	0.41	Win2	0.6667000000000001	n/a	Yes	2.98	n/a	n/a	GoodResponse	1	n/a	n/a	6	44	Blank	Win	True
424.869	1.45	Win2	0.6667000000000001	n/a	Yes	2.98	n/a	5.0	GoodResponse	1	0.032	423.901	6	44	Feedback	Win	True
426.323	2.98	Win2	0.6667000000000001	n/a	Yes	2.98	n/a	n/a	GoodResponse	1	0.0	n/a	6	44	ISIslide	Win	True
429.315	0.25	Control	0.6739	0.0	Yes	2.885	0.015	n/a	GoodResponse	0	n/a	n/a	6	45	Cue	Neutral	True
429.566	4.1	Control	0.6739	0.0	Yes	2.885	0.001	n/a	GoodResponse	0	n/a	n/a	6	45	Fixation	Neutral	True
433.662	0.28	Control	0.6739	0.003	Yes	2.885	-0.003	3.0	GoodResponse	0	0.236	432.898	6	45	Target	Neutral	True
433.898	0.3	Control	0.6739	0.003	Yes	2.885	-0.003	3.0	GoodResponse	0	0.236	n/a	6	45	ButtonPress	Neutral	True
433.946	0.42	Control	0.6739	n/a	Yes	2.885	n/a	n/a	GoodResponse	0	n/a	n/a	6	45	Blank	Neutral	True
434.364	1.45	Control	0.6739	n/a	Yes	2.885	n/a	5.0	GoodResponse	0	0.0	433.364	6	45	Feedback	Neutral	True
435.818	2.885	Control	0.6739	n/a	Yes	2.885	n/a	n/a	GoodResponse	0	0.0	n/a	6	45	ISIslide	Neutral	True
438.727	0.25	Lose2	0.6809000000000001	0.0	Yes	3.373	0.027	n/a	GoodResponse	0	n/a	n/a	6	46	Cue	AvoidedLoss	True
438.978	4.0	Lose2	0.6809000000000001	0.0	Yes	3.373	0.001	n/a	GoodResponse	0	n/a	n/a	6	46	Fixation	AvoidedLoss	True
442.973	0.27	Lose2	0.6809000000000001	0.004	Yes	3.373	-0.004	3.0	GoodResponse	0	0.202	442.175	6	46	Target	AvoidedLoss	True
443.175	0.3	Lose2	0.6809000000000001	0.004	Yes	3.373	-0.004	3.0	GoodResponse	0	0.202	n/a	6	46	ButtonPress	AvoidedLoss	True
443.257	0.43	Lose2	0.6809000000000001	n/a	Yes	3.373	n/a	n/a	GoodResponse	0	n/a	n/a	6	46	Blank	AvoidedLoss	True
443.675	1.45	Lose2	0.6809000000000001	n/a	Yes	3.373	n/a	5.0	GoodResponse	0	0.007	442.682	6	46	Feedback	AvoidedLoss	True
445.129	3.373	Lose2	0.6809000000000001	n/a	Yes	3.373	n/a	n/a	GoodResponse	0	0.0	n/a	6	46	ISIslide	AvoidedLoss	True
448.523	0.25	Lose2	0.6875	0.0	Yes	2.677	0.023	n/a	GoodResponse	0	n/a	n/a	6	47	Cue	AvoidedLoss	True
448.774	4.0	Lose2	0.6875	0.0	Yes	2.677	0.001	n/a	GoodResponse	0	n/a	n/a	6	47	Fixation	AvoidedLoss	True
452.769	0.26	Lose2	0.6875	0.004	Yes	2.677	-0.004	3.0	GoodResponse	0	0.237	452.006	6	47	Target	AvoidedLoss	True
453.006	0.3	Lose2	0.6875	0.004	Yes	2.677	-0.004	3.0	GoodResponse	0	0.237	n/a	6	47	ButtonPress	AvoidedLoss	True
453.036	0.44	Lose2	0.6875	n/a	Yes	2.677	n/a	n/a	GoodResponse	0	n/a	n/a	6	47	Blank	AvoidedLoss	True
453.471	1.45	Lose2	0.6875	n/a	Yes	2.677	n/a	5.0	GoodResponse	0	0.016	452.487	6	47	Feedback	AvoidedLoss	True
454.925	2.677	Lose2	0.6875	n/a	Yes	2.677	n/a	n/a	GoodResponse	0	0.0	n/a	6	47	ISIslide	AvoidedLoss	True
457.617	0.25	Lose2	0.6939	0.0	Yes	3.033	0.017	n/a	GoodResponse	0	n/a	n/a	6	48	Cue	AvoidedLoss	True
457.868	3.95	Lose2	0.6939	0.0	Yes	3.033	0.001	n/a	GoodResponse	0	n/a	n/a	6	48	Fixation	AvoidedLoss	True
461.813	0.25	Lose2	0.6939	0.004	Yes	3.033	-0.004	3.0	GoodResponse	0	0.177	460.99	6	48	Target	AvoidedLoss	True
461.99	0.3	Lose2	0.6939	0.004	Yes	3.033	-0.004	3.0	GoodResponse	0	0.177	n/a	6	48	ButtonPress	AvoidedLoss	True
462.064	0.45	Lose2	0.6939	n/a	Yes	3.033	n/a	n/a	GoodResponse	0	n/a	n/a	6	48	Blank	AvoidedLoss	True
462.515	1.45	Lose2	0.6939	n/a	Yes	3.033	n/a	5.0	GoodResponse	0	0.045	461.56	6	48	Feedback	AvoidedLoss	True
463.969	3.033	Lose2	0.6939	n/a	Yes	3.033	n/a	n/a	GoodResponse	0	0.0	n/a	6	48	ISIslide	AvoidedLoss	True
467.028	0.25	Control	0.68	0.0	No	2.872	0.028	n/a	NoResponse	0	n/a	n/a	6	49	Cue	Neutral	True
467.279	4.0	Control	0.68	0.0	No	2.872	0.001	n/a	NoResponse	0	n/a	n/a	6	49	Fixation	Neutral	True
471.274	0.24	Control	0.68	0.004	No	2.872	-0.004	3.0	NoResponse	0	0.28	470.554	6	49	Target	Neutral	True
471.525	0.46	Control	0.68	n/a	No	2.872	n/a	n/a	NoResponse	0	n/a	n/a	6	49	Blank	Neutral	True
471.554	0.3	Control	0.68	0.004	No	2.872	-0.004	3.0	NoResponse	0	0.28	n/a	6	49	ButtonPress	Neutral	True
471.977	1.45	Control	0.68	n/a	No	2.872	n/a	5.0	NoResponse	0	0.046	471.023	6	49	Feedback	Neutral	True
473.431	2.872	Control	0.68	n/a	No	2.872	n/a	n/a	NoResponse	0	0.0	n/a	6	49	ISIslide	Neutral	True
476.323	0.25	Control	0.6862999999999999	0.0	Yes	2.777	0.023	n/a	GoodResponse	0	n/a	n/a	6	50	Cue	Neutral	True
476.574	4.0	Control	0.6862999999999999	0.0	Yes	2.777	0.001	n/a	GoodResponse	0	n/a	n/a	6	50	Fixation	Neutral	True
480.569	0.23	Control	0.6862999999999999	0.004	Yes	2.777	-0.004	3.0	GoodResponse	0	0.21	479.779	6	50	Target	Neutral	True
480.779	0.3	Control	0.6862999999999999	0.004	Yes	2.777	-0.004	3.0	GoodResponse	0	0.21	n/a	6	50	ButtonPress	Neutral	True
480.803	0.47	Control	0.6862999999999999	n/a	Yes	2.777	n/a	n/a	GoodResponse	0	n/a	n/a	6	50	Blank	Neutral	True
481.271	1.45	Control	0.6862999999999999	n/a	Yes	2.777	n/a	5.0	GoodResponse	0	0.021	480.292	6	50	Feedback	Neutral	True
482.725	2.777	Control	0.6862999999999999	n/a	Yes	2.777	n/a	n/a	GoodResponse	0	0.0	n/a	6	50	ISIslide	Neutral	True
485.517	0.25	Control	0.6731	0.0	No	2.733	0.017	n/a	NoResponse	0	n/a	n/a	6	51	Cue	Neutral	True
485.768	3.95	Control	0.6731	0.0	No	2.733	0.001	n/a	NoResponse	0	n/a	n/a	6	51	Fixation	Neutral	True
489.713	0.22	Control	0.6731	0.004	No	2.733	-0.004	3.0	NoResponse	0	0.254	488.967	6	51	Target	Neutral	True
489.947	0.48	Control	0.6731	n/a	No	2.733	n/a	n/a	NoResponse	0	n/a	n/a	6	51	Blank	Neutral	True
489.967	0.3	Control	0.6731	0.004	No	2.733	-0.004	3.0	NoResponse	0	0.254	n/a	6	51	ButtonPress	Neutral	True
490.415	1.45	Control	0.6731	n/a	No	2.733	n/a	5.0	NoResponse	0	0.048	489.463	6	51	Feedback	Neutral	True
491.87	2.733	Control	0.6731	n/a	No	2.733	n/a	n/a	NoResponse	0	0.0	n/a	6	51	ISIslide	Neutral	True
494.628	0.25	Control	0.6604000000000001	0.0	No	2.622	0.028	n/a	LatePress	0	n/a	n/a	6	52	Cue	Neutral	True
494.879	4.05	Control	0.6604000000000001	0.0	No	2.622	0.001	n/a	LatePress	0	n/a	n/a	6	52	Fixation	Neutral	True
498.924	0.21	Control	0.6604000000000001	0.004	No	2.622	-0.004	3.0	LatePress	0	0.212	498.136	6	52	Target	Neutral	True
499.136	0.3	Control	0.6604000000000001	0.004	No	2.622	-0.004	3.0	LatePress	0	0.212	n/a	6	52	ButtonPress	Neutral	True
499.141	0.49	Control	0.6604000000000001	n/a	No	2.622	n/a	n/a	LatePress	0	n/a	n/a	6	52	Blank	Neutral	True
499.626	1.45	Control	0.6604000000000001	n/a	No	2.622	n/a	5.0	LatePress	0	0.006	498.632	6	52	Feedback	Neutral	True
501.081	2.622	Control	0.6604000000000001	n/a	No	2.622	n/a	n/a	LatePress	0	0.0	n/a	6	52	ISIslide	Neutral	True
503.722	0.25	Win2	0.6481	0.0	No	2.928	0.022	n/a	NoResponse	0	n/a	n/a	6	53	Cue	MissedWin	True
503.973	4.05	Win2	0.6481	0.0	No	2.928	0.001	n/a	NoResponse	0	n/a	n/a	6	53	Fixation	MissedWin	True
508.018	0.21	Win2	0.6481	0.004	No	2.928	-0.004	3.0	NoResponse	0	0.224	507.242	6	53	Target	MissedWin	True
508.235	0.49	Win2	0.6481	n/a	No	2.928	n/a	n/a	NoResponse	0	n/a	n/a	6	53	Blank	MissedWin	True
508.242	0.3	Win2	0.6481	0.004	No	2.928	-0.004	3.0	NoResponse	0	0.224	n/a	6	53	ButtonPress	MissedWin	True
508.72	1.45	Win2	0.6481	n/a	No	2.928	n/a	5.0	NoResponse	0	0.034	507.754	6	53	Feedback	MissedWin	True
510.174	2.928	Win2	0.6481	n/a	No	2.928	n/a	n/a	NoResponse	0	0.0	n/a	6	53	ISIslide	MissedWin	True
513.117	0.25	Win2	0.6545000000000001	0.0	Yes	2.733	0.017	n/a	GoodResponse	1	n/a	n/a	7	54	Cue	Win	True
513.367	3.95	Win2	0.6545000000000001	0.0	Yes	2.733	0.0	n/a	GoodResponse	1	n/a	n/a	7	54	Fixation	Win	True
517.313	0.22	Win2	0.6545000000000001	0.004	Yes	2.733	-0.004	3.0	GoodResponse	1	0.208	516.521	7	54	Target	Win	True
517.521	0.3	Win2	0.6545000000000001	0.004	Yes	2.733	-0.004	3.0	GoodResponse	1	0.208	n/a	7	54	ButtonPress	Win	True
517.547	0.48	Win2	0.6545000000000001	n/a	Yes	2.733	n/a	n/a	GoodResponse	1	n/a	n/a	7	54	Blank	Win	True
518.015	1.45	Win2	0.6545000000000001	n/a	Yes	2.733	n/a	5.0	GoodResponse	1	0.008	517.023	7	54	Feedback	Win	True
519.469	2.733	Win2	0.6545000000000001	n/a	Yes	2.733	n/a	n/a	GoodResponse	1	0.0	n/a	7	54	ISIslide	Win	True
522.227	0.25	Control	0.6607	0.0	Yes	3.023	0.027	n/a	GoodResponse	0	n/a	n/a	7	55	Cue	Neutral	True
522.478	3.95	Control	0.6607	0.0	Yes	3.023	0.001	n/a	GoodResponse	0	n/a	n/a	7	55	Fixation	Neutral	True
526.423	0.23	Control	0.6607	0.004	Yes	3.023	-0.004	3.0	GoodResponse	0	0.185	525.608	7	55	Target	Neutral	True
526.608	0.3	Control	0.6607	0.004	Yes	3.023	-0.004	3.0	GoodResponse	0	0.185	n/a	7	55	ButtonPress	Neutral	True
526.657	0.47	Control	0.6607	n/a	Yes	3.023	n/a	n/a	GoodResponse	0	n/a	n/a	7	55	Blank	Neutral	True
527.125	1.45	Control	0.6607	n/a	Yes	3.023	n/a	5.0	GoodResponse	0	0.02	526.145	7	55	Feedback	Neutral	True
528.58	3.023	Control	0.6607	n/a	Yes	3.023	n/a	n/a	GoodResponse	0	0.0	n/a	7	55	ISIslide	Neutral	True
531.622	0.25	Control	0.6667000000000001	0.0	Yes	2.828	0.022	n/a	GoodResponse	0	n/a	n/a	7	56	Cue	Neutral	True
531.873	3.95	Control	0.6667000000000001	0.0	Yes	2.828	0.001	n/a	GoodResponse	0	n/a	n/a	7	56	Fixation	Neutral	True
535.818	0.23	Control	0.6667000000000001	0.004	Yes	2.828	-0.004	3.0	GoodResponse	0	0.217	535.035	7	56	Target	Neutral	True
536.035	0.3	Control	0.6667000000000001	0.004	Yes	2.828	-0.004	3.0	GoodResponse	0	0.217	n/a	7	56	ButtonPress	Neutral	True
536.052	0.47	Control	0.6667000000000001	n/a	Yes	2.828	n/a	n/a	GoodResponse	0	n/a	n/a	7	56	Blank	Neutral	True
536.52	1.45	Control	0.6667000000000001	n/a	Yes	2.828	n/a	5.0	GoodResponse	0	0.04	535.56	7	56	Feedback	Neutral	True
537.975	2.828	Control	0.6667000000000001	n/a	Yes	2.828	n/a	n/a	GoodResponse	0	0.0	n/a	7	56	ISIslide	Neutral	True
540.816	0.25	Control	0.6552	0.0	No	3.484	0.016	n/a	LatePress	0	n/a	n/a	7	57	Cue	Neutral	True
541.067	4.0	Control	0.6552	0.0	No	3.484	0.001	n/a	LatePress	0	n/a	n/a	7	57	Fixation	Neutral	True
545.062	0.22	Control	0.6552	0.004	No	3.484	-0.004	3.0	LatePress	0	0.226	544.288	7	57	Target	Neutral	True
545.288	0.3	Control	0.6552	0.004	No	3.484	-0.004	3.0	LatePress	0	0.226	n/a	7	57	ButtonPress	Neutral	True
545.297	0.48	Control	0.6552	n/a	No	3.484	n/a	n/a	LatePress	0	n/a	n/a	7	57	Blank	Neutral	True
545.765	1.45	Control	0.6552	n/a	No	3.484	n/a	5.0	LatePress	0	0.014	544.779	7	57	Feedback	Neutral	True
547.219	3.484	Control	0.6552	n/a	No	3.484	n/a	n/a	LatePress	0	0.0	n/a	7	57	ISIslide	Neutral	True
550.729	0.25	Win2	0.6609999999999999	0.001	Yes	2.721	0.029	n/a	GoodResponse	1	n/a	n/a	8	58	Cue	Win	True
550.98	4.05	Win2	0.6609999999999999	0.0	Yes	2.721	0.001	n/a	GoodResponse	1	n/a	n/a	8	58	Fixation	Win	True
555.026	0.22	Win2	0.6609999999999999	0.003	Yes	2.721	-0.003	3.0	GoodResponse	1	0.205	554.231	8	58	Target	Win	True
555.231	0.3	Win2	0.6609999999999999	0.003	Yes	2.721	-0.003	3.0	GoodResponse	1	0.205	n/a	8	58	ButtonPress	Win	True
555.26	0.48	Win2	0.6609999999999999	n/a	Yes	2.721	n/a	n/a	GoodResponse	1	n/a	n/a	8	58	Blank	Win	True
555.728	1.45	Win2	0.6609999999999999	n/a	Yes	2.721	n/a	5.0	GoodResponse	1	0.004	554.732	8	58	Feedback	Win	True
557.182	2.721	Win2	0.6609999999999999	n/a	Yes	2.721	n/a	n/a	GoodResponse	1	0.0	n/a	8	58	ISIslide	Win	True
559.924	0.25	Lose2	0.6667000000000001	0.0	Yes	2.676	0.024	n/a	GoodResponse	0	n/a	n/a	8	59	Cue	AvoidedLoss	True
560.174	4.0	Lose2	0.6667000000000001	0.001	Yes	2.676	0.0	n/a	GoodResponse	0	n/a	n/a	8	59	Fixation	AvoidedLoss	True
564.17	0.22	Lose2	0.6667000000000001	0.004	Yes	2.676	-0.004	3.0	GoodResponse	0	0.205	563.375	8	59	Target	AvoidedLoss	True
564.375	0.3	Lose2	0.6667000000000001	0.004	Yes	2.676	-0.004	3.0	GoodResponse	0	0.205	n/a	8	59	ButtonPress	AvoidedLoss	True
564.404	0.48	Lose2	0.6667000000000001	n/a	Yes	2.676	n/a	n/a	GoodResponse	0	n/a	n/a	8	59	Blank	AvoidedLoss	True
564.872	1.45	Lose2	0.6667000000000001	n/a	Yes	2.676	n/a	5.0	GoodResponse	0	0.029	563.901	8	59	Feedback	AvoidedLoss	True
566.326	2.676	Lose2	0.6667000000000001	n/a	Yes	2.676	n/a	n/a	GoodResponse	0	0.0	n/a	8	59	ISIslide	AvoidedLoss	True
569.018	0.25	Control	0.6557	0.0	No	2.682	0.018	n/a	NoResponse	0	n/a	n/a	8	60	Cue	Neutral	True
569.268	4.0	Control	0.6557	0.001	No	2.682	0.0	n/a	NoResponse	0	n/a	n/a	8	60	Fixation	Neutral	True
573.264	0.21	Control	0.6557	0.004	No	2.682	-0.004	3.0	NoResponse	0	0.493	572.757	8	60	Target	Neutral	True
573.481	0.49	Control	0.6557	n/a	No	2.682	n/a	n/a	NoResponse	0	n/a	n/a	8	60	Blank	Neutral	True
573.757	0.3	Control	0.6557	0.004	No	2.682	-0.004	3.0	NoResponse	0	0.493	n/a	8	60	ButtonPress	Neutral	True
573.966	1.45	Control	0.6557	n/a	No	2.682	n/a	5.0	NoResponse	0	0.008	572.974	8	60	Feedback	Neutral	True
575.42	2.682	Control	0.6557	n/a	No	2.682	n/a	n/a	NoResponse	0	0.0	n/a	8	60	ISIslide	Neutral	True
578.128	0.25	Lose2	0.6452	0.0	No	2.972	0.028	n/a	NoResponse	-1	n/a	n/a	7	61	Cue	Loss	False
578.379	4.0	Lose2	0.6452	0.0	No	2.972	0.001	n/a	NoResponse	-1	n/a	n/a	7	61	Fixation	Loss	False
582.374	0.21	Lose2	0.6452	0.004	No	2.972	-0.004	n/a	NoResponse	-1	n/a	n/a	7	61	Target	Loss	False
582.592	0.49	Lose2	0.6452	n/a	No	2.972	n/a	n/a	NoResponse	-1	n/a	n/a	7	61	Blank	Loss	False
583.077	1.45	Lose2	0.6452	n/a	No	2.972	n/a	5.0	NoResponse	-1	0.019	582.096	7	61	Feedback	Loss	False
584.531	2.972	Lose2	0.6452	n/a	No	2.972	n/a	n/a	NoResponse	-1	0.0	n/a	7	61	ISIslide	Loss	False
587.523	0.25	Lose2	0.6507999999999999	0.0	Yes	2.877	0.023	n/a	GoodResponse	0	n/a	n/a	7	62	Cue	AvoidedLoss	True
587.774	3.9	Lose2	0.6507999999999999	0.0	Yes	2.877	0.001	n/a	GoodResponse	0	n/a	n/a	7	62	Fixation	AvoidedLoss	True
591.669	0.22	Lose2	0.6507999999999999	0.004	Yes	2.877	-0.004	3.0	GoodResponse	0	0.21	590.879	7	62	Target	AvoidedLoss	True
591.879	0.3	Lose2	0.6507999999999999	0.004	Yes	2.877	-0.004	3.0	GoodResponse	0	0.21	n/a	7	62	ButtonPress	AvoidedLoss	True
591.903	0.48	Lose2	0.6507999999999999	n/a	Yes	2.877	n/a	n/a	GoodResponse	0	n/a	n/a	7	62	Blank	AvoidedLoss	True
592.371	1.45	Lose2	0.6507999999999999	n/a	Yes	2.877	n/a	5.0	GoodResponse	0	0.042	591.413	7	62	Feedback	AvoidedLoss	True
593.825	2.877	Lose2	0.6507999999999999	n/a	Yes	2.877	n/a	n/a	GoodResponse	0	0.0	n/a	7	62	ISIslide	AvoidedLoss	True
596.717	0.25	Lose2	0.6562	0.001	Yes	2.633	0.017	n/a	GoodResponse	0	n/a	n/a	7	63	Cue	AvoidedLoss	True
596.968	4.05	Lose2	0.6562	0.0	Yes	2.633	0.001	n/a	GoodResponse	0	n/a	n/a	7	63	Fixation	AvoidedLoss	True
601.014	0.23	Lose2	0.6562	0.003	Yes	2.633	-0.003	3.0	GoodResponse	0	0.196	600.21	7	63	Target	AvoidedLoss	True
601.21	0.3	Lose2	0.6562	0.003	Yes	2.633	-0.003	3.0	GoodResponse	0	0.196	n/a	7	63	ButtonPress	AvoidedLoss	True
601.248	0.47	Lose2	0.6562	n/a	Yes	2.633	n/a	n/a	GoodResponse	0	n/a	n/a	7	63	Blank	AvoidedLoss	True
601.716	1.45	Lose2	0.6562	n/a	Yes	2.633	n/a	5.0	GoodResponse	0	0.014	600.73	7	63	Feedback	AvoidedLoss	True
603.17	2.633	Lose2	0.6562	n/a	Yes	2.633	n/a	n/a	GoodResponse	0	0.0	n/a	7	63	ISIslide	AvoidedLoss	True
605.828	0.25	Win2	0.6615000000000001	0.0	Yes	3.122	0.028	n/a	GoodResponse	1	n/a	n/a	8	64	Cue	Win	True
606.079	4.15	Win2	0.6615000000000001	0.0	Yes	3.122	0.001	n/a	GoodResponse	1	n/a	n/a	8	64	Fixation	Win	True
610.225	0.23	Win2	0.6615000000000001	0.003	Yes	3.122	-0.003	3.0	GoodResponse	1	0.184	609.409	8	64	Target	Win	True
610.409	0.3	Win2	0.6615000000000001	0.003	Yes	3.122	-0.003	3.0	GoodResponse	1	0.184	n/a	8	64	ButtonPress	Win	True
610.459	0.47	Win2	0.6615000000000001	n/a	Yes	3.122	n/a	n/a	GoodResponse	1	n/a	n/a	8	64	Blank	Win	True
610.927	1.45	Win2	0.6615000000000001	n/a	Yes	3.122	n/a	5.0	GoodResponse	1	0.023	609.95	8	64	Feedback	Win	True
612.381	3.122	Win2	0.6615000000000001	n/a	Yes	3.122	n/a	n/a	GoodResponse	1	0.0	n/a	8	64	ISIslide	Win	True
615.524	0.25	Control	0.6515000000000001	0.0	No	2.776	0.024	n/a	NoResponse	0	n/a	n/a	8	65	Cue	Neutral	True
615.775	4.0	Control	0.6515000000000001	0.0	No	2.776	0.001	n/a	NoResponse	0	n/a	n/a	8	65	Fixation	Neutral	True
619.77	0.23	Control	0.6515000000000001	0.004	No	2.776	-0.004	3.0	NoResponse	0	0.337	619.107	8	65	Target	Neutral	True
620.004	0.47	Control	0.6515000000000001	n/a	No	2.776	n/a	n/a	NoResponse	0	n/a	n/a	8	65	Blank	Neutral	True
620.107	0.3	Control	0.6515000000000001	0.004	No	2.776	-0.004	3.0	NoResponse	0	0.337	n/a	8	65	ButtonPress	Neutral	True
620.472	1.45	Control	0.6515000000000001	n/a	No	2.776	n/a	5.0	NoResponse	0	0.039	619.511	8	65	Feedback	Neutral	True
621.926	2.776	Control	0.6515000000000001	n/a	No	2.776	n/a	n/a	NoResponse	0	0.0	n/a	8	65	ISIslide	Neutral	True
624.718	0.25	Win2	0.6567000000000001	0.0	Yes	2.782	0.018	n/a	GoodResponse	1	n/a	n/a	9	66	Cue	Win	True
624.969	3.9	Win2	0.6567000000000001	0.0	Yes	2.782	0.001	n/a	GoodResponse	1	n/a	n/a	9	66	Fixation	Win	True
628.864	0.24	Win2	0.6567000000000001	0.004	Yes	2.782	-0.004	3.0	GoodResponse	1	0.197	628.061	9	66	Target	Win	True
629.061	0.3	Win2	0.6567000000000001	0.004	Yes	2.782	-0.004	3.0	GoodResponse	1	0.197	n/a	9	66	ButtonPress	Win	True
629.115	0.46	Win2	0.6567000000000001	n/a	Yes	2.782	n/a	n/a	GoodResponse	1	n/a	n/a	9	66	Blank	Win	True
629.566	1.45	Win2	0.6567000000000001	n/a	Yes	2.782	n/a	5.0	GoodResponse	1	0.018	628.584	9	66	Feedback	Win	True
631.02	2.782	Win2	0.6567000000000001	n/a	Yes	2.782	n/a	n/a	GoodResponse	1	0.0	n/a	9	66	ISIslide	Win	True
633.829	0.25	Control	0.6618	0.0	Yes	2.721	0.029	n/a	GoodResponse	0	n/a	n/a	9	67	Cue	Neutral	True
634.08	3.95	Control	0.6618	0.0	Yes	2.721	0.001	n/a	GoodResponse	0	n/a	n/a	9	67	Fixation	Neutral	True
638.025	0.24	Control	0.6618	0.004	Yes	2.721	-0.004	3.0	GoodResponse	0	0.23	637.255	9	67	Target	Neutral	True
638.255	0.3	Control	0.6618	0.004	Yes	2.721	-0.004	3.0	GoodResponse	0	0.23	n/a	9	67	ButtonPress	Neutral	True
638.275	0.46	Control	0.6618	n/a	Yes	2.721	n/a	n/a	GoodResponse	0	n/a	n/a	9	67	Blank	Neutral	True
638.727	1.45	Control	0.6618	n/a	Yes	2.721	n/a	5.0	GoodResponse	0	0.028	637.755	9	67	Feedback	Neutral	True
640.181	2.721	Control	0.6618	n/a	Yes	2.721	n/a	3.0	GoodResponse	0	0.195	n/a	9	67	ISIslide	Neutral	True
642.906	0.25	Win2	0.6522	0.0	No	3.094	0.006	n/a	PrematurePress	0	n/a	n/a	9	68	Cue	MissedWin	True
643.157	4.0	Win2	0.6522	0.0	No	3.094	0.001	n/a	PrematurePress	0	n/a	n/a	9	68	Fixation	MissedWin	True
647.152	0.24	Win2	0.6522	0.004	No	3.094	-0.004	3.0	PrematurePress	0	0.086	646.238	9	68	Target	MissedWin	True
647.238	0.3	Win2	0.6522	0.004	No	3.094	-0.004	3.0	PrematurePress	0	0.086	n/a	9	68	ButtonPress	MissedWin	True
647.403	0.46	Win2	0.6522	n/a	No	3.094	n/a	n/a	PrematurePress	0	n/a	n/a	9	68	Blank	MissedWin	True
647.854	1.45	Win2	0.6522	n/a	No	3.094	n/a	5.0	PrematurePress	0	0.022	646.876	9	68	Feedback	MissedWin	True
649.309	3.094	Win2	0.6522	n/a	No	3.094	n/a	n/a	PrematurePress	0	0.0	n/a	9	68	ISIslide	MissedWin	True
652.418	0.25	Win2	0.6570999999999999	0.0	Yes	3.232	0.018	n/a	GoodResponse	1	n/a	n/a	10	69	Cue	Win	True
652.669	3.95	Win2	0.6570999999999999	0.0	Yes	3.232	0.001	n/a	GoodResponse	1	n/a	n/a	10	69	Fixation	Win	True
656.614	0.25	Win2	0.6570999999999999	0.004	Yes	3.232	-0.004	3.0	GoodResponse	1	0.233	655.847	10	69	Target	Win	True
656.847	0.3	Win2	0.6570999999999999	0.004	Yes	3.232	-0.004	3.0	GoodResponse	1	0.233	n/a	10	69	ButtonPress	Win	True
656.865	0.45	Win2	0.6570999999999999	n/a	Yes	3.232	n/a	n/a	GoodResponse	1	n/a	n/a	10	69	Blank	Win	True
657.316	1.45	Win2	0.6570999999999999	n/a	Yes	3.232	n/a	5.0	GoodResponse	1	0.024	656.34	10	69	Feedback	Win	True
658.77	3.232	Win2	0.6570999999999999	n/a	Yes	3.232	n/a	n/a	GoodResponse	1	0.0	n/a	10	69	ISIslide	Win	True
662.013	0.25	Lose2	0.662	0.0	Yes	3.037	0.013	n/a	GoodResponse	0	n/a	n/a	10	70	Cue	AvoidedLoss	True
662.264	4.05	Lose2	0.662	0.0	Yes	3.037	0.001	n/a	GoodResponse	0	n/a	n/a	10	70	Fixation	AvoidedLoss	True
666.31	0.25	Lose2	0.662	0.003	Yes	3.037	-0.003	3.0	GoodResponse	0	0.201	665.511	10	70	Target	AvoidedLoss	True
666.511	0.3	Lose2	0.662	0.003	Yes	3.037	-0.003	3.0	GoodResponse	0	0.201	n/a	10	70	ButtonPress	AvoidedLoss	True
666.56	0.45	Lose2	0.662	n/a	Yes	3.037	n/a	n/a	GoodResponse	0	n/a	n/a	10	70	Blank	AvoidedLoss	True
667.012	1.45	Lose2	0.662	n/a	Yes	3.037	n/a	5.0	GoodResponse	0	0.035	666.047	10	70	Feedback	AvoidedLoss	True
668.466	3.037	Lose2	0.662	n/a	Yes	3.037	n/a	n/a	GoodResponse	0	0.0	n/a	10	70	ISIslide	AvoidedLoss	True
671.525	0.25	Win2	0.6667000000000001	0.0	Yes	2.725	0.025	n/a	GoodResponse	1	n/a	n/a	11	71	Cue	Win	True
671.776	4.05	Win2	0.6667000000000001	0.0	Yes	2.725	0.001	n/a	GoodResponse	1	n/a	n/a	11	71	Fixation	Win	True
675.821	0.25	Win2	0.6667000000000001	0.004	Yes	2.725	-0.004	3.0	GoodResponse	1	0.214	675.035	11	71	Target	Win	True
676.035	0.3	Win2	0.6667000000000001	0.004	Yes	2.725	-0.004	3.0	GoodResponse	1	0.214	n/a	11	71	ButtonPress	Win	True
676.072	0.45	Win2	0.6667000000000001	n/a	Yes	2.725	n/a	n/a	GoodResponse	1	n/a	n/a	11	71	Blank	Win	True
676.524	1.45	Win2	0.6667000000000001	n/a	Yes	2.725	n/a	5.0	GoodResponse	1	0.035	675.559	11	71	Feedback	Win	True
677.978	2.725	Win2	0.6667000000000001	n/a	Yes	2.725	n/a	n/a	GoodResponse	1	0.0	n/a	11	71	ISIslide	Win	True
680.719	0.25	Win2	0.6712	0.001	Yes	2.781	0.019	n/a	GoodResponse	1	n/a	n/a	12	72	Cue	Win	True
680.97	4.1	Win2	0.6712	0.0	Yes	2.781	0.001	n/a	GoodResponse	1	n/a	n/a	12	72	Fixation	Win	True
685.066	0.24	Win2	0.6712	0.003	Yes	2.781	-0.003	3.0	GoodResponse	1	0.186	684.252	12	72	Target	Win	True
685.252	0.3	Win2	0.6712	0.003	Yes	2.781	-0.003	3.0	GoodResponse	1	0.186	n/a	12	72	ButtonPress	Win	True
685.317	0.46	Win2	0.6712	n/a	Yes	2.781	n/a	n/a	GoodResponse	1	n/a	n/a	12	72	Blank	Win	True
685.768	1.45	Win2	0.6712	n/a	Yes	2.781	n/a	5.0	GoodResponse	1	0.011	684.779	12	72	Feedback	Win	True
687.222	2.781	Win2	0.6712	n/a	Yes	2.781	n/a	n/a	GoodResponse	1	0.0	n/a	12	72	ISIslide	Win	True
690.014	0.25	Win2	0.6622	0.0	No	2.686	0.014	n/a	NoResponse	0	n/a	n/a	12	73	Cue	MissedWin	True
690.265	4.0	Win2	0.6622	0.0	No	2.686	0.001	n/a	NoResponse	0	n/a	n/a	12	73	Fixation	MissedWin	True
694.26	0.23	Win2	0.6622	0.004	No	2.686	-0.004	3.0	NoResponse	0	0.287	693.547	12	73	Target	MissedWin	True
694.494	0.47	Win2	0.6622	n/a	No	2.686	n/a	n/a	NoResponse	0	n/a	n/a	12	73	Blank	MissedWin	True
694.547	0.3	Win2	0.6622	0.004	No	2.686	-0.004	3.0	NoResponse	0	0.287	n/a	12	73	ButtonPress	MissedWin	True
694.962	1.45	Win2	0.6622	n/a	No	2.686	n/a	5.0	NoResponse	0	0.036	693.998	12	73	Feedback	MissedWin	True
696.417	2.686	Win2	0.6622	n/a	No	2.686	n/a	n/a	NoResponse	0	0.0	n/a	12	73	ISIslide	MissedWin	True
699.125	0.25	Lose2	0.6667000000000001	0.0	Yes	2.625	0.025	n/a	GoodResponse	0	n/a	n/a	12	74	Cue	AvoidedLoss	True
699.375	4.05	Lose2	0.6667000000000001	0.0	Yes	2.625	0.0	n/a	GoodResponse	0	n/a	n/a	12	74	Fixation	AvoidedLoss	True
703.421	0.23	Lose2	0.6667000000000001	0.004	Yes	2.625	-0.004	3.0	GoodResponse	0	0.2	702.621	12	74	Target	AvoidedLoss	True
703.621	0.3	Lose2	0.6667000000000001	0.004	Yes	2.625	-0.004	3.0	GoodResponse	0	0.2	n/a	12	74	ButtonPress	AvoidedLoss	True
703.655	0.47	Lose2	0.6667000000000001	n/a	Yes	2.625	n/a	n/a	GoodResponse	0	n/a	n/a	12	74	Blank	AvoidedLoss	True
704.123	1.45	Lose2	0.6667000000000001	n/a	Yes	2.625	n/a	5.0	GoodResponse	0	0.046	703.169	12	74	Feedback	AvoidedLoss	True
705.577	2.625	Lose2	0.6667000000000001	n/a	Yes	2.625	n/a	n/a	GoodResponse	0	0.0	n/a	12	74	ISIslide	AvoidedLoss	True
708.219	0.25	Lose2	0.6711	0.0	Yes	2.931	0.019	n/a	GoodResponse	0	n/a	n/a	12	75	Cue	AvoidedLoss	True
708.469	3.95	Lose2	0.6711	0.0	Yes	2.931	0.0	n/a	GoodResponse	0	n/a	n/a	12	75	Fixation	AvoidedLoss	True
712.431	0.22	Lose2	0.6711	0.0	Yes	2.931	0.012	3.0	GoodResponse	0	0.217	711.648	12	75	Target	AvoidedLoss	True
712.648	0.3	Lose2	0.6711	0.0	Yes	2.931	0.012	3.0	GoodResponse	0	0.217	n/a	12	75	ButtonPress	AvoidedLoss	True
712.649	0.48	Lose2	0.6711	n/a	Yes	2.931	n/a	n/a	GoodResponse	0	n/a	n/a	12	75	Blank	AvoidedLoss	True
713.117	1.45	Lose2	0.6711	n/a	Yes	2.931	n/a	5.0	GoodResponse	0	0.028	712.145	12	75	Feedback	AvoidedLoss	True
714.571	2.931	Lose2	0.6711	n/a	Yes	2.931	n/a	n/a	GoodResponse	0	0.0	n/a	12	75	ISIslide	AvoidedLoss	True
717.53	0.25	Control	0.6753	0.0	Yes	3.22	0.03	n/a	GoodResponse	0	n/a	n/a	12	76	Cue	Neutral	True
717.781	4.05	Control	0.6753	0.0	Yes	3.22	0.001	n/a	GoodResponse	0	n/a	n/a	12	76	Fixation	Neutral	True
721.826	0.21	Control	0.6753	0.004	Yes	3.22	-0.004	3.0	GoodResponse	0	0.196	721.022	12	76	Target	Neutral	True
722.022	0.3	Control	0.6753	0.004	Yes	3.22	-0.004	3.0	GoodResponse	0	0.196	n/a	12	76	ButtonPress	Neutral	True
722.043	0.49	Control	0.6753	n/a	Yes	3.22	n/a	n/a	GoodResponse	0	n/a	n/a	12	76	Blank	Neutral	True
722.528	1.45	Control	0.6753	n/a	Yes	3.22	n/a	5.0	GoodResponse	0	0.031	721.559	12	76	Feedback	Neutral	True
723.983	3.22	Control	0.6753	n/a	Yes	3.22	n/a	n/a	GoodResponse	0	0.0	n/a	12	76	ISIslide	Neutral	True
727.226	0.25	Lose2	0.6667000000000001	0.0	No	2.574	0.026	n/a	NoResponse	-1	n/a	n/a	11	77	Cue	Loss	True
727.476	3.95	Lose2	0.6667000000000001	0.0	No	2.574	0.0	n/a	NoResponse	-1	n/a	n/a	11	77	Fixation	Loss	True
731.438	0.2	Lose2	0.6667000000000001	0.0	No	2.574	0.012	3.0	NoResponse	-1	0.209	730.647	11	77	Target	Loss	True
731.622	0.5	Lose2	0.6667000000000001	n/a	No	2.574	n/a	n/a	NoResponse	-1	n/a	n/a	11	77	Blank	Loss	True
731.647	0.3	Lose2	0.6667000000000001	0.0	No	2.574	0.012	3.0	NoResponse	-1	0.209	n/a	11	77	ButtonPress	Loss	True
732.124	1.45	Lose2	0.6667000000000001	n/a	No	2.574	n/a	5.0	NoResponse	-1	0.045	731.169	11	77	Feedback	Loss	True
733.578	2.574	Lose2	0.6667000000000001	n/a	No	2.574	n/a	n/a	NoResponse	-1	0.0	n/a	11	77	ISIslide	Loss	True
