onset	duration	cue_type	current_mean_accuracy	duration_error	is_hit	isi_adjusted	onset_delay	response	response_type	reward	rt	rt_time	total_reward	trial_number	trial_phase	trial_type	one_press
11.111	0.25	Control	1.0	0.001	Yes	2.939	0.011	n/a	GoodResponse	0	n/a	n/a	0	0	Cue	Neutral	True
11.362	3.85	Control	1.0	0.0	Yes	2.939	0.001	n/a	GoodResponse	0	n/a	n/a	0	0	Fixation	Neutral	True
15.207	0.4	Control	1.0	0.004	Yes	2.939	-0.004	2.0	GoodResponse	0	0.233	14.44	0	0	Target	Neutral	True
15.44	0.3	Control	1.0	0.004	Yes	2.939	-0.004	2.0	GoodResponse	0	0.233	n/a	0	0	ButtonPress	Neutral	True
15.608	0.3	Control	1.0	n/a	Yes	2.939	n/a	n/a	GoodResponse	0	n/a	n/a	0	0	Blank	Neutral	True
15.909	1.45	Control	1.0	n/a	Yes	2.939	n/a	5.0	GoodResponse	0	0.017	14.926	0	0	Feedback	Neutral	True
17.363	2.939	Control	1.0	n/a	Yes	2.939	n/a	n/a	GoodResponse	0	0.0	n/a	0	0	ISIslide	Neutral	True
20.322	0.25	Lose2	1.0	0.0	Yes	2.778	0.022	n/a	GoodResponse	0	n/a	n/a	0	1	Cue	AvoidedLoss	True
20.573	4.0	Lose2	1.0	0.0	Yes	2.778	0.001	n/a	GoodResponse	0	n/a	n/a	0	1	Fixation	AvoidedLoss	True
24.568	0.39	Lose2	1.0	0.004	Yes	2.778	-0.004	2.0	GoodResponse	0	0.239	23.807	0	1	Target	AvoidedLoss	True
24.807	0.3	Lose2	1.0	0.004	Yes	2.778	-0.004	2.0	GoodResponse	0	0.239	n/a	0	1	ButtonPress	AvoidedLoss	True
24.97	0.31	Lose2	1.0	n/a	Yes	2.778	n/a	n/a	GoodResponse	0	n/a	n/a	0	1	Blank	AvoidedLoss	True
25.27	1.45	Lose2	1.0	n/a	Yes	2.778	n/a	5.0	GoodResponse	0	0.022	24.292	0	1	Feedback	AvoidedLoss	True
26.725	2.778	Lose2	1.0	n/a	Yes	2.778	n/a	n/a	GoodResponse	0	0.0	n/a	0	1	ISIslide	AvoidedLoss	True
29.517	0.25	Control	1.0	0.0	Yes	2.583	0.017	n/a	GoodResponse	0	n/a	n/a	0	2	Cue	Neutral	True
29.767	4.1	Control	1.0	0.0	Yes	2.583	0.0	n/a	GoodResponse	0	n/a	n/a	0	2	Fixation	Neutral	True
33.863	0.38	Control	1.0	0.004	Yes	2.583	-0.004	2.0	GoodResponse	0	0.287	33.15	0	2	Target	Neutral	True
34.15	0.3	Control	1.0	0.004	Yes	2.583	-0.004	2.0	GoodResponse	0	0.287	n/a	0	2	ButtonPress	Neutral	True
34.247	0.32	Control	1.0	n/a	Yes	2.583	n/a	n/a	GoodResponse	0	n/a	n/a	0	2	Blank	Neutral	True
34.565	1.45	Control	1.0	n/a	Yes	2.583	n/a	5.0	GoodResponse	0	0.044	33.609	0	2	Feedback	Neutral	True
36.019	2.583	Control	1.0	n/a	Yes	2.583	n/a	n/a	GoodResponse	0	0.0	n/a	0	2	ISIslide	Neutral	True
38.627	0.25	Win2	1.0	0.0	Yes	2.823	0.027	n/a	GoodResponse	1	n/a	n/a	1	3	Cue	Win	True
38.878	3.95	Win2	1.0	0.0	Yes	2.823	0.001	n/a	GoodResponse	1	n/a	n/a	1	3	Fixation	Win	True
42.823	0.37	Win2	1.0	0.004	Yes	2.823	-0.004	2.0	GoodResponse	1	0.276	42.099	1	3	Target	Win	True
43.099	0.3	Win2	1.0	0.004	Yes	2.823	-0.004	2.0	GoodResponse	1	0.276	n/a	1	3	ButtonPress	Win	True
43.207	0.33	Win2	1.0	n/a	Yes	2.823	n/a	n/a	GoodResponse	1	n/a	n/a	1	3	Blank	Win	True
43.525	1.45	Win2	1.0	n/a	Yes	2.823	n/a	5.0	GoodResponse	1	0.011	42.536	1	3	Feedback	Win	True
44.979	2.823	Win2	1.0	n/a	Yes	2.823	n/a	n/a	GoodResponse	1	0.0	n/a	1	3	ISIslide	Win	True
47.821	0.25	Win2	1.0	0.0	Yes	3.279	0.021	n/a	GoodResponse	1	n/a	n/a	2	4	Cue	Win	True
48.072	4.0	Win2	1.0	0.0	Yes	3.279	0.001	n/a	GoodResponse	1	n/a	n/a	2	4	Fixation	Win	True
52.067	0.36	Win2	1.0	0.004	Yes	3.279	-0.004	2.0	GoodResponse	1	0.253	51.32	2	4	Target	Win	True
52.32	0.3	Win2	1.0	0.004	Yes	3.279	-0.004	2.0	GoodResponse	1	0.253	n/a	2	4	ButtonPress	Win	True
52.435	0.34	Win2	1.0	n/a	Yes	3.279	n/a	n/a	GoodResponse	1	n/a	n/a	2	4	Blank	Win	True
52.769	1.45	Win2	1.0	n/a	Yes	3.279	n/a	5.0	GoodResponse	1	0.035	51.804	2	4	Feedback	Win	True
54.224	3.279	Win2	1.0	n/a	Yes	3.279	n/a	n/a	GoodResponse	1	0.0	n/a	2	4	ISIslide	Win	True
57.517	0.25	Win2	1.0	0.0	Yes	2.783	0.017	n/a	GoodResponse	1	n/a	n/a	3	5	Cue	Win	True
57.768	4.0	Win2	1.0	0.0	Yes	2.783	0.001	n/a	GoodResponse	1	n/a	n/a	3	5	Fixation	Win	True
61.763	0.35	Win2	1.0	0.004	Yes	2.783	-0.004	2.0	GoodResponse	1	0.237	61.0	3	5	Target	Win	True
62	0.3	Win2	1.0	0.004	Yes	2.783	-0.004	2.0	GoodResponse	1	0.237	n/a	3	5	ButtonPress	Win	True
62.114	0.35	Win2	1.0	n/a	Yes	2.783	n/a	n/a	GoodResponse	1	n/a	n/a	3	5	Blank	Win	True
62.465	1.45	Win2	1.0	n/a	Yes	2.783	n/a	5.0	GoodResponse	1	0.046	61.511	3	5	Feedback	Win	True
63.919	2.783	Win2	1.0	n/a	Yes	2.783	n/a	n/a	GoodResponse	1	0.0	n/a	3	5	ISIslide	Win	True
66.728	0.25	Lose2	1.0	0.0	Yes	2.722	0.028	n/a	GoodResponse	0	n/a	n/a	3	6	Cue	AvoidedLoss	True
66.979	3.95	Lose2	1.0	0.0	Yes	2.722	0.001	n/a	GoodResponse	0	n/a	n/a	3	6	Fixation	AvoidedLoss	True
70.924	0.34	Lose2	1.0	0.004	Yes	2.722	-0.004	2.0	GoodResponse	0	0.277	70.201	3	6	Target	AvoidedLoss	True
71.201	0.3	Lose2	1.0	0.004	Yes	2.722	-0.004	2.0	GoodResponse	0	0.277	n/a	3	6	ButtonPress	AvoidedLoss	True
71.275	0.36	Lose2	1.0	n/a	Yes	2.722	n/a	n/a	GoodResponse	0	n/a	n/a	3	6	Blank	AvoidedLoss	True
71.626	1.45	Lose2	1.0	n/a	Yes	2.722	n/a	5.0	GoodResponse	0	0.007	70.633	3	6	Feedback	AvoidedLoss	True
73.08	2.722	Lose2	1.0	n/a	Yes	2.722	n/a	n/a	GoodResponse	0	0.0	n/a	3	6	ISIslide	AvoidedLoss	True
75.822	0.25	Lose2	1.0	0.0	Yes	4.028	0.022	n/a	GoodResponse	0	n/a	n/a	3	7	Cue	AvoidedLoss	True
76.073	4.05	Lose2	1.0	0.0	Yes	4.028	0.001	n/a	GoodResponse	0	n/a	n/a	3	7	Fixation	AvoidedLoss	True
80.118	0.33	Lose2	1.0	0.004	Yes	4.028	-0.004	2.0	GoodResponse	0	0.216	79.334	3	7	Target	AvoidedLoss	True
80.334	0.3	Lose2	1.0	0.004	Yes	4.028	-0.004	2.0	GoodResponse	0	0.216	n/a	3	7	ButtonPress	AvoidedLoss	True
80.452	0.37	Lose2	1.0	n/a	Yes	4.028	n/a	n/a	GoodResponse	0	n/a	n/a	3	7	Blank	AvoidedLoss	True
80.82	1.45	Lose2	1.0	n/a	Yes	4.028	n/a	5.0	GoodResponse	0	0.032	79.852	3	7	Feedback	AvoidedLoss	True
82.274	4.028	Lose2	1.0	n/a	Yes	4.028	n/a	n/a	GoodResponse	0	0.0	n/a	3	7	ISIslide	AvoidedLoss	True
86.32	0.25	Lose2	1.0	0.0	Yes	3.03	0.02	n/a	GoodResponse	0	n/a	n/a	3	8	Cue	AvoidedLoss	True
86.571	3.95	Lose2	1.0	0.0	Yes	3.03	0.001	n/a	GoodResponse	0	n/a	n/a	3	8	Fixation	AvoidedLoss	True
90.516	0.32	Lose2	1.0	0.004	Yes	3.03	-0.004	2.0	GoodResponse	0	0.296	89.812	3	8	Target	AvoidedLoss	True
90.812	0.3	Lose2	1.0	0.004	Yes	3.03	-0.004	2.0	GoodResponse	0	0.296	n/a	3	8	ButtonPress	AvoidedLoss	True
90.85	0.38	Lose2	1.0	n/a	Yes	3.03	n/a	n/a	GoodResponse	0	n/a	n/a	3	8	Blank	AvoidedLoss	True
91.218	1.45	Lose2	1.0	n/a	Yes	3.03	n/a	5.0	GoodResponse	0	0.024	90.242	3	8	Feedback	AvoidedLoss	True
92.672	3.03	Lose2	1.0	n/a	Yes	3.03	n/a	n/a	GoodResponse	0	0.0	n/a	3	8	ISIslide	AvoidedLoss	True
95.731	0.25	Lose2	1.0	0.0	Yes	3.119	0.031	n/a	GoodResponse	0	n/a	n/a	3	9	Cue	AvoidedLoss	True
95.982	3.95	Lose2	1.0	0.0	Yes	3.119	0.001	n/a	GoodResponse	0	n/a	n/a	3	9	Fixation	AvoidedLoss	True
99.927	0.31	Lose2	1.0	0.004	Yes	3.119	-0.004	2.0	GoodResponse	0	0.243	99.17	3	9	Target	AvoidedLoss	True
100.17	0.3	Lose2	1.0	0.004	Yes	3.119	-0.004	2.0	GoodResponse	0	0.243	n/a	3	9	ButtonPress	AvoidedLoss	True
100.245	0.39	Lose2	1.0	n/a	Yes	3.119	n/a	n/a	GoodResponse	0	n/a	n/a	3	9	Blank	AvoidedLoss	True
100.629	1.45	Lose2	1.0	n/a	Yes	3.119	n/a	5.0	GoodResponse	0	0.028	99.657	3	9	Feedback	AvoidedLoss	True
102.084	3.119	Lose2	1.0	n/a	Yes	3.119	n/a	n/a	GoodResponse	0	0.0	n/a	3	9	ISIslide	AvoidedLoss	True
105.226	0.25	Control	1.0	0.001	Yes	3.274	0.026	n/a	GoodResponse	0	n/a	n/a	3	10	Cue	Neutral	True
105.477	4.0	Control	1.0	0.0	Yes	3.274	0.001	n/a	GoodResponse	0	n/a	n/a	3	10	Fixation	Neutral	True
109.473	0.3	Control	1.0	0.003	Yes	3.274	-0.003	2.0	GoodResponse	0	0.232	108.705	3	10	Target	Neutral	True
109.705	0.3	Control	1.0	0.003	Yes	3.274	-0.003	2.0	GoodResponse	0	0.232	n/a	3	10	ButtonPress	Neutral	True
109.773	0.4	Control	1.0	n/a	Yes	3.274	n/a	n/a	GoodResponse	0	n/a	n/a	3	10	Blank	Neutral	True
110.175	1.45	Control	1.0	n/a	Yes	3.274	n/a	5.0	GoodResponse	0	0.043	109.218	3	10	Feedback	Neutral	True
111.629	3.274	Control	1.0	n/a	Yes	3.274	n/a	n/a	GoodResponse	0	0.0	n/a	3	10	ISIslide	Neutral	True
114.922	0.25	Lose2	1.0	0.0	Yes	2.728	0.022	n/a	GoodResponse	0	n/a	n/a	3	11	Cue	AvoidedLoss	True
115.173	4.05	Lose2	1.0	0.0	Yes	2.728	0.001	n/a	GoodResponse	0	n/a	n/a	3	11	Fixation	AvoidedLoss	True
119.218	0.29	Lose2	1.0	0.004	Yes	2.728	-0.004	2.0	GoodResponse	0	0.206	118.424	3	11	Target	AvoidedLoss	True
119.424	0.3	Lose2	1.0	0.004	Yes	2.728	-0.004	2.0	GoodResponse	0	0.206	n/a	3	11	ButtonPress	AvoidedLoss	True
119.519	0.41	Lose2	1.0	n/a	Yes	2.728	n/a	n/a	GoodResponse	0	n/a	n/a	3	11	Blank	AvoidedLoss	True
119.92	1.45	Lose2	1.0	n/a	Yes	2.728	n/a	5.0	GoodResponse	0	0.008	118.928	3	11	Feedback	AvoidedLoss	True
121.375	2.728	Lose2	1.0	n/a	Yes	2.728	n/a	n/a	GoodResponse	0	0.0	n/a	3	11	ISIslide	AvoidedLoss	True
124.116	0.25	Control	1.0	0.0	Yes	2.984	0.016	n/a	GoodResponse	0	n/a	n/a	3	12	Cue	Neutral	True
124.367	3.9	Control	1.0	0.0	Yes	2.984	0.001	n/a	GoodResponse	0	n/a	n/a	3	12	Fixation	Neutral	True
128.262	0.28	Control	1.0	0.004	Yes	2.984	-0.004	2.0	GoodResponse	0	0.24	127.502	3	12	Target	Neutral	True
128.502	0.3	Control	1.0	0.004	Yes	2.984	-0.004	2.0	GoodResponse	0	0.24	n/a	3	12	ButtonPress	Neutral	True
128.546	0.42	Control	1.0	n/a	Yes	2.984	n/a	n/a	GoodResponse	0	n/a	n/a	3	12	Blank	Neutral	True
128.964	1.45	Control	1.0	n/a	Yes	2.984	n/a	5.0	GoodResponse	0	0.035	127.999	3	12	Feedback	Neutral	True
130.419	2.984	Control	1.0	n/a	Yes	2.984	n/a	n/a	GoodResponse	0	0.0	n/a	3	12	ISIslide	Neutral	True
133.428	0.25	Control	1.0	0.0	Yes	2.772	0.028	n/a	GoodResponse	0	n/a	n/a	3	13	Cue	Neutral	True
133.678	4.0	Control	1.0	0.0	Yes	2.772	0.0	n/a	GoodResponse	0	n/a	n/a	3	13	Fixation	Neutral	True
137.674	0.27	Control	1.0	0.004	Yes	2.772	-0.004	2.0	GoodResponse	0	0.24	136.914	3	13	Target	Neutral	True
137.914	0.3	Control	1.0	0.004	Yes	2.772	-0.004	2.0	GoodResponse	0	0.24	n/a	3	13	ButtonPress	Neutral	True
137.958	0.43	Control	1.0	n/a	Yes	2.772	n/a	n/a	GoodResponse	0	n/a	n/a	3	13	Blank	Neutral	True
138.376	1.45	Control	1.0	n/a	Yes	2.772	n/a	5.0	GoodResponse	0	0.037	137.413	3	13	Feedback	Neutral	True
139.83	2.772	Control	1.0	n/a	Yes	2.772	n/a	n/a	GoodResponse	0	0.0	n/a	3	13	ISIslide	Neutral	True
142.622	0.25	Win2	1.0	0.0	Yes	2.678	0.022	n/a	GoodResponse	1	n/a	n/a	4	14	Cue	Win	True
142.872	4.1	Win2	1.0	0.001	Yes	2.678	0.0	n/a	GoodResponse	1	n/a	n/a	4	14	Fixation	Win	True
146.968	0.26	Win2	1.0	0.004	Yes	2.678	-0.004	2.0	GoodResponse	1	0.206	146.174	4	14	Target	Win	True
147.174	0.3	Win2	1.0	0.004	Yes	2.678	-0.004	2.0	GoodResponse	1	0.206	n/a	4	14	ButtonPress	Win	True
147.236	0.44	Win2	1.0	n/a	Yes	2.678	n/a	n/a	GoodResponse	1	n/a	n/a	4	14	Blank	Win	True
147.67	1.45	Win2	1.0	n/a	Yes	2.678	n/a	5.0	GoodResponse	1	0.011	146.681	4	14	Feedback	Win	True
149.125	2.678	Win2	1.0	n/a	Yes	2.678	n/a	n/a	GoodResponse	1	0.0	n/a	4	14	ISIslide	Win	True
151.816	0.25	Control	1.0	0.0	Yes	2.984	0.016	n/a	GoodResponse	0	n/a	n/a	4	15	Cue	Neutral	True
152.067	4.0	Control	1.0	0.0	Yes	2.984	0.001	n/a	GoodResponse	0	n/a	n/a	4	15	Fixation	Neutral	True
156.062	0.25	Control	1.0	0.004	Yes	2.984	-0.004	2.0	GoodResponse	0	0.243	155.305	4	15	Target	Neutral	True
156.305	0.3	Control	1.0	0.004	Yes	2.984	-0.004	2.0	GoodResponse	0	0.243	n/a	4	15	ButtonPress	Neutral	True
156.313	0.45	Control	1.0	n/a	Yes	2.984	n/a	n/a	GoodResponse	0	n/a	n/a	4	15	Blank	Neutral	True
156.764	1.45	Control	1.0	n/a	Yes	2.984	n/a	5.0	GoodResponse	0	0.039	155.803	4	15	Feedback	Neutral	True
158.218	2.984	Control	1.0	n/a	Yes	2.984	n/a	n/a	GoodResponse	0	0.0	n/a	4	15	ISIslide	Neutral	True
161.227	0.25	Win2	1.0	0.0	Yes	2.873	0.027	n/a	GoodResponse	1	n/a	n/a	5	16	Cue	Win	True
161.478	4.0	Win2	1.0	0.0	Yes	2.873	0.001	n/a	GoodResponse	1	n/a	n/a	5	16	Fixation	Win	True
165.473	0.24	Win2	1.0	0.004	Yes	2.873	-0.004	2.0	GoodResponse	1	0.212	164.685	5	16	Target	Win	True
165.685	0.3	Win2	1.0	0.004	Yes	2.873	-0.004	2.0	GoodResponse	1	0.212	n/a	5	16	ButtonPress	Win	True
165.724	0.46	Win2	1.0	n/a	Yes	2.873	n/a	n/a	GoodResponse	1	n/a	n/a	5	16	Blank	Win	True
166.176	1.45	Win2	1.0	n/a	Yes	2.873	n/a	5.0	GoodResponse	1	0.042	165.218	5	16	Feedback	Win	True
167.63	2.873	Win2	1.0	n/a	Yes	2.873	n/a	n/a	GoodResponse	1	0.0	n/a	5	16	ISIslide	Win	True
170.522	0.25	Lose2	0.9444	0.0	No	2.728	0.022	n/a	NoResponse	-1	n/a	n/a	4	17	Cue	Loss	True
170.773	3.95	Lose2	0.9444	0.0	No	2.728	0.001	n/a	NoResponse	-1	n/a	n/a	4	17	Fixation	Loss	True
174.718	0.23	Lose2	0.9444	0.004	No	2.728	-0.004	2.0	NoResponse	-1	0.241	173.959	4	17	Target	Loss	True
174.952	0.47	Lose2	0.9444	n/a	No	2.728	n/a	n/a	NoResponse	-1	n/a	n/a	4	17	Blank	Loss	True
174.959	0.3	Lose2	0.9444	0.004	No	2.728	-0.004	2.0	NoResponse	-1	0.241	n/a	4	17	ButtonPress	Loss	True
175.42	1.45	Lose2	0.9444	n/a	No	2.728	n/a	5.0	NoResponse	-1	0.018	174.438	4	17	Feedback	Loss	True
176.874	2.728	Lose2	0.9444	n/a	No	2.728	n/a	n/a	NoResponse	-1	0.0	n/a	4	17	ISIslide	Loss	True
179.616	0.25	Lose2	0.8946999999999999	0.0	No	2.734	0.016	n/a	NoResponse	-1	n/a	n/a	3	18	Cue	Loss	True
179.867	4.05	Lose2	0.8946999999999999	0.0	No	2.734	0.001	n/a	NoResponse	-1	n/a	n/a	3	18	Fixation	Loss	True
183.912	0.22	Lose2	0.8946999999999999	0.004	No	2.734	-0.004	2.0	NoResponse	-1	0.254	183.166	3	18	Target	Loss	True
184.146	0.48	Lose2	0.8946999999999999	n/a	No	2.734	n/a	n/a	NoResponse	-1	n/a	n/a	3	18	Blank	Loss	True
184.166	0.3	Lose2	0.8946999999999999	0.004	No	2.734	-0.004	2.0	NoResponse	-1	0.254	n/a	3	18	ButtonPress	Loss	True
184.614	1.45	Lose2	0.8946999999999999	n/a	No	2.734	n/a	5.0	NoResponse	-1	0.042	183.656	3	18	Feedback	Loss	True
186.068	2.734	Lose2	0.8946999999999999	n/a	No	2.734	n/a	n/a	NoResponse	-1	0.0	n/a	3	18	ISIslide	Loss	True
188.827	0.25	Control	0.85	0.0	No	2.923	0.027	n/a	NoResponse	0	n/a	n/a	3	19	Cue	Neutral	True
189.077	3.95	Control	0.85	0.001	No	2.923	0.0	n/a	NoResponse	0	n/a	n/a	3	19	Fixation	Neutral	True
193.023	0.21	Control	0.85	0.004	No	2.923	-0.004	2.0	NoResponse	0	0.225	192.248	3	19	Target	Neutral	True
193.24	0.49	Control	0.85	n/a	No	2.923	n/a	n/a	NoResponse	0	n/a	n/a	3	19	Blank	Neutral	True
193.248	0.3	Control	0.85	0.004	No	2.923	-0.004	2.0	NoResponse	0	0.225	n/a	3	19	ButtonPress	Neutral	True
193.725	1.45	Control	0.85	n/a	No	2.923	n/a	5.0	NoResponse	0	0.008	192.733	3	19	Feedback	Neutral	True
195.179	2.923	Control	0.85	n/a	No	2.923	n/a	n/a	NoResponse	0	0.0	n/a	3	19	ISIslide	Neutral	True
198.121	0.25	Control	0.8095	0.0	No	2.629	0.021	n/a	LatePress	0	n/a	n/a	3	20	Cue	Neutral	False
198.372	4.05	Control	0.8095	0.0	No	2.629	0.001	2.0	LatePress	0	3.261	200.633	3	20	Fixation	Neutral	False
201.633	0.3	Control	0.8095	0.0	No	2.629	0.001	2.0	LatePress	0	3.261	n/a	3	20	ButtonPress	Neutral	False
202.417	0.2	Control	0.8095	0.004	No	2.629	-0.004	2.0	LatePress	0	0.203	201.62	3	20	Target	Neutral	False
202.618	0.5	Control	0.8095	n/a	No	2.629	n/a	n/a	LatePress	0	n/a	n/a	3	20	Blank	Neutral	False
202.62	0.3	Control	0.8095	0.004	No	2.629	-0.004	2.0	LatePress	0	0.203	n/a	3	20	ButtonPress	Neutral	False
203.119	1.45	Control	0.8095	n/a	No	2.629	n/a	5.0	LatePress	0	0.025	202.144	3	20	Feedback	Neutral	False
204.574	2.629	Control	0.8095	n/a	No	2.629	n/a	n/a	LatePress	0	0.0	n/a	3	20	ISIslide	Neutral	False
207.215	0.25	Control	0.7726999999999999	0.0	No	2.785	0.015	n/a	NoResponse	0	n/a	n/a	3	21	Cue	Neutral	True
207.466	4.1	Control	0.7726999999999999	0.0	No	2.785	0.001	n/a	NoResponse	0	n/a	n/a	3	21	Fixation	Neutral	True
211.561	0.19	Control	0.7726999999999999	0.004	No	2.785	-0.004	2.0	NoResponse	0	0.245	210.806	3	21	Target	Neutral	True
211.762	0.51	Control	0.7726999999999999	n/a	No	2.785	n/a	n/a	NoResponse	0	n/a	n/a	3	21	Blank	Neutral	True
211.806	0.3	Control	0.7726999999999999	0.004	No	2.785	-0.004	2.0	NoResponse	0	0.245	n/a	3	21	ButtonPress	Neutral	True
212.264	1.45	Control	0.7726999999999999	n/a	No	2.785	n/a	5.0	NoResponse	0	0.007	211.271	3	21	Feedback	Neutral	True
213.718	2.785	Control	0.7726999999999999	n/a	No	2.785	n/a	n/a	NoResponse	0	0.0	n/a	3	21	ISIslide	Neutral	True
216.526	0.25	Control	0.7391	0.0	No	2.774	0.026	n/a	NoResponse	0	n/a	n/a	3	22	Cue	Neutral	True
216.777	4.0	Control	0.7391	0.0	No	2.774	0.001	n/a	NoResponse	0	n/a	n/a	3	22	Fixation	Neutral	True
220.772	0.18	Control	0.7391	0.004	No	2.774	-0.004	2.0	NoResponse	0	0.206	219.978	3	22	Target	Neutral	True
220.956	0.52	Control	0.7391	n/a	No	2.774	n/a	n/a	NoResponse	0	n/a	n/a	3	22	Blank	Neutral	True
220.978	0.3	Control	0.7391	0.004	No	2.774	-0.004	2.0	NoResponse	0	0.206	n/a	3	22	ButtonPress	Neutral	True
221.474	1.45	Control	0.7391	n/a	No	2.774	n/a	5.0	NoResponse	0	0.012	220.486	3	22	Feedback	Neutral	True
222.929	2.774	Control	0.7391	n/a	No	2.774	n/a	n/a	NoResponse	0	0.0	n/a	3	22	ISIslide	Neutral	True
225.72	0.25	Control	0.7082999999999999	0.001	No	2.78	0.02	n/a	NoResponse	0	n/a	n/a	3	23	Cue	Neutral	True
225.971	3.9	Control	0.7082999999999999	0.0	No	2.78	0.001	n/a	NoResponse	0	n/a	n/a	3	23	Fixation	Neutral	True
229.866	0.17	Control	0.7082999999999999	0.004	No	2.78	-0.004	2.0	NoResponse	0	0.217	229.083	3	23	Target	Neutral	True
230.05	0.53	Control	0.7082999999999999	n/a	No	2.78	n/a	n/a	NoResponse	0	n/a	n/a	3	23	Blank	Neutral	True
230.083	0.3	Control	0.7082999999999999	0.004	No	2.78	-0.004	2.0	NoResponse	0	0.217	n/a	3	23	ButtonPress	Neutral	True
230.568	1.45	Control	0.7082999999999999	n/a	No	2.78	n/a	5.0	NoResponse	0	0.039	229.607	3	23	Feedback	Neutral	True
232.023	2.78	Control	0.7082999999999999	n/a	No	2.78	n/a	n/a	NoResponse	0	0.0	n/a	3	23	ISIslide	Neutral	True
234.831	0.25	Win2	0.68	0.0	No	3.119	0.031	n/a	NoResponse	0	n/a	n/a	3	24	Cue	MissedWin	True
235.082	3.95	Win2	0.68	0.0	No	3.119	0.001	n/a	NoResponse	0	n/a	n/a	3	24	Fixation	MissedWin	True
239.027	0.16	Win2	0.68	0.004	No	3.119	-0.004	2.0	NoResponse	0	0.189	238.216	3	24	Target	MissedWin	True
239.194	0.54	Win2	0.68	n/a	No	3.119	n/a	n/a	NoResponse	0	n/a	n/a	3	24	Blank	MissedWin	True
239.216	0.3	Win2	0.68	0.004	No	3.119	-0.004	2.0	NoResponse	0	0.189	n/a	3	24	ButtonPress	MissedWin	True
239.729	1.45	Win2	0.68	n/a	No	3.119	n/a	5.0	NoResponse	0	0.0	238.729	3	24	Feedback	MissedWin	True
241.183	3.119	Win2	0.68	n/a	No	3.119	n/a	n/a	NoResponse	0	0.0	n/a	3	24	ISIslide	MissedWin	True
244.326	0.25	Win2	0.6537999999999999	0.0	No	3.074	0.026	n/a	NoResponse	0	n/a	n/a	3	25	Cue	MissedWin	True
244.577	4.0	Win2	0.6537999999999999	0.0	No	3.074	0.001	n/a	NoResponse	0	n/a	n/a	3	25	Fixation	MissedWin	True
248.572	0.15	Win2	0.6537999999999999	0.004	No	3.074	-0.004	2.0	NoResponse	0	0.215	247.787	3	25	Target	MissedWin	True
248.723	0.55	Win2	0.6537999999999999	n/a	No	3.074	n/a	n/a	NoResponse	0	n/a	n/a	3	25	Blank	MissedWin	True
248.787	0.3	Win2	0.6537999999999999	0.004	No	3.074	-0.004	2.0	NoResponse	0	0.215	n/a	3	25	ButtonPress	MissedWin	True
249.274	1.45	Win2	0.6537999999999999	n/a	No	3.074	n/a	5.0	NoResponse	0	0.016	248.29	3	25	Feedback	MissedWin	True
250.729	3.074	Win2	0.6537999999999999	n/a	No	3.074	n/a	n/a	NoResponse	0	0.0	n/a	3	25	ISIslide	MissedWin	True
253.821	0.25	Win2	0.6296	0.0	No	2.929	0.021	n/a	PrematurePress	0	n/a	n/a	3	26	Cue	MissedWin	True
254.072	3.95	Win2	0.6296	0.0	No	2.929	0.001	n/a	PrematurePress	0	n/a	n/a	3	26	Fixation	MissedWin	True
258.017	0.16	Win2	0.6296	0.004	No	2.929	-0.004	2.0	PrematurePress	0	0.053	257.07	3	26	Target	MissedWin	True
258.07	0.3	Win2	0.6296	0.004	No	2.929	-0.004	2.0	PrematurePress	0	0.053	n/a	3	26	ButtonPress	MissedWin	True
258.184	0.54	Win2	0.6296	n/a	No	2.929	n/a	n/a	PrematurePress	0	n/a	n/a	3	26	Blank	MissedWin	True
258.719	1.45	Win2	0.6296	n/a	No	2.929	n/a	5.0	PrematurePress	0	0.035	257.754	3	26	Feedback	MissedWin	True
260.174	2.929	Win2	0.6296	n/a	No	2.929	n/a	n/a	PrematurePress	0	0.0	n/a	3	26	ISIslide	MissedWin	True
263.116	0.25	Lose2	0.6071	0.0	No	2.834	0.016	n/a	NoResponse	-1	n/a	n/a	2	27	Cue	Loss	True
263.366	4.05	Lose2	0.6071	0.001	No	2.834	0.0	n/a	NoResponse	-1	n/a	n/a	2	27	Fixation	Loss	True
267.412	0.17	Lose2	0.6071	0.004	No	2.834	-0.004	2.0	NoResponse	-1	0.204	266.616	2	27	Target	Loss	True
267.596	0.53	Lose2	0.6071	n/a	No	2.834	n/a	n/a	NoResponse	-1	n/a	n/a	2	27	Blank	Loss	True
267.616	0.3	Lose2	0.6071	0.004	No	2.834	-0.004	2.0	NoResponse	-1	0.204	n/a	2	27	ButtonPress	Loss	True
268.114	1.45	Lose2	0.6071	n/a	No	2.834	n/a	5.0	NoResponse	-1	0.008	267.122	2	27	Feedback	Loss	True
269.568	2.834	Lose2	0.6071	n/a	No	2.834	n/a	n/a	NoResponse	-1	0.0	n/a	2	27	ISIslide	Loss	True
272.427	0.25	Control	0.5861999999999999	0.0	No	2.823	0.027	n/a	NoResponse	0	n/a	n/a	2	28	Cue	Neutral	True
272.678	4.05	Control	0.5861999999999999	0.0	No	2.823	0.001	n/a	NoResponse	0	n/a	n/a	2	28	Fixation	Neutral	True
276.723	0.18	Control	0.5861999999999999	0.004	No	2.823	-0.004	2.0	NoResponse	0	0.215	275.938	2	28	Target	Neutral	True
276.907	0.52	Control	0.5861999999999999	n/a	No	2.823	n/a	n/a	NoResponse	0	n/a	n/a	2	28	Blank	Neutral	True
276.938	0.3	Control	0.5861999999999999	0.004	No	2.823	-0.004	2.0	NoResponse	0	0.215	n/a	2	28	ButtonPress	Neutral	True
277.425	1.45	Control	0.5861999999999999	n/a	No	2.823	n/a	5.0	NoResponse	0	0.012	276.437	2	28	Feedback	Neutral	True
278.88	2.823	Control	0.5861999999999999	n/a	No	2.823	n/a	n/a	NoResponse	0	0.0	n/a	2	28	ISIslide	Neutral	True
281.721	0.25	Lose2	0.5667	0.001	No	2.829	0.021	n/a	LatePress	-1	n/a	n/a	1	29	Cue	Loss	False
281.972	3.95	Lose2	0.5667	0.0	No	2.829	0.001	2.0	LatePress	-1	3.658	284.63	1	29	Fixation	Loss	False
285.63	0.3	Lose2	0.5667	0.0	No	2.829	0.001	2.0	LatePress	-1	3.658	n/a	1	29	ButtonPress	Loss	False
285.917	0.19	Lose2	0.5667	0.004	No	2.829	-0.004	2.0	LatePress	-1	0.195	285.112	1	29	Target	Loss	False
286.112	0.3	Lose2	0.5667	0.004	No	2.829	-0.004	2.0	LatePress	-1	0.195	n/a	1	29	ButtonPress	Loss	False
286.118	0.51	Lose2	0.5667	n/a	No	2.829	n/a	n/a	LatePress	-1	n/a	n/a	1	29	Blank	Loss	False
286.619	1.45	Lose2	0.5667	n/a	No	2.829	n/a	5.0	LatePress	-1	0.037	285.656	1	29	Feedback	Loss	False
288.074	2.829	Lose2	0.5667	n/a	No	2.829	n/a	n/a	LatePress	-1	0.0	n/a	1	29	ISIslide	Loss	False
290.916	0.25	Win2	0.5484	0.0	No	2.784	0.016	n/a	NoResponse	0	n/a	n/a	1	30	Cue	MissedWin	True
291.166	3.9	Win2	0.5484	0.0	No	2.784	0.0	n/a	NoResponse	0	n/a	n/a	1	30	Fixation	MissedWin	True
295.078	0.2	Win2	0.5484	0.0	No	2.784	0.012	2.0	NoResponse	0	0.211	294.289	1	30	Target	MissedWin	True
295.262	0.5	Win2	0.5484	n/a	No	2.784	n/a	n/a	NoResponse	0	n/a	n/a	1	30	Blank	MissedWin	True
295.289	0.3	Win2	0.5484	0.0	No	2.784	0.012	2.0	NoResponse	0	0.211	n/a	1	30	ButtonPress	MissedWin	True
295.763	1.45	Win2	0.5484	n/a	No	2.784	n/a	5.0	NoResponse	0	0.015	294.778	1	30	Feedback	MissedWin	True
297.218	2.784	Win2	0.5484	n/a	No	2.784	n/a	n/a	NoResponse	0	0.0	n/a	1	30	ISIslide	MissedWin	True
300.026	0.25	Lose2	0.5312	0.0	No	2.824	0.026	n/a	PrematurePress	-1	n/a	n/a	0	31	Cue	Loss	False
300.277	4.05	Lose2	0.5312	0.0	No	2.824	0.001	2.0	PrematurePress	-1	3.441	302.718	0	31	Fixation	Loss	False
303.718	0.3	Lose2	0.5312	0.0	No	2.824	0.001	2.0	PrematurePress	-1	3.441	n/a	0	31	ButtonPress	Loss	False
304.322	0.21	Lose2	0.5312	0.004	No	2.824	-0.004	2.0	PrematurePress	-1	0.073	303.395	0	31	Target	Loss	False
304.395	0.3	Lose2	0.5312	0.004	No	2.824	-0.004	2.0	PrematurePress	-1	0.073	n/a	0	31	ButtonPress	Loss	False
304.54	0.49	Lose2	0.5312	n/a	No	2.824	n/a	n/a	PrematurePress	-1	n/a	n/a	0	31	Blank	Loss	False
305.025	1.45	Lose2	0.5312	n/a	No	2.824	n/a	5.0	PrematurePress	-1	0.021	304.046	0	31	Feedback	Loss	False
306.479	2.824	Lose2	0.5312	n/a	No	2.824	n/a	n/a	PrematurePress	-1	0.0	n/a	0	31	ISIslide	Loss	False
309.321	0.25	Lose2	0.5152	0.0	No	2.629	0.021	n/a	NoResponse	-1	n/a	n/a	-1	32	Cue	Loss	True
309.571	4.15	Lose2	0.5152	0.001	No	2.629	0.0	n/a	NoResponse	-1	n/a	n/a	-1	32	Fixation	Loss	True
313.717	0.22	Lose2	0.5152	0.004	No	2.629	-0.004	2.0	NoResponse	-1	0.249	312.966	-1	32	Target	Loss	True
313.951	0.48	Lose2	0.5152	n/a	No	2.629	n/a	n/a	NoResponse	-1	n/a	n/a	-1	32	Blank	Loss	True
313.966	0.3	Lose2	0.5152	0.004	No	2.629	-0.004	2.0	NoResponse	-1	0.249	n/a	-1	32	ButtonPress	Loss	True
314.419	1.45	Lose2	0.5152	n/a	No	2.629	n/a	5.0	NoResponse	-1	0.042	313.461	-1	32	Feedback	Loss	True
315.874	2.629	Lose2	0.5152	n/a	No	2.629	n/a	n/a	NoResponse	-1	0.0	n/a	-1	32	ISIslide	Loss	True
318.515	0.25	Win2	0.5	0.0	No	2.685	0.015	n/a	NoResponse	0	n/a	n/a	-1	33	Cue	MissedWin	True
318.766	4.0	Win2	0.5	0.0	No	2.685	0.001	n/a	NoResponse	0	n/a	n/a	-1	33	Fixation	MissedWin	True
322.761	0.23	Win2	0.5	0.004	No	2.685	-0.004	2.0	NoResponse	0	0.242	322.003	-1	33	Target	MissedWin	True
322.995	0.47	Win2	0.5	n/a	No	2.685	n/a	n/a	NoResponse	0	n/a	n/a	-1	33	Blank	MissedWin	True
323.003	0.3	Win2	0.5	0.004	No	2.685	-0.004	2.0	NoResponse	0	0.242	n/a	-1	33	ButtonPress	MissedWin	True
323.463	1.45	Win2	0.5	n/a	No	2.685	n/a	5.0	NoResponse	0	0.022	322.485	-1	33	Feedback	MissedWin	True
324.917	2.685	Win2	0.5	n/a	No	2.685	n/a	n/a	NoResponse	0	0.0	n/a	-1	33	ISIslide	MissedWin	True
327.626	0.25	Lose2	0.5143	0.0	Yes	2.624	0.026	n/a	GoodResponse	0	n/a	n/a	-1	34	Cue	AvoidedLoss	True
327.876	4.05	Lose2	0.5143	0.0	Yes	2.624	0.0	n/a	GoodResponse	0	n/a	n/a	-1	34	Fixation	AvoidedLoss	True
331.922	0.24	Lose2	0.5143	0.004	Yes	2.624	-0.004	2.0	GoodResponse	0	0.216	331.138	-1	34	Target	AvoidedLoss	True
332.138	0.3	Lose2	0.5143	0.004	Yes	2.624	-0.004	2.0	GoodResponse	0	0.216	n/a	-1	34	ButtonPress	AvoidedLoss	True
332.172	0.46	Lose2	0.5143	n/a	Yes	2.624	n/a	n/a	GoodResponse	0	n/a	n/a	-1	34	Blank	AvoidedLoss	True
332.624	1.45	Lose2	0.5143	n/a	Yes	2.624	n/a	5.0	GoodResponse	0	0.031	331.655	-1	34	Feedback	AvoidedLoss	True
334.078	2.624	Lose2	0.5143	n/a	Yes	2.624	n/a	n/a	GoodResponse	0	0.0	n/a	-1	34	ISIslide	AvoidedLoss	True
336.719	0.25	Lose2	0.5	0.0	No	2.681	0.019	n/a	NoResponse	-1	n/a	n/a	-2	35	Cue	Loss	True
336.97	4.0	Lose2	0.5	0.0	No	2.681	0.001	n/a	NoResponse	-1	n/a	n/a	-2	35	Fixation	Loss	True
340.965	0.25	Lose2	0.5	0.004	No	2.681	-0.004	2.0	NoResponse	-1	0.267	340.232	-2	35	Target	Loss	True
341.216	0.45	Lose2	0.5	n/a	No	2.681	n/a	n/a	NoResponse	-1	n/a	n/a	-2	35	Blank	Loss	True
341.232	0.3	Lose2	0.5	0.004	No	2.681	-0.004	2.0	NoResponse	-1	0.267	n/a	-2	35	ButtonPress	Loss	True
341.668	1.45	Lose2	0.5	n/a	No	2.681	n/a	5.0	NoResponse	-1	0.012	340.68	-2	35	Feedback	Loss	True
343.122	2.681	Lose2	0.5	n/a	No	2.681	n/a	n/a	NoResponse	-1	0.0	n/a	-2	35	ISIslide	Loss	True
345.83	0.25	Control	0.5135000000000001	0.0	Yes	2.67	0.03	n/a	GoodResponse	0	n/a	n/a	-2	36	Cue	Neutral	True
346.081	4.0	Control	0.5135000000000001	0.0	Yes	2.67	0.001	n/a	GoodResponse	0	n/a	n/a	-2	36	Fixation	Neutral	True
350.076	0.26	Control	0.5135000000000001	0.004	Yes	2.67	-0.004	2.0	GoodResponse	0	0.24	349.316	-2	36	Target	Neutral	True
350.316	0.3	Control	0.5135000000000001	0.004	Yes	2.67	-0.004	2.0	GoodResponse	0	0.24	n/a	-2	36	ButtonPress	Neutral	True
350.344	0.44	Control	0.5135000000000001	n/a	Yes	2.67	n/a	n/a	GoodResponse	0	n/a	n/a	-2	36	Blank	Neutral	True
350.778	1.45	Control	0.5135000000000001	n/a	Yes	2.67	n/a	5.0	GoodResponse	0	0.024	349.802	-2	36	Feedback	Neutral	True
352.232	2.67	Control	0.5135000000000001	n/a	Yes	2.67	n/a	n/a	GoodResponse	0	0.0	n/a	-2	36	ISIslide	Neutral	True
354.924	0.25	Win2	0.5263	0.0	Yes	2.876	0.024	n/a	GoodResponse	1	n/a	n/a	-1	37	Cue	Win	True
355.175	4.0	Win2	0.5263	0.0	Yes	2.876	0.001	n/a	GoodResponse	1	n/a	n/a	-1	37	Fixation	Win	True
359.17	0.27	Win2	0.5263	0.004	Yes	2.876	-0.004	2.0	GoodResponse	1	0.225	358.395	-1	37	Target	Win	True
359.395	0.3	Win2	0.5263	0.004	Yes	2.876	-0.004	2.0	GoodResponse	1	0.225	n/a	-1	37	ButtonPress	Win	True
359.454	0.43	Win2	0.5263	n/a	Yes	2.876	n/a	n/a	GoodResponse	1	n/a	n/a	-1	37	Blank	Win	True
359.872	1.45	Win2	0.5263	n/a	Yes	2.876	n/a	5.0	GoodResponse	1	0.008	358.88	-1	37	Feedback	Win	True
361.326	2.876	Win2	0.5263	n/a	Yes	2.876	n/a	n/a	GoodResponse	1	0.0	n/a	-1	37	ISIslide	Win	True
364.218	0.25	Lose2	0.5385	0.0	Yes	2.832	0.018	n/a	GoodResponse	0	n/a	n/a	-1	38	Cue	AvoidedLoss	True
364.469	3.95	Lose2	0.5385	0.0	Yes	2.832	0.001	n/a	GoodResponse	0	n/a	n/a	-1	38	Fixation	AvoidedLoss	True
368.414	0.28	Lose2	0.5385	0.004	Yes	2.832	-0.004	2.0	GoodResponse	0	0.21	367.624	-1	38	Target	AvoidedLoss	True
368.624	0.3	Lose2	0.5385	0.004	Yes	2.832	-0.004	2.0	GoodResponse	0	0.21	n/a	-1	38	ButtonPress	AvoidedLoss	True
368.698	0.42	Lose2	0.5385	n/a	Yes	2.832	n/a	n/a	GoodResponse	0	n/a	n/a	-1	38	Blank	AvoidedLoss	True
369.116	1.45	Lose2	0.5385	n/a	Yes	2.832	n/a	5.0	GoodResponse	0	0.028	368.144	-1	38	Feedback	AvoidedLoss	True
370.571	2.832	Lose2	0.5385	n/a	Yes	2.832	n/a	n/a	GoodResponse	0	0.0	n/a	-1	38	ISIslide	AvoidedLoss	True
373.429	0.25	Win2	0.55	0.0	Yes	2.971	0.029	n/a	GoodResponse	1	n/a	n/a	0	39	Cue	Win	True
373.68	4.1	Win2	0.55	0.0	Yes	2.971	0.001	n/a	GoodResponse	1	n/a	n/a	0	39	Fixation	Win	True
377.776	0.29	Win2	0.55	0.003	Yes	2.971	-0.003	2.0	GoodResponse	1	0.209	376.985	0	39	Target	Win	True
377.985	0.3	Win2	0.55	0.003	Yes	2.971	-0.003	2.0	GoodResponse	1	0.209	n/a	0	39	ButtonPress	Win	True
378.077	0.41	Win2	0.55	n/a	Yes	2.971	n/a	n/a	GoodResponse	1	n/a	n/a	0	39	Blank	Win	True
378.478	1.45	Win2	0.55	n/a	Yes	2.971	n/a	5.0	GoodResponse	1	0.031	377.509	0	39	Feedback	Win	True
379.932	2.971	Win2	0.55	n/a	Yes	2.971	n/a	n/a	GoodResponse	1	0.0	n/a	0	39	ISIslide	Win	True
382.924	0.25	Win2	0.561	0.0	Yes	2.726	0.024	n/a	GoodResponse	1	n/a	n/a	1	40	Cue	Win	True
383.175	3.95	Win2	0.561	0.0	Yes	2.726	0.001	n/a	GoodResponse	1	n/a	n/a	1	40	Fixation	Win	True
387.12	0.3	Win2	0.561	0.004	Yes	2.726	-0.004	2.0	GoodResponse	1	0.191	386.311	1	40	Target	Win	True
387.311	0.3	Win2	0.561	0.004	Yes	2.726	-0.004	2.0	GoodResponse	1	0.191	n/a	1	40	ButtonPress	Win	True
387.421	0.4	Win2	0.561	n/a	Yes	2.726	n/a	n/a	GoodResponse	1	n/a	n/a	1	40	Blank	Win	True
387.822	1.45	Win2	0.561	n/a	Yes	2.726	n/a	5.0	GoodResponse	1	0.008	386.83	1	40	Feedback	Win	True
389.277	2.726	Win2	0.561	n/a	Yes	2.726	n/a	n/a	GoodResponse	1	0.0	n/a	1	40	ISIslide	Win	True
392.018	0.25	Win2	0.5714	0.0	Yes	2.782	0.018	n/a	GoodResponse	1	n/a	n/a	2	41	Cue	Win	True
392.269	3.9	Win2	0.5714	0.0	Yes	2.782	0.001	n/a	GoodResponse	1	n/a	n/a	2	41	Fixation	Win	True
396.164	0.31	Win2	0.5714	0.004	Yes	2.782	-0.004	2.0	GoodResponse	1	0.217	395.381	2	41	Target	Win	True
396.381	0.3	Win2	0.5714	0.004	Yes	2.782	-0.004	2.0	GoodResponse	1	0.217	n/a	2	41	ButtonPress	Win	True
396.482	0.39	Win2	0.5714	n/a	Yes	2.782	n/a	n/a	GoodResponse	1	n/a	n/a	2	41	Blank	Win	True
396.866	1.45	Win2	0.5714	n/a	Yes	2.782	n/a	5.0	GoodResponse	1	0.033	395.899	2	41	Feedback	Win	True
398.32	2.782	Win2	0.5714	n/a	Yes	2.782	n/a	n/a	GoodResponse	1	0.0	n/a	2	41	ISIslide	Win	True
401.129	0.25	Control	0.5814	0.0	Yes	2.921	0.029	n/a	GoodResponse	0	n/a	n/a	2	42	Cue	Neutral	True
401.38	3.85	Control	0.5814	0.0	Yes	2.921	0.001	n/a	GoodResponse	0	n/a	n/a	2	42	Fixation	Neutral	True
405.224	0.32	Control	0.5814	0.005	Yes	2.921	-0.005	2.0	GoodResponse	0	0.309	404.533	2	42	Target	Neutral	True
405.533	0.3	Control	0.5814	0.005	Yes	2.921	-0.005	2.0	GoodResponse	0	0.309	n/a	2	42	ButtonPress	Neutral	True
405.559	0.38	Control	0.5814	n/a	Yes	2.921	n/a	n/a	GoodResponse	0	n/a	n/a	2	42	Blank	Neutral	True
405.927	1.45	Control	0.5814	n/a	Yes	2.921	n/a	5.0	GoodResponse	0	0.045	404.972	2	42	Feedback	Neutral	True
407.381	2.921	Control	0.5814	n/a	Yes	2.921	n/a	n/a	GoodResponse	0	0.0	n/a	2	42	ISIslide	Neutral	True
410.323	0.25	Win2	0.5909	0.0	Yes	3.177	0.023	n/a	GoodResponse	1	n/a	n/a	3	43	Cue	Win	True
410.574	4.0	Win2	0.5909	0.0	Yes	3.177	0.001	n/a	GoodResponse	1	n/a	n/a	3	43	Fixation	Win	True
414.569	0.33	Win2	0.5909	0.004	Yes	3.177	-0.004	2.0	GoodResponse	1	0.209	413.778	3	43	Target	Win	True
414.778	0.3	Win2	0.5909	0.004	Yes	3.177	-0.004	2.0	GoodResponse	1	0.209	n/a	3	43	ButtonPress	Win	True
414.903	0.37	Win2	0.5909	n/a	Yes	3.177	n/a	n/a	GoodResponse	1	n/a	n/a	3	43	Blank	Win	True
415.271	1.45	Win2	0.5909	n/a	Yes	3.177	n/a	5.0	GoodResponse	1	0.018	414.289	3	43	Feedback	Win	True
416.726	3.177	Win2	0.5909	n/a	Yes	3.177	n/a	n/a	GoodResponse	1	0.0	n/a	3	43	ISIslide	Win	True
419.918	0.25	Win2	0.6	0.001	Yes	2.982	0.018	n/a	GoodResponse	1	n/a	n/a	4	44	Cue	Win	True
420.169	4.0	Win2	0.6	0.0	Yes	2.982	0.001	n/a	GoodResponse	1	n/a	n/a	4	44	Fixation	Win	True
424.164	0.34	Win2	0.6	0.004	Yes	2.982	-0.004	2.0	GoodResponse	1	0.251	423.415	4	44	Target	Win	True
424.415	0.3	Win2	0.6	0.004	Yes	2.982	-0.004	2.0	GoodResponse	1	0.251	n/a	4	44	ButtonPress	Win	True
424.516	0.36	Win2	0.6	n/a	Yes	2.982	n/a	n/a	GoodResponse	1	n/a	n/a	4	44	Blank	Win	True
424.867	1.45	Win2	0.6	n/a	Yes	2.982	n/a	5.0	GoodResponse	1	0.032	423.899	4	44	Feedback	Win	True
426.321	2.982	Win2	0.6	n/a	Yes	2.982	n/a	n/a	GoodResponse	1	0.0	n/a	4	44	ISIslide	Win	True
429.33	0.25	Control	0.5870000000000001	0.0	No	2.87	0.03	n/a	NoResponse	0	n/a	n/a	4	45	Cue	Neutral	False
429.581	4.1	Control	0.5870000000000001	0.0	No	2.87	0.001	n/a	NoResponse	0	n/a	n/a	4	45	Fixation	Neutral	False
433.676	0.35	Control	0.5870000000000001	0.004	No	2.87	-0.004	n/a	NoResponse	0	n/a	n/a	4	45	Target	Neutral	False
434.027	0.35	Control	0.5870000000000001	n/a	No	2.87	n/a	n/a	NoResponse	0	n/a	n/a	4	45	Blank	Neutral	False
434.378	1.45	Control	0.5870000000000001	n/a	No	2.87	n/a	5.0	NoResponse	0	0.033	433.411	4	45	Feedback	Neutral	False
435.833	2.87	Control	0.5870000000000001	n/a	No	2.87	n/a	n/a	NoResponse	0	0.0	n/a	4	45	ISIslide	Neutral	False
438.725	0.25	Lose2	0.5957	0.0	Yes	3.375	0.025	n/a	GoodResponse	0	n/a	n/a	4	46	Cue	AvoidedLoss	True
438.975	4.0	Lose2	0.5957	0.001	Yes	3.375	0.0	n/a	GoodResponse	0	n/a	n/a	4	46	Fixation	AvoidedLoss	True
442.971	0.36	Lose2	0.5957	0.004	Yes	3.375	-0.004	2.0	GoodResponse	0	0.208	442.179	4	46	Target	AvoidedLoss	True
443.179	0.3	Lose2	0.5957	0.004	Yes	3.375	-0.004	2.0	GoodResponse	0	0.208	n/a	4	46	ButtonPress	AvoidedLoss	True
443.339	0.34	Lose2	0.5957	n/a	Yes	3.375	n/a	n/a	GoodResponse	0	n/a	n/a	4	46	Blank	AvoidedLoss	True
443.673	1.45	Lose2	0.5957	n/a	Yes	3.375	n/a	5.0	GoodResponse	0	0.008	442.681	4	46	Feedback	AvoidedLoss	True
445.127	3.375	Lose2	0.5957	n/a	Yes	3.375	n/a	n/a	GoodResponse	0	0.0	n/a	4	46	ISIslide	AvoidedLoss	True
448.521	0.25	Lose2	0.6042000000000001	0.0	Yes	2.679	0.021	n/a	GoodResponse	0	n/a	n/a	4	47	Cue	AvoidedLoss	True
448.771	4.0	Lose2	0.6042000000000001	0.001	Yes	2.679	0.0	n/a	GoodResponse	0	n/a	n/a	4	47	Fixation	AvoidedLoss	True
452.767	0.37	Lose2	0.6042000000000001	0.004	Yes	2.679	-0.004	2.0	GoodResponse	0	0.261	452.028	4	47	Target	AvoidedLoss	True
453.028	0.3	Lose2	0.6042000000000001	0.004	Yes	2.679	-0.004	2.0	GoodResponse	0	0.261	n/a	4	47	ButtonPress	AvoidedLoss	True
453.151	0.33	Lose2	0.6042000000000001	n/a	Yes	2.679	n/a	n/a	GoodResponse	0	n/a	n/a	4	47	Blank	AvoidedLoss	True
453.469	1.45	Lose2	0.6042000000000001	n/a	Yes	2.679	n/a	5.0	GoodResponse	0	0.015	452.484	4	47	Feedback	AvoidedLoss	True
454.923	2.679	Lose2	0.6042000000000001	n/a	Yes	2.679	n/a	n/a	GoodResponse	0	0.0	n/a	4	47	ISIslide	AvoidedLoss	True
457.631	0.25	Lose2	0.6122	0.0	Yes	3.019	0.031	n/a	GoodResponse	0	n/a	n/a	4	48	Cue	AvoidedLoss	True
457.882	3.95	Lose2	0.6122	0.0	Yes	3.019	0.001	n/a	GoodResponse	0	n/a	n/a	4	48	Fixation	AvoidedLoss	True
461.827	0.38	Lose2	0.6122	0.004	Yes	3.019	-0.004	2.0	GoodResponse	0	0.233	461.06	4	48	Target	AvoidedLoss	True
462.06	0.3	Lose2	0.6122	0.004	Yes	3.019	-0.004	2.0	GoodResponse	0	0.233	n/a	4	48	ButtonPress	AvoidedLoss	True
462.212	0.32	Lose2	0.6122	n/a	Yes	3.019	n/a	n/a	GoodResponse	0	n/a	n/a	4	48	Blank	AvoidedLoss	True
462.529	1.45	Lose2	0.6122	n/a	Yes	3.019	n/a	5.0	GoodResponse	0	0.028	461.557	4	48	Feedback	AvoidedLoss	True
463.984	3.019	Lose2	0.6122	n/a	Yes	3.019	n/a	n/a	GoodResponse	0	0.0	n/a	4	48	ISIslide	AvoidedLoss	True
467.026	0.25	Control	0.6	0.0	No	2.874	0.026	n/a	NoResponse	0	n/a	n/a	4	49	Cue	Neutral	False
467.277	4.0	Control	0.6	0.0	No	2.874	0.001	n/a	NoResponse	0	n/a	n/a	4	49	Fixation	Neutral	False
471.272	0.39	Control	0.6	0.004	No	2.874	-0.004	n/a	NoResponse	0	n/a	n/a	4	49	Target	Neutral	False
471.673	0.31	Control	0.6	n/a	No	2.874	n/a	n/a	NoResponse	0	n/a	n/a	4	49	Blank	Neutral	False
471.974	1.45	Control	0.6	n/a	No	2.874	n/a	5.0	NoResponse	0	0.047	471.021	4	49	Feedback	Neutral	False
473.429	2.874	Control	0.6	n/a	No	2.874	n/a	n/a	NoResponse	0	0.0	n/a	4	49	ISIslide	Neutral	False
476.321	0.25	Control	0.6078	0.0	Yes	2.779	0.021	n/a	GoodResponse	0	n/a	n/a	4	50	Cue	Neutral	True
476.571	4.0	Control	0.6078	0.0	Yes	2.779	0.0	n/a	GoodResponse	0	n/a	n/a	4	50	Fixation	Neutral	True
480.567	0.4	Control	0.6078	0.004	Yes	2.779	-0.004	2.0	GoodResponse	0	0.256	479.823	4	50	Target	Neutral	True
480.823	0.3	Control	0.6078	0.004	Yes	2.779	-0.004	2.0	GoodResponse	0	0.256	n/a	4	50	ButtonPress	Neutral	True
480.968	0.3	Control	0.6078	n/a	Yes	2.779	n/a	n/a	GoodResponse	0	n/a	n/a	4	50	Blank	Neutral	True
481.269	1.45	Control	0.6078	n/a	Yes	2.779	n/a	5.0	GoodResponse	0	0.02	480.289	4	50	Feedback	Neutral	True
482.723	2.779	Control	0.6078	n/a	Yes	2.779	n/a	n/a	GoodResponse	0	0.0	n/a	4	50	ISIslide	Neutral	True
485.532	0.25	Control	0.6154	0.0	Yes	2.718	0.032	n/a	GoodResponse	0	n/a	n/a	4	51	Cue	Neutral	True
485.782	3.95	Control	0.6154	0.0	Yes	2.718	0.0	n/a	GoodResponse	0	n/a	n/a	4	51	Fixation	Neutral	True
489.744	0.41	Control	0.6154	0.0	Yes	2.718	0.012	2.0	GoodResponse	0	0.238	488.982	4	51	Target	Neutral	True
489.982	0.3	Control	0.6154	0.0	Yes	2.718	0.012	2.0	GoodResponse	0	0.238	n/a	4	51	ButtonPress	Neutral	True
490.145	0.29	Control	0.6154	n/a	Yes	2.718	n/a	n/a	GoodResponse	0	n/a	n/a	4	51	Blank	Neutral	True
490.43	1.45	Control	0.6154	n/a	Yes	2.718	n/a	5.0	GoodResponse	0	0.029	489.459	4	51	Feedback	Neutral	True
491.884	2.718	Control	0.6154	n/a	Yes	2.718	n/a	n/a	GoodResponse	0	0.0	n/a	4	51	ISIslide	Neutral	True
494.625	0.25	Control	0.6225999999999999	0.0	Yes	2.625	0.025	n/a	GoodResponse	0	n/a	n/a	4	52	Cue	Neutral	True
494.876	4.05	Control	0.6225999999999999	0.0	Yes	2.625	0.001	n/a	GoodResponse	0	n/a	n/a	4	52	Fixation	Neutral	True
498.922	0.42	Control	0.6225999999999999	0.003	Yes	2.625	-0.003	2.0	GoodResponse	0	0.219	498.141	4	52	Target	Neutral	True
499.141	0.3	Control	0.6225999999999999	0.003	Yes	2.625	-0.003	2.0	GoodResponse	0	0.219	n/a	4	52	ButtonPress	Neutral	True
499.356	0.28	Control	0.6225999999999999	n/a	Yes	2.625	n/a	n/a	GoodResponse	0	n/a	n/a	4	52	Blank	Neutral	True
499.624	1.45	Control	0.6225999999999999	n/a	Yes	2.625	n/a	5.0	GoodResponse	0	0.006	498.63	4	52	Feedback	Neutral	True
501.078	2.625	Control	0.6225999999999999	n/a	Yes	2.625	n/a	n/a	GoodResponse	0	0.0	n/a	4	52	ISIslide	Neutral	True
503.719	0.25	Win2	0.6296	0.0	Yes	2.931	0.019	n/a	GoodResponse	1	n/a	n/a	5	53	Cue	Win	True
503.97	4.05	Win2	0.6296	0.0	Yes	2.931	0.001	n/a	GoodResponse	1	n/a	n/a	5	53	Fixation	Win	True
508.015	0.43	Win2	0.6296	0.004	Yes	2.931	-0.004	2.0	GoodResponse	1	0.212	507.227	5	53	Target	Win	True
508.227	0.3	Win2	0.6296	0.004	Yes	2.931	-0.004	2.0	GoodResponse	1	0.212	n/a	5	53	ButtonPress	Win	True
508.45	0.27	Win2	0.6296	n/a	Yes	2.931	n/a	n/a	GoodResponse	1	n/a	n/a	5	53	Blank	Win	True
508.718	1.45	Win2	0.6296	n/a	Yes	2.931	n/a	5.0	GoodResponse	1	0.034	507.752	5	53	Feedback	Win	True
510.172	2.931	Win2	0.6296	n/a	Yes	2.931	n/a	n/a	GoodResponse	1	0.0	n/a	5	53	ISIslide	Win	True
513.131	0.25	Win2	0.6364	0.0	Yes	2.719	0.031	n/a	GoodResponse	1	n/a	n/a	6	54	Cue	Win	True
513.382	3.95	Win2	0.6364	0.0	Yes	2.719	0.001	n/a	GoodResponse	1	n/a	n/a	6	54	Fixation	Win	True
517.327	0.44	Win2	0.6364	0.004	Yes	2.719	-0.004	2.0	GoodResponse	1	0.207	516.534	6	54	Target	Win	True
517.534	0.3	Win2	0.6364	0.004	Yes	2.719	-0.004	2.0	GoodResponse	1	0.207	n/a	6	54	ButtonPress	Win	True
517.778	0.26	Win2	0.6364	n/a	Yes	2.719	n/a	n/a	GoodResponse	1	n/a	n/a	6	54	Blank	Win	True
518.029	1.45	Win2	0.6364	n/a	Yes	2.719	n/a	5.0	GoodResponse	1	0.04	517.069	6	54	Feedback	Win	True
519.483	2.719	Win2	0.6364	n/a	Yes	2.719	n/a	n/a	GoodResponse	1	0.0	n/a	6	54	ISIslide	Win	True
522.225	0.25	Control	0.6429	0.0	Yes	3.025	0.025	n/a	GoodResponse	0	n/a	n/a	6	55	Cue	Neutral	True
522.475	3.95	Control	0.6429	0.0	Yes	3.025	0.0	n/a	GoodResponse	0	n/a	n/a	6	55	Fixation	Neutral	True
526.421	0.45	Control	0.6429	0.004	Yes	3.025	-0.004	2.0	GoodResponse	0	0.248	525.669	6	55	Target	Neutral	True
526.669	0.3	Control	0.6429	0.004	Yes	3.025	-0.004	2.0	GoodResponse	0	0.248	n/a	6	55	ButtonPress	Neutral	True
526.872	0.25	Control	0.6429	n/a	Yes	3.025	n/a	n/a	GoodResponse	0	n/a	n/a	6	55	Blank	Neutral	True
527.123	1.45	Control	0.6429	n/a	Yes	3.025	n/a	5.0	GoodResponse	0	0.02	526.143	6	55	Feedback	Neutral	True
528.577	3.025	Control	0.6429	n/a	Yes	3.025	n/a	n/a	GoodResponse	0	0.0	n/a	6	55	ISIslide	Neutral	True
531.619	0.25	Control	0.6491	0.001	Yes	2.831	0.019	n/a	GoodResponse	0	n/a	n/a	6	56	Cue	Neutral	True
531.87	3.95	Control	0.6491	0.0	Yes	2.831	0.001	n/a	GoodResponse	0	n/a	n/a	6	56	Fixation	Neutral	True
535.815	0.46	Control	0.6491	0.004	Yes	2.831	-0.004	2.0	GoodResponse	0	0.371	535.186	6	56	Target	Neutral	True
536.186	0.3	Control	0.6491	0.004	Yes	2.831	-0.004	2.0	GoodResponse	0	0.371	n/a	6	56	ButtonPress	Neutral	True
536.283	0.24	Control	0.6491	n/a	Yes	2.831	n/a	n/a	GoodResponse	0	n/a	n/a	6	56	Blank	Neutral	True
536.517	1.45	Control	0.6491	n/a	Yes	2.831	n/a	5.0	GoodResponse	0	0.039	535.556	6	56	Feedback	Neutral	True
537.972	2.831	Control	0.6491	n/a	Yes	2.831	n/a	n/a	GoodResponse	0	0.0	n/a	6	56	ISIslide	Neutral	True
540.83	0.25	Control	0.6552	0.0	Yes	3.47	0.03	n/a	GoodResponse	0	n/a	n/a	6	57	Cue	Neutral	True
541.081	4.0	Control	0.6552	0.0	Yes	3.47	0.001	n/a	GoodResponse	0	n/a	n/a	6	57	Fixation	Neutral	True
545.076	0.47	Control	0.6552	0.004	Yes	3.47	-0.004	2.0	GoodResponse	0	0.225	544.301	6	57	Target	Neutral	True
545.301	0.3	Control	0.6552	0.004	Yes	3.47	-0.004	2.0	GoodResponse	0	0.225	n/a	6	57	ButtonPress	Neutral	True
545.561	0.23	Control	0.6552	n/a	Yes	3.47	n/a	n/a	GoodResponse	0	n/a	n/a	6	57	Blank	Neutral	True
545.779	1.45	Control	0.6552	n/a	Yes	3.47	n/a	5.0	GoodResponse	0	0.046	544.825	6	57	Feedback	Neutral	True
547.233	3.47	Control	0.6552	n/a	Yes	3.47	n/a	n/a	GoodResponse	0	0.0	n/a	6	57	ISIslide	Neutral	True
550.727	0.25	Win2	0.6609999999999999	0.0	Yes	2.723	0.027	n/a	GoodResponse	1	n/a	n/a	7	58	Cue	Win	True
550.977	4.05	Win2	0.6609999999999999	0.0	Yes	2.723	0.0	n/a	GoodResponse	1	n/a	n/a	7	58	Fixation	Win	True
555.023	0.47	Win2	0.6609999999999999	0.004	Yes	2.723	-0.004	2.0	GoodResponse	1	0.218	554.241	7	58	Target	Win	True
555.241	0.3	Win2	0.6609999999999999	0.004	Yes	2.723	-0.004	2.0	GoodResponse	1	0.218	n/a	7	58	ButtonPress	Win	True
555.508	0.23	Win2	0.6609999999999999	n/a	Yes	2.723	n/a	n/a	GoodResponse	1	n/a	n/a	7	58	Blank	Win	True
555.725	1.45	Win2	0.6609999999999999	n/a	Yes	2.723	n/a	5.0	GoodResponse	1	0.002	554.727	7	58	Feedback	Win	True
557.179	2.723	Win2	0.6609999999999999	n/a	Yes	2.723	n/a	n/a	GoodResponse	1	0.0	n/a	7	58	ISIslide	Win	True
559.921	0.25	Lose2	0.6667000000000001	0.0	Yes	2.679	0.021	n/a	GoodResponse	0	n/a	n/a	7	59	Cue	AvoidedLoss	True
560.172	4.0	Lose2	0.6667000000000001	0.0	Yes	2.679	0.001	n/a	GoodResponse	0	n/a	n/a	7	59	Fixation	AvoidedLoss	True
564.167	0.47	Lose2	0.6667000000000001	0.004	Yes	2.679	-0.004	2.0	GoodResponse	0	0.233	563.4	7	59	Target	AvoidedLoss	True
564.4	0.3	Lose2	0.6667000000000001	0.004	Yes	2.679	-0.004	2.0	GoodResponse	0	0.233	n/a	7	59	ButtonPress	AvoidedLoss	True
564.652	0.23	Lose2	0.6667000000000001	n/a	Yes	2.679	n/a	n/a	GoodResponse	0	n/a	n/a	7	59	Blank	AvoidedLoss	True
564.869	1.45	Lose2	0.6667000000000001	n/a	Yes	2.679	n/a	5.0	GoodResponse	0	0.029	563.898	7	59	Feedback	AvoidedLoss	True
566.323	2.679	Lose2	0.6667000000000001	n/a	Yes	2.679	n/a	n/a	GoodResponse	0	0.0	n/a	7	59	ISIslide	AvoidedLoss	True
569.015	0.25	Control	0.6720999999999999	0.0	Yes	2.685	0.015	n/a	GoodResponse	0	n/a	n/a	7	60	Cue	Neutral	True
569.265	4.0	Control	0.6720999999999999	0.001	Yes	2.685	0.0	n/a	GoodResponse	0	n/a	n/a	7	60	Fixation	Neutral	True
573.261	0.46	Control	0.6720999999999999	0.004	Yes	2.685	-0.004	2.0	GoodResponse	0	0.235	572.496	7	60	Target	Neutral	True
573.496	0.3	Control	0.6720999999999999	0.004	Yes	2.685	-0.004	2.0	GoodResponse	0	0.235	n/a	7	60	ButtonPress	Neutral	True
573.729	0.24	Control	0.6720999999999999	n/a	Yes	2.685	n/a	n/a	GoodResponse	0	n/a	n/a	7	60	Blank	Neutral	True
573.963	1.45	Control	0.6720999999999999	n/a	Yes	2.685	n/a	5.0	GoodResponse	0	0.008	572.971	7	60	Feedback	Neutral	True
575.417	2.685	Control	0.6720999999999999	n/a	Yes	2.685	n/a	n/a	GoodResponse	0	0.0	n/a	7	60	ISIslide	Neutral	True
578.125	0.25	Lose2	0.6774	0.0	Yes	2.975	0.025	n/a	GoodResponse	0	n/a	n/a	7	61	Cue	AvoidedLoss	True
578.376	4.0	Lose2	0.6774	0.0	Yes	2.975	0.001	n/a	GoodResponse	0	n/a	n/a	7	61	Fixation	AvoidedLoss	True
582.371	0.45	Lose2	0.6774	0.004	Yes	2.975	-0.004	2.0	GoodResponse	0	0.205	581.576	7	61	Target	AvoidedLoss	True
582.576	0.3	Lose2	0.6774	0.004	Yes	2.975	-0.004	2.0	GoodResponse	0	0.205	n/a	7	61	ButtonPress	AvoidedLoss	True
582.823	0.25	Lose2	0.6774	n/a	Yes	2.975	n/a	n/a	GoodResponse	0	n/a	n/a	7	61	Blank	AvoidedLoss	True
583.073	1.45	Lose2	0.6774	n/a	Yes	2.975	n/a	5.0	GoodResponse	0	0.019	582.092	7	61	Feedback	AvoidedLoss	True
584.528	2.975	Lose2	0.6774	n/a	Yes	2.975	n/a	n/a	GoodResponse	0	0.0	n/a	7	61	ISIslide	AvoidedLoss	True
587.52	0.25	Lose2	0.6825	0.0	Yes	2.88	0.02	n/a	GoodResponse	0	n/a	n/a	7	62	Cue	AvoidedLoss	True
587.771	3.9	Lose2	0.6825	0.0	Yes	2.88	0.001	n/a	GoodResponse	0	n/a	n/a	7	62	Fixation	AvoidedLoss	True
591.666	0.44	Lose2	0.6825	0.004	Yes	2.88	-0.004	2.0	GoodResponse	0	0.238	590.904	7	62	Target	AvoidedLoss	True
591.904	0.3	Lose2	0.6825	0.004	Yes	2.88	-0.004	2.0	GoodResponse	0	0.238	n/a	7	62	ButtonPress	AvoidedLoss	True
592.117	0.26	Lose2	0.6825	n/a	Yes	2.88	n/a	n/a	GoodResponse	0	n/a	n/a	7	62	Blank	AvoidedLoss	True
592.368	1.45	Lose2	0.6825	n/a	Yes	2.88	n/a	5.0	GoodResponse	0	0.042	591.41	7	62	Feedback	AvoidedLoss	True
593.822	2.88	Lose2	0.6825	n/a	Yes	2.88	n/a	n/a	GoodResponse	0	0.0	n/a	7	62	ISIslide	AvoidedLoss	True
596.731	0.25	Lose2	0.6875	0.0	Yes	2.619	0.031	n/a	GoodResponse	0	n/a	n/a	7	63	Cue	AvoidedLoss	True
596.982	4.05	Lose2	0.6875	0.0	Yes	2.619	0.001	n/a	GoodResponse	0	n/a	n/a	7	63	Fixation	AvoidedLoss	True
601.027	0.43	Lose2	0.6875	0.004	Yes	2.619	-0.004	2.0	GoodResponse	0	0.213	600.24	7	63	Target	AvoidedLoss	True
601.24	0.3	Lose2	0.6875	0.004	Yes	2.619	-0.004	2.0	GoodResponse	0	0.213	n/a	7	63	ButtonPress	AvoidedLoss	True
601.462	0.27	Lose2	0.6875	n/a	Yes	2.619	n/a	n/a	GoodResponse	0	n/a	n/a	7	63	Blank	AvoidedLoss	True
601.729	1.45	Lose2	0.6875	n/a	Yes	2.619	n/a	5.0	GoodResponse	0	0.047	600.776	7	63	Feedback	AvoidedLoss	True
603.184	2.619	Lose2	0.6875	n/a	Yes	2.619	n/a	n/a	GoodResponse	0	0.0	n/a	7	63	ISIslide	AvoidedLoss	True
605.825	0.25	Win2	0.6923	0.0	Yes	3.125	0.025	n/a	GoodResponse	1	n/a	n/a	8	64	Cue	Win	True
606.076	4.15	Win2	0.6923	0.0	Yes	3.125	0.001	n/a	GoodResponse	1	n/a	n/a	8	64	Fixation	Win	True
610.221	0.42	Win2	0.6923	0.004	Yes	3.125	-0.004	2.0	GoodResponse	1	0.212	609.433	8	64	Target	Win	True
610.433	0.3	Win2	0.6923	0.004	Yes	3.125	-0.004	2.0	GoodResponse	1	0.212	n/a	8	64	ButtonPress	Win	True
610.656	0.28	Win2	0.6923	n/a	Yes	3.125	n/a	n/a	GoodResponse	1	n/a	n/a	8	64	Blank	Win	True
610.924	1.45	Win2	0.6923	n/a	Yes	3.125	n/a	5.0	GoodResponse	1	0.022	609.946	8	64	Feedback	Win	True
612.378	3.125	Win2	0.6923	n/a	Yes	3.125	n/a	n/a	GoodResponse	1	0.0	n/a	8	64	ISIslide	Win	True
615.521	0.25	Control	0.6970000000000001	0.0	Yes	2.779	0.021	n/a	GoodResponse	0	n/a	n/a	8	65	Cue	Neutral	True
615.771	4.0	Control	0.6970000000000001	0.0	Yes	2.779	0.0	n/a	GoodResponse	0	n/a	n/a	8	65	Fixation	Neutral	True
619.767	0.41	Control	0.6970000000000001	0.004	Yes	2.779	-0.004	2.0	GoodResponse	0	0.323	619.09	8	65	Target	Neutral	True
620.09	0.3	Control	0.6970000000000001	0.004	Yes	2.779	-0.004	2.0	GoodResponse	0	0.323	n/a	8	65	ButtonPress	Neutral	True
620.185	0.29	Control	0.6970000000000001	n/a	Yes	2.779	n/a	n/a	GoodResponse	0	n/a	n/a	8	65	Blank	Neutral	True
620.469	1.45	Control	0.6970000000000001	n/a	Yes	2.779	n/a	5.0	GoodResponse	0	0.039	619.508	8	65	Feedback	Neutral	True
621.923	2.779	Control	0.6970000000000001	n/a	Yes	2.779	n/a	n/a	GoodResponse	0	0.0	n/a	8	65	ISIslide	Neutral	True
624.732	0.25	Win2	0.7015	0.0	Yes	2.768	0.032	n/a	GoodResponse	1	n/a	n/a	9	66	Cue	Win	True
624.982	3.9	Win2	0.7015	0.0	Yes	2.768	0.0	n/a	GoodResponse	1	n/a	n/a	9	66	Fixation	Win	True
628.894	0.4	Win2	0.7015	0.0	Yes	2.768	0.012	2.0	GoodResponse	1	0.201	628.095	9	66	Target	Win	True
629.095	0.3	Win2	0.7015	0.0	Yes	2.768	0.012	2.0	GoodResponse	1	0.201	n/a	9	66	ButtonPress	Win	True
629.278	0.3	Win2	0.7015	n/a	Yes	2.768	n/a	n/a	GoodResponse	1	n/a	n/a	9	66	Blank	Win	True
629.579	1.45	Win2	0.7015	n/a	Yes	2.768	n/a	5.0	GoodResponse	1	0.002	628.581	9	66	Feedback	Win	True
631.034	2.768	Win2	0.7015	n/a	Yes	2.768	n/a	n/a	GoodResponse	1	0.0	n/a	9	66	ISIslide	Win	True
633.825	0.25	Control	0.7059000000000001	0.001	Yes	2.725	0.025	n/a	GoodResponse	0	n/a	n/a	9	67	Cue	Neutral	True
634.076	3.95	Control	0.7059000000000001	0.0	Yes	2.725	0.001	n/a	GoodResponse	0	n/a	n/a	9	67	Fixation	Neutral	True
638.021	0.39	Control	0.7059000000000001	0.004	Yes	2.725	-0.004	2.0	GoodResponse	0	0.236	637.257	9	67	Target	Neutral	True
638.257	0.3	Control	0.7059000000000001	0.004	Yes	2.725	-0.004	2.0	GoodResponse	0	0.236	n/a	9	67	ButtonPress	Neutral	True
638.422	0.31	Control	0.7059000000000001	n/a	Yes	2.725	n/a	n/a	GoodResponse	0	n/a	n/a	9	67	Blank	Neutral	True
638.723	1.45	Control	0.7059000000000001	n/a	Yes	2.725	n/a	5.0	GoodResponse	0	0.028	637.751	9	67	Feedback	Neutral	True
640.178	2.725	Control	0.7059000000000001	n/a	Yes	2.725	n/a	n/a	GoodResponse	0	0.0	n/a	9	67	ISIslide	Neutral	True
642.919	0.25	Win2	0.7101000000000001	0.0	Yes	3.081	0.019	n/a	GoodResponse	1	n/a	n/a	10	68	Cue	Win	True
643.17	4.0	Win2	0.7101000000000001	0.0	Yes	3.081	0.001	n/a	GoodResponse	1	n/a	n/a	10	68	Fixation	Win	True
647.165	0.38	Win2	0.7101000000000001	0.004	Yes	3.081	-0.004	2.0	GoodResponse	1	0.213	646.378	10	68	Target	Win	True
647.378	0.3	Win2	0.7101000000000001	0.004	Yes	3.081	-0.004	2.0	GoodResponse	1	0.213	n/a	10	68	ButtonPress	Win	True
647.55	0.32	Win2	0.7101000000000001	n/a	Yes	3.081	n/a	n/a	GoodResponse	1	n/a	n/a	10	68	Blank	Win	True
647.867	1.45	Win2	0.7101000000000001	n/a	Yes	3.081	n/a	5.0	GoodResponse	1	0.007	646.874	10	68	Feedback	Win	True
649.322	3.081	Win2	0.7101000000000001	n/a	Yes	3.081	n/a	n/a	GoodResponse	1	0.0	n/a	10	68	ISIslide	Win	True
652.431	0.25	Win2	0.7143	0.0	Yes	3.219	0.031	n/a	GoodResponse	1	n/a	n/a	11	69	Cue	Win	True
652.682	3.95	Win2	0.7143	0.0	Yes	3.219	0.001	n/a	GoodResponse	1	n/a	n/a	11	69	Fixation	Win	True
656.627	0.37	Win2	0.7143	0.004	Yes	3.219	-0.004	2.0	GoodResponse	1	0.221	655.848	11	69	Target	Win	True
656.848	0.3	Win2	0.7143	0.004	Yes	3.219	-0.004	2.0	GoodResponse	1	0.221	n/a	11	69	ButtonPress	Win	True
657.011	0.33	Win2	0.7143	n/a	Yes	3.219	n/a	n/a	GoodResponse	1	n/a	n/a	11	69	Blank	Win	True
657.329	1.45	Win2	0.7143	n/a	Yes	3.219	n/a	5.0	GoodResponse	1	0.008	656.337	11	69	Feedback	Win	True
658.783	3.219	Win2	0.7143	n/a	Yes	3.219	n/a	n/a	GoodResponse	1	0.0	n/a	11	69	ISIslide	Win	True
662.026	0.25	Lose2	0.7182999999999999	0.001	Yes	3.024	0.026	n/a	GoodResponse	0	n/a	n/a	11	70	Cue	AvoidedLoss	True
662.277	4.05	Lose2	0.7182999999999999	0.0	Yes	3.024	0.001	n/a	GoodResponse	0	n/a	n/a	11	70	Fixation	AvoidedLoss	True
666.323	0.36	Lose2	0.7182999999999999	0.003	Yes	3.024	-0.003	2.0	GoodResponse	0	0.259	665.582	11	70	Target	AvoidedLoss	True
666.582	0.3	Lose2	0.7182999999999999	0.003	Yes	3.024	-0.003	2.0	GoodResponse	0	0.259	n/a	11	70	ButtonPress	AvoidedLoss	True
666.69	0.34	Lose2	0.7182999999999999	n/a	Yes	3.024	n/a	n/a	GoodResponse	0	n/a	n/a	11	70	Blank	AvoidedLoss	True
667.025	1.45	Lose2	0.7182999999999999	n/a	Yes	3.024	n/a	5.0	GoodResponse	0	0.019	666.044	11	70	Feedback	AvoidedLoss	True
668.479	3.024	Lose2	0.7182999999999999	n/a	Yes	3.024	n/a	n/a	GoodResponse	0	0.0	n/a	11	70	ISIslide	AvoidedLoss	True
671.522	0.25	Win2	0.7222	0.0	Yes	2.728	0.022	n/a	GoodResponse	1	n/a	n/a	12	71	Cue	Win	True
671.772	4.05	Win2	0.7222	0.0	Yes	2.728	0.0	n/a	GoodResponse	1	n/a	n/a	12	71	Fixation	Win	True
675.818	0.35	Win2	0.7222	0.004	Yes	2.728	-0.004	2.0	GoodResponse	1	0.223	675.041	12	71	Target	Win	True
676.041	0.3	Win2	0.7222	0.004	Yes	2.728	-0.004	2.0	GoodResponse	1	0.223	n/a	12	71	ButtonPress	Win	True
676.169	0.35	Win2	0.7222	n/a	Yes	2.728	n/a	n/a	GoodResponse	1	n/a	n/a	12	71	Blank	Win	True
676.52	1.45	Win2	0.7222	n/a	Yes	2.728	n/a	5.0	GoodResponse	1	0.036	675.556	12	71	Feedback	Win	True
677.974	2.728	Win2	0.7222	n/a	Yes	2.728	n/a	n/a	GoodResponse	1	0.0	n/a	12	71	ISIslide	Win	True
680.716	0.25	Win2	0.726	0.0	Yes	2.784	0.016	n/a	GoodResponse	1	n/a	n/a	13	72	Cue	Win	True
680.967	4.1	Win2	0.726	0.0	Yes	2.784	0.001	n/a	GoodResponse	1	n/a	n/a	13	72	Fixation	Win	True
685.062	0.34	Win2	0.726	0.004	Yes	2.784	-0.004	2.0	GoodResponse	1	0.234	684.296	13	72	Target	Win	True
685.296	0.3	Win2	0.726	0.004	Yes	2.784	-0.004	2.0	GoodResponse	1	0.234	n/a	13	72	ButtonPress	Win	True
685.413	0.36	Win2	0.726	n/a	Yes	2.784	n/a	n/a	GoodResponse	1	n/a	n/a	13	72	Blank	Win	True
685.764	1.45	Win2	0.726	n/a	Yes	2.784	n/a	5.0	GoodResponse	1	0.011	684.775	13	72	Feedback	Win	True
687.219	2.784	Win2	0.726	n/a	Yes	2.784	n/a	n/a	GoodResponse	1	0.0	n/a	13	72	ISIslide	Win	True
690.027	0.25	Win2	0.7297	0.0	Yes	2.673	0.027	n/a	GoodResponse	1	n/a	n/a	14	73	Cue	Win	True
690.278	4.0	Win2	0.7297	0.0	Yes	2.673	0.001	n/a	GoodResponse	1	n/a	n/a	14	73	Fixation	Win	True
694.273	0.33	Win2	0.7297	0.004	Yes	2.673	-0.004	2.0	GoodResponse	1	0.231	693.504	14	73	Target	Win	True
694.504	0.3	Win2	0.7297	0.004	Yes	2.673	-0.004	2.0	GoodResponse	1	0.231	n/a	14	73	ButtonPress	Win	True
694.607	0.37	Win2	0.7297	n/a	Yes	2.673	n/a	n/a	GoodResponse	1	n/a	n/a	14	73	Blank	Win	True
694.975	1.45	Win2	0.7297	n/a	Yes	2.673	n/a	5.0	GoodResponse	1	0.019	693.994	14	73	Feedback	Win	True
696.429	2.673	Win2	0.7297	n/a	Yes	2.673	n/a	n/a	GoodResponse	1	0.0	n/a	14	73	ISIslide	Win	True
699.121	0.25	Lose2	0.7333	0.0	Yes	2.629	0.021	n/a	GoodResponse	0	n/a	n/a	14	74	Cue	AvoidedLoss	True
699.372	4.05	Lose2	0.7333	0.0	Yes	2.629	0.001	n/a	GoodResponse	0	n/a	n/a	14	74	Fixation	AvoidedLoss	True
703.417	0.32	Lose2	0.7333	0.004	Yes	2.629	-0.004	2.0	GoodResponse	0	0.22	702.637	14	74	Target	AvoidedLoss	True
703.637	0.3	Lose2	0.7333	0.004	Yes	2.629	-0.004	2.0	GoodResponse	0	0.22	n/a	14	74	ButtonPress	AvoidedLoss	True
703.751	0.38	Lose2	0.7333	n/a	Yes	2.629	n/a	n/a	GoodResponse	0	n/a	n/a	14	74	Blank	AvoidedLoss	True
704.119	1.45	Lose2	0.7333	n/a	Yes	2.629	n/a	5.0	GoodResponse	0	0.046	703.165	14	74	Feedback	AvoidedLoss	True
705.573	2.629	Lose2	0.7333	n/a	Yes	2.629	n/a	n/a	GoodResponse	0	0.0	n/a	14	74	ISIslide	AvoidedLoss	True
708.231	0.25	Lose2	0.7368000000000001	0.001	Yes	2.919	0.031	n/a	GoodResponse	0	n/a	n/a	14	75	Cue	AvoidedLoss	True
708.482	3.95	Lose2	0.7368000000000001	0.0	Yes	2.919	0.001	n/a	GoodResponse	0	n/a	n/a	14	75	Fixation	AvoidedLoss	True
712.427	0.31	Lose2	0.7368000000000001	0.004	Yes	2.919	-0.004	2.0	GoodResponse	0	0.22	711.647	14	75	Target	AvoidedLoss	True
712.647	0.3	Lose2	0.7368000000000001	0.004	Yes	2.919	-0.004	2.0	GoodResponse	0	0.22	n/a	14	75	ButtonPress	AvoidedLoss	True
712.745	0.39	Lose2	0.7368000000000001	n/a	Yes	2.919	n/a	n/a	GoodResponse	0	n/a	n/a	14	75	Blank	AvoidedLoss	True
713.129	1.45	Lose2	0.7368000000000001	n/a	Yes	2.919	n/a	5.0	GoodResponse	0	0.012	712.141	14	75	Feedback	AvoidedLoss	True
714.584	2.919	Lose2	0.7368000000000001	n/a	Yes	2.919	n/a	n/a	GoodResponse	0	0.0	n/a	14	75	ISIslide	AvoidedLoss	True
717.526	0.25	Control	0.7403	0.0	Yes	3.224	0.026	n/a	GoodResponse	0	n/a	n/a	14	76	Cue	Neutral	True
717.777	4.05	Control	0.7403	0.0	Yes	3.224	0.001	n/a	GoodResponse	0	n/a	n/a	14	76	Fixation	Neutral	True
721.822	0.3	Control	0.7403	0.004	Yes	3.224	-0.004	2.0	GoodResponse	0	0.222	721.044	14	76	Target	Neutral	True
722.044	0.3	Control	0.7403	0.004	Yes	3.224	-0.004	2.0	GoodResponse	0	0.222	n/a	14	76	ButtonPress	Neutral	True
722.123	0.4	Control	0.7403	n/a	Yes	3.224	n/a	n/a	GoodResponse	0	n/a	n/a	14	76	Blank	Neutral	True
722.524	1.45	Control	0.7403	n/a	Yes	3.224	n/a	5.0	GoodResponse	0	0.032	721.556	14	76	Feedback	Neutral	True
723.979	3.224	Control	0.7403	n/a	Yes	3.224	n/a	n/a	GoodResponse	0	0.0	n/a	14	76	ISIslide	Neutral	True
727.222	0.25	Lose2	0.7436	0.0	Yes	2.578	0.022	n/a	GoodResponse	0	n/a	n/a	14	77	Cue	AvoidedLoss	True
727.472	3.95	Lose2	0.7436	0.0	Yes	2.578	0.0	n/a	GoodResponse	0	n/a	n/a	14	77	Fixation	AvoidedLoss	True
731.418	0.29	Lose2	0.7436	0.004	Yes	2.578	-0.004	2.0	GoodResponse	0	0.242	730.66	14	77	Target	AvoidedLoss	True
731.66	0.3	Lose2	0.7436	0.004	Yes	2.578	-0.004	2.0	GoodResponse	0	0.242	n/a	14	77	ButtonPress	AvoidedLoss	True
731.718	0.41	Lose2	0.7436	n/a	Yes	2.578	n/a	n/a	GoodResponse	0	n/a	n/a	14	77	Blank	AvoidedLoss	True
732.12	1.45	Lose2	0.7436	n/a	Yes	2.578	n/a	5.0	GoodResponse	0	0.046	731.166	14	77	Feedback	AvoidedLoss	True
733.574	2.578	Lose2	0.7436	n/a	Yes	2.578	n/a	n/a	GoodResponse	0	0.0	n/a	14	77	ISIslide	AvoidedLoss	True
