onset	duration	cue_type	current_mean_accuracy	duration_error	is_hit	isi_adjusted	onset_delay	response	response_type	reward	rt	rt_time	total_reward	trial_number	trial_phase	trial_type	one_press
11.1	0.25	Control	1.0	0.0	Yes	2.95	0.0	n/a	GoodResponse	0	n/a	n/a	0	0	Cue	Neutral	True
11.351	3.85	Control	1.0	0.0	Yes	2.95	0.001	n/a	GoodResponse	0	n/a	n/a	0	0	Fixation	Neutral	True
15.196	0.4	Control	1.0	0.004	Yes	2.95	-0.004	2.0	GoodResponse	0	0.234	14.43	0	0	Target	Neutral	True
15.43	0.3	Control	1.0	0.004	Yes	2.95	-0.004	2.0	GoodResponse	0	0.234	n/a	0	0	ButtonPress	Neutral	True
15.597	0.3	Control	1.0	n/a	Yes	2.95	n/a	n/a	GoodResponse	0	n/a	n/a	0	0	Blank	Neutral	True
15.898	1.45	Control	1.0	n/a	Yes	2.95	n/a	5.0	GoodResponse	0	0.029	14.927	0	0	Feedback	Neutral	True
17.352	2.95	Control	1.0	n/a	Yes	2.95	n/a	n/a	GoodResponse	0	0.0	n/a	0	0	ISIslide	Neutral	True
20.328	0.25	Lose2	1.0	0.0	Yes	2.772	0.028	n/a	GoodResponse	0	n/a	n/a	0	1	Cue	AvoidedLoss	True
20.579	4.0	Lose2	1.0	0.0	Yes	2.772	0.001	n/a	GoodResponse	0	n/a	n/a	0	1	Fixation	AvoidedLoss	True
24.574	0.39	Lose2	1.0	0.004	Yes	2.772	-0.004	2.0	GoodResponse	0	0.206	23.78	0	1	Target	AvoidedLoss	True
24.78	0.3	Lose2	1.0	0.004	Yes	2.772	-0.004	2.0	GoodResponse	0	0.206	n/a	0	1	ButtonPress	AvoidedLoss	True
24.975	0.31	Lose2	1.0	n/a	Yes	2.772	n/a	n/a	GoodResponse	0	n/a	n/a	0	1	Blank	AvoidedLoss	True
25.276	1.45	Lose2	1.0	n/a	Yes	2.772	n/a	5.0	GoodResponse	0	0.017	24.293	0	1	Feedback	AvoidedLoss	True
26.731	2.772	Lose2	1.0	n/a	Yes	2.772	n/a	n/a	GoodResponse	0	0.0	n/a	0	1	ISIslide	AvoidedLoss	True
29.522	0.25	Control	1.0	0.0	Yes	2.578	0.022	n/a	GoodResponse	0	n/a	n/a	0	2	Cue	Neutral	True
29.773	4.1	Control	1.0	0.0	Yes	2.578	0.001	n/a	GoodResponse	0	n/a	n/a	0	2	Fixation	Neutral	True
33.869	0.38	Control	1.0	0.003	Yes	2.578	-0.003	2.0	GoodResponse	0	0.208	33.077	0	2	Target	Neutral	True
34.077	0.3	Control	1.0	0.003	Yes	2.578	-0.003	2.0	GoodResponse	0	0.208	n/a	0	2	ButtonPress	Neutral	True
34.253	0.32	Control	1.0	n/a	Yes	2.578	n/a	n/a	GoodResponse	0	n/a	n/a	0	2	Blank	Neutral	True
34.571	1.45	Control	1.0	n/a	Yes	2.578	n/a	5.0	GoodResponse	0	0.038	33.609	0	2	Feedback	Neutral	True
36.025	2.578	Control	1.0	n/a	Yes	2.578	n/a	n/a	GoodResponse	0	0.0	n/a	0	2	ISIslide	Neutral	True
38.616	0.25	Win2	1.0	0.0	Yes	2.834	0.016	n/a	GoodResponse	1	n/a	n/a	1	3	Cue	Win	True
38.867	3.95	Win2	1.0	0.0	Yes	2.834	0.001	n/a	GoodResponse	1	n/a	n/a	1	3	Fixation	Win	True
42.812	0.37	Win2	1.0	0.004	Yes	2.834	-0.004	2.0	GoodResponse	1	0.22	42.032	1	3	Target	Win	True
43.032	0.3	Win2	1.0	0.004	Yes	2.834	-0.004	2.0	GoodResponse	1	0.22	n/a	1	3	ButtonPress	Win	True
43.197	0.33	Win2	1.0	n/a	Yes	2.834	n/a	n/a	GoodResponse	1	n/a	n/a	1	3	Blank	Win	True
43.514	1.45	Win2	1.0	n/a	Yes	2.834	n/a	5.0	GoodResponse	1	0.022	42.536	1	3	Feedback	Win	True
44.968	2.834	Win2	1.0	n/a	Yes	2.834	n/a	n/a	GoodResponse	1	0.0	n/a	1	3	ISIslide	Win	True
47.827	0.25	Win2	1.0	0.0	Yes	3.273	0.027	n/a	GoodResponse	1	n/a	n/a	2	4	Cue	Win	True
48.078	4.0	Win2	1.0	0.0	Yes	3.273	0.001	n/a	GoodResponse	1	n/a	n/a	2	4	Fixation	Win	True
52.073	0.36	Win2	1.0	0.004	Yes	3.273	-0.004	2.0	GoodResponse	1	0.188	51.261	2	4	Target	Win	True
52.261	0.3	Win2	1.0	0.004	Yes	3.273	-0.004	2.0	GoodResponse	1	0.188	n/a	2	4	ButtonPress	Win	True
52.441	0.34	Win2	1.0	n/a	Yes	3.273	n/a	n/a	GoodResponse	1	n/a	n/a	2	4	Blank	Win	True
52.775	1.45	Win2	1.0	n/a	Yes	3.273	n/a	5.0	GoodResponse	1	0.029	51.804	2	4	Feedback	Win	True
54.23	3.273	Win2	1.0	n/a	Yes	3.273	n/a	n/a	GoodResponse	1	0.0	n/a	2	4	ISIslide	Win	True
57.523	0.25	Win2	1.0	0.0	Yes	2.777	0.023	n/a	GoodResponse	1	n/a	n/a	3	5	Cue	Win	True
57.774	4.0	Win2	1.0	0.0	Yes	2.777	0.001	n/a	GoodResponse	1	n/a	n/a	3	5	Fixation	Win	True
61.769	0.35	Win2	1.0	0.004	Yes	2.777	-0.004	2.0	GoodResponse	1	0.263	61.032	3	5	Target	Win	True
62.032	0.3	Win2	1.0	0.004	Yes	2.777	-0.004	2.0	GoodResponse	1	0.263	n/a	3	5	ButtonPress	Win	True
62.12	0.35	Win2	1.0	n/a	Yes	2.777	n/a	n/a	GoodResponse	1	n/a	n/a	3	5	Blank	Win	True
62.471	1.45	Win2	1.0	n/a	Yes	2.777	n/a	5.0	GoodResponse	1	0.04	61.511	3	5	Feedback	Win	True
63.925	2.777	Win2	1.0	n/a	Yes	2.777	n/a	n/a	GoodResponse	1	0.0	n/a	3	5	ISIslide	Win	True
66.717	0.25	Lose2	1.0	0.0	Yes	2.733	0.017	n/a	GoodResponse	0	n/a	n/a	3	6	Cue	AvoidedLoss	True
66.968	3.95	Lose2	1.0	0.0	Yes	2.733	0.001	n/a	GoodResponse	0	n/a	n/a	3	6	Fixation	AvoidedLoss	True
70.913	0.34	Lose2	1.0	0.004	Yes	2.733	-0.004	2.0	GoodResponse	0	0.221	70.134	3	6	Target	AvoidedLoss	True
71.134	0.3	Lose2	1.0	0.004	Yes	2.733	-0.004	2.0	GoodResponse	0	0.221	n/a	3	6	ButtonPress	AvoidedLoss	True
71.264	0.36	Lose2	1.0	n/a	Yes	2.733	n/a	n/a	GoodResponse	0	n/a	n/a	3	6	Blank	AvoidedLoss	True
71.615	1.45	Lose2	1.0	n/a	Yes	2.733	n/a	5.0	GoodResponse	0	0.018	70.633	3	6	Feedback	AvoidedLoss	True
73.069	2.733	Lose2	1.0	n/a	Yes	2.733	n/a	n/a	GoodResponse	0	0.0	n/a	3	6	ISIslide	AvoidedLoss	True
75.828	0.25	Lose2	1.0	0.0	Yes	4.022	0.028	n/a	GoodResponse	0	n/a	n/a	3	7	Cue	AvoidedLoss	True
76.078	4.05	Lose2	1.0	0.0	Yes	4.022	0.0	n/a	GoodResponse	0	n/a	n/a	3	7	Fixation	AvoidedLoss	True
80.124	0.33	Lose2	1.0	0.004	Yes	4.022	-0.004	2.0	GoodResponse	0	0.219	79.343	3	7	Target	AvoidedLoss	True
80.343	0.3	Lose2	1.0	0.004	Yes	4.022	-0.004	2.0	GoodResponse	0	0.219	n/a	3	7	ButtonPress	AvoidedLoss	True
80.458	0.37	Lose2	1.0	n/a	Yes	4.022	n/a	n/a	GoodResponse	0	n/a	n/a	3	7	Blank	AvoidedLoss	True
80.826	1.45	Lose2	1.0	n/a	Yes	4.022	n/a	5.0	GoodResponse	0	0.027	79.853	3	7	Feedback	AvoidedLoss	True
82.28	4.022	Lose2	1.0	n/a	Yes	4.022	n/a	n/a	GoodResponse	0	0.0	n/a	3	7	ISIslide	AvoidedLoss	True
86.326	0.25	Lose2	1.0	0.0	Yes	3.024	0.026	n/a	GoodResponse	0	n/a	n/a	3	8	Cue	AvoidedLoss	True
86.577	3.95	Lose2	1.0	0.0	Yes	3.024	0.001	n/a	GoodResponse	0	n/a	n/a	3	8	Fixation	AvoidedLoss	True
90.522	0.32	Lose2	1.0	0.004	Yes	3.024	-0.004	2.0	GoodResponse	0	0.195	89.717	3	8	Target	AvoidedLoss	True
90.717	0.3	Lose2	1.0	0.004	Yes	3.024	-0.004	2.0	GoodResponse	0	0.195	n/a	3	8	ButtonPress	AvoidedLoss	True
90.856	0.38	Lose2	1.0	n/a	Yes	3.024	n/a	n/a	GoodResponse	0	n/a	n/a	3	8	Blank	AvoidedLoss	True
91.224	1.45	Lose2	1.0	n/a	Yes	3.024	n/a	5.0	GoodResponse	0	0.018	90.242	3	8	Feedback	AvoidedLoss	True
92.678	3.024	Lose2	1.0	n/a	Yes	3.024	n/a	n/a	GoodResponse	0	0.0	n/a	3	8	ISIslide	AvoidedLoss	True
95.721	0.25	Lose2	1.0	0.0	Yes	3.129	0.021	n/a	GoodResponse	0	n/a	n/a	3	9	Cue	AvoidedLoss	True
95.971	3.95	Lose2	1.0	0.0	Yes	3.129	0.0	n/a	GoodResponse	0	n/a	n/a	3	9	Fixation	AvoidedLoss	True
99.916	0.31	Lose2	1.0	0.005	Yes	3.129	-0.005	2.0	GoodResponse	0	0.295	99.211	3	9	Target	AvoidedLoss	True
100.211	0.3	Lose2	1.0	0.005	Yes	3.129	-0.005	2.0	GoodResponse	0	0.295	n/a	3	9	ButtonPress	AvoidedLoss	True
100.234	0.39	Lose2	1.0	n/a	Yes	3.129	n/a	n/a	GoodResponse	0	n/a	n/a	3	9	Blank	AvoidedLoss	True
100.619	1.45	Lose2	1.0	n/a	Yes	3.129	n/a	5.0	GoodResponse	0	0.038	99.657	3	9	Feedback	AvoidedLoss	True
102.073	3.129	Lose2	1.0	n/a	Yes	3.129	n/a	n/a	GoodResponse	0	0.0	n/a	3	9	ISIslide	AvoidedLoss	True
105.216	0.25	Control	1.0	0.0	Yes	3.284	0.016	n/a	GoodResponse	0	n/a	n/a	3	10	Cue	Neutral	True
105.466	4.0	Control	1.0	0.001	Yes	3.284	0.0	n/a	GoodResponse	0	n/a	n/a	3	10	Fixation	Neutral	True
109.462	0.3	Control	1.0	0.004	Yes	3.284	-0.004	2.0	GoodResponse	0	0.231	108.693	3	10	Target	Neutral	True
109.693	0.3	Control	1.0	0.004	Yes	3.284	-0.004	2.0	GoodResponse	0	0.231	n/a	3	10	ButtonPress	Neutral	True
109.763	0.4	Control	1.0	n/a	Yes	3.284	n/a	n/a	GoodResponse	0	n/a	n/a	3	10	Blank	Neutral	True
110.164	1.45	Control	1.0	n/a	Yes	3.284	n/a	5.0	GoodResponse	0	0.005	109.169	3	10	Feedback	Neutral	True
111.618	3.284	Control	1.0	n/a	Yes	3.284	n/a	n/a	GoodResponse	0	0.0	n/a	3	10	ISIslide	Neutral	True
114.928	0.25	Lose2	1.0	0.0	Yes	2.722	0.028	n/a	GoodResponse	0	n/a	n/a	3	11	Cue	AvoidedLoss	True
115.179	4.05	Lose2	1.0	0.0	Yes	2.722	0.001	n/a	GoodResponse	0	n/a	n/a	3	11	Fixation	AvoidedLoss	True
119.224	0.29	Lose2	1.0	0.004	Yes	2.722	-0.004	2.0	GoodResponse	0	0.221	118.445	3	11	Target	AvoidedLoss	True
119.445	0.3	Lose2	1.0	0.004	Yes	2.722	-0.004	2.0	GoodResponse	0	0.221	n/a	3	11	ButtonPress	AvoidedLoss	True
119.525	0.41	Lose2	1.0	n/a	Yes	2.722	n/a	n/a	GoodResponse	0	n/a	n/a	3	11	Blank	AvoidedLoss	True
119.926	1.45	Lose2	1.0	n/a	Yes	2.722	n/a	5.0	GoodResponse	0	0.048	118.974	3	11	Feedback	AvoidedLoss	True
121.381	2.722	Lose2	1.0	n/a	Yes	2.722	n/a	n/a	GoodResponse	0	0.0	n/a	3	11	ISIslide	AvoidedLoss	True
124.122	0.25	Control	1.0	0.0	Yes	2.978	0.022	n/a	GoodResponse	0	n/a	n/a	3	12	Cue	Neutral	True
124.373	3.9	Control	1.0	0.0	Yes	2.978	0.001	n/a	GoodResponse	0	n/a	n/a	3	12	Fixation	Neutral	True
128.268	0.28	Control	1.0	0.004	Yes	2.978	-0.004	2.0	GoodResponse	0	0.188	127.456	3	12	Target	Neutral	True
128.456	0.3	Control	1.0	0.004	Yes	2.978	-0.004	2.0	GoodResponse	0	0.188	n/a	3	12	ButtonPress	Neutral	True
128.552	0.42	Control	1.0	n/a	Yes	2.978	n/a	n/a	GoodResponse	0	n/a	n/a	3	12	Blank	Neutral	True
128.97	1.45	Control	1.0	n/a	Yes	2.978	n/a	5.0	GoodResponse	0	0.029	127.999	3	12	Feedback	Neutral	True
130.425	2.978	Control	1.0	n/a	Yes	2.978	n/a	n/a	GoodResponse	0	0.0	n/a	3	12	ISIslide	Neutral	True
133.417	0.25	Control	1.0	0.0	Yes	2.783	0.017	n/a	GoodResponse	0	n/a	n/a	3	13	Cue	Neutral	True
133.668	4.0	Control	1.0	0.0	Yes	2.783	0.001	n/a	GoodResponse	0	n/a	n/a	3	13	Fixation	Neutral	True
137.663	0.27	Control	1.0	0.004	Yes	2.783	-0.004	2.0	GoodResponse	0	0.21	136.873	3	13	Target	Neutral	True
137.873	0.3	Control	1.0	0.004	Yes	2.783	-0.004	2.0	GoodResponse	0	0.21	n/a	3	13	ButtonPress	Neutral	True
137.947	0.43	Control	1.0	n/a	Yes	2.783	n/a	n/a	GoodResponse	0	n/a	n/a	3	13	Blank	Neutral	True
138.365	1.45	Control	1.0	n/a	Yes	2.783	n/a	5.0	GoodResponse	0	0.049	137.414	3	13	Feedback	Neutral	True
139.819	2.783	Control	1.0	n/a	Yes	2.783	n/a	n/a	GoodResponse	0	0.0	n/a	3	13	ISIslide	Neutral	True
142.628	0.25	Win2	0.9333	0.0	No	2.672	0.028	n/a	PrematurePress	0	n/a	n/a	3	14	Cue	MissedWin	True
142.879	4.1	Win2	0.9333	0.0	No	2.672	0.001	n/a	PrematurePress	0	n/a	n/a	3	14	Fixation	MissedWin	True
146.974	0.26	Win2	0.9333	0.004	No	2.672	-0.004	2.0	PrematurePress	0	0.052	146.026	3	14	Target	MissedWin	True
147.026	0.3	Win2	0.9333	0.004	No	2.672	-0.004	2.0	PrematurePress	0	0.052	n/a	3	14	ButtonPress	MissedWin	True
147.242	0.44	Win2	0.9333	n/a	No	2.672	n/a	n/a	PrematurePress	0	n/a	n/a	3	14	Blank	MissedWin	True
147.676	1.45	Win2	0.9333	n/a	No	2.672	n/a	5.0	PrematurePress	0	0.006	146.682	3	14	Feedback	MissedWin	True
149.131	2.672	Win2	0.9333	n/a	No	2.672	n/a	n/a	PrematurePress	0	0.0	n/a	3	14	ISIslide	MissedWin	True
151.822	0.25	Control	0.875	0.0	No	2.978	0.022	n/a	NoResponse	0	n/a	n/a	3	15	Cue	Neutral	True
152.073	4.0	Control	0.875	0.0	No	2.978	0.001	n/a	NoResponse	0	n/a	n/a	3	15	Fixation	Neutral	True
156.068	0.25	Control	0.875	0.004	No	2.978	-0.004	2.0	NoResponse	0	0.263	155.331	3	15	Target	Neutral	True
156.319	0.45	Control	0.875	n/a	No	2.978	n/a	n/a	NoResponse	0	n/a	n/a	3	15	Blank	Neutral	True
156.331	0.3	Control	0.875	0.004	No	2.978	-0.004	2.0	NoResponse	0	0.263	n/a	3	15	ButtonPress	Neutral	True
156.77	1.45	Control	0.875	n/a	No	2.978	n/a	5.0	NoResponse	0	0.033	155.803	3	15	Feedback	Neutral	True
158.225	2.978	Control	0.875	n/a	No	2.978	n/a	n/a	NoResponse	0	0.0	n/a	3	15	ISIslide	Neutral	True
161.217	0.25	Win2	0.8824	0.0	Yes	2.883	0.017	n/a	GoodResponse	1	n/a	n/a	4	16	Cue	Win	True
161.468	4.0	Win2	0.8824	0.0	Yes	2.883	0.001	n/a	GoodResponse	1	n/a	n/a	4	16	Fixation	Win	True
165.463	0.24	Win2	0.8824	0.004	Yes	2.883	-0.004	2.0	GoodResponse	1	0.207	164.67	4	16	Target	Win	True
165.67	0.3	Win2	0.8824	0.004	Yes	2.883	-0.004	2.0	GoodResponse	1	0.207	n/a	4	16	ButtonPress	Win	True
165.714	0.46	Win2	0.8824	n/a	Yes	2.883	n/a	n/a	GoodResponse	1	n/a	n/a	4	16	Blank	Win	True
166.165	1.45	Win2	0.8824	n/a	Yes	2.883	n/a	5.0	GoodResponse	1	0.005	165.17	4	16	Feedback	Win	True
167.619	2.883	Win2	0.8824	n/a	Yes	2.883	n/a	n/a	GoodResponse	1	0.0	n/a	4	16	ISIslide	Win	True
170.528	0.25	Lose2	0.8332999999999999	0.0	No	2.722	0.028	n/a	NoResponse	-1	n/a	n/a	3	17	Cue	Loss	True
170.779	3.95	Lose2	0.8332999999999999	0.0	No	2.722	0.001	n/a	NoResponse	-1	n/a	n/a	3	17	Fixation	Loss	True
174.724	0.23	Lose2	0.8332999999999999	0.004	No	2.722	-0.004	2.0	NoResponse	-1	0.285	174.009	3	17	Target	Loss	True
174.958	0.47	Lose2	0.8332999999999999	n/a	No	2.722	n/a	n/a	NoResponse	-1	n/a	n/a	3	17	Blank	Loss	True
175.009	0.3	Lose2	0.8332999999999999	0.004	No	2.722	-0.004	2.0	NoResponse	-1	0.285	n/a	3	17	ButtonPress	Loss	True
175.426	1.45	Lose2	0.8332999999999999	n/a	No	2.722	n/a	5.0	NoResponse	-1	0.012	174.438	3	17	Feedback	Loss	True
176.88	2.722	Lose2	0.8332999999999999	n/a	No	2.722	n/a	n/a	NoResponse	-1	0.0	n/a	3	17	ISIslide	Loss	True
179.622	0.25	Lose2	0.7895	0.0	No	2.728	0.022	n/a	NoResponse	-1	n/a	n/a	2	18	Cue	Loss	True
179.873	4.05	Lose2	0.7895	0.0	No	2.728	0.001	n/a	NoResponse	-1	n/a	n/a	2	18	Fixation	Loss	True
183.918	0.22	Lose2	0.7895	0.004	No	2.728	-0.004	2.0	NoResponse	-1	0.272	183.19	2	18	Target	Loss	True
184.152	0.48	Lose2	0.7895	n/a	No	2.728	n/a	n/a	NoResponse	-1	n/a	n/a	2	18	Blank	Loss	True
184.19	0.3	Lose2	0.7895	0.004	No	2.728	-0.004	2.0	NoResponse	-1	0.272	n/a	2	18	ButtonPress	Loss	True
184.62	1.45	Lose2	0.7895	n/a	No	2.728	n/a	5.0	NoResponse	-1	0.037	183.657	2	18	Feedback	Loss	True
186.075	2.728	Lose2	0.7895	n/a	No	2.728	n/a	n/a	NoResponse	-1	0.0	n/a	2	18	ISIslide	Loss	True
188.816	0.25	Control	0.75	0.0	No	2.934	0.016	n/a	LatePress	0	n/a	n/a	2	19	Cue	Neutral	True
189.067	3.95	Control	0.75	0.0	No	2.934	0.001	n/a	LatePress	0	n/a	n/a	2	19	Fixation	Neutral	True
193.012	0.21	Control	0.75	0.004	No	2.934	-0.004	2.0	LatePress	0	0.216	192.228	2	19	Target	Neutral	True
193.228	0.3	Control	0.75	0.004	No	2.934	-0.004	2.0	LatePress	0	0.216	n/a	2	19	ButtonPress	Neutral	True
193.229	0.49	Control	0.75	n/a	No	2.934	n/a	n/a	LatePress	0	n/a	n/a	2	19	Blank	Neutral	True
193.714	1.45	Control	0.75	n/a	No	2.934	n/a	5.0	LatePress	0	0.016	192.73	2	19	Feedback	Neutral	True
195.169	2.934	Control	0.75	n/a	No	2.934	n/a	n/a	LatePress	0	0.0	n/a	2	19	ISIslide	Neutral	True
198.127	0.25	Control	0.7143	0.001	No	2.623	0.027	n/a	NoResponse	0	n/a	n/a	2	20	Cue	Neutral	True
198.378	4.05	Control	0.7143	0.0	No	2.623	0.001	n/a	NoResponse	0	n/a	n/a	2	20	Fixation	Neutral	True
202.424	0.2	Control	0.7143	0.003	No	2.623	-0.003	2.0	NoResponse	0	0.229	201.653	2	20	Target	Neutral	True
202.624	0.5	Control	0.7143	n/a	No	2.623	n/a	n/a	NoResponse	0	n/a	n/a	2	20	Blank	Neutral	True
202.653	0.3	Control	0.7143	0.003	No	2.623	-0.003	2.0	NoResponse	0	0.229	n/a	2	20	ButtonPress	Neutral	True
203.126	1.45	Control	0.7143	n/a	No	2.623	n/a	5.0	NoResponse	0	0.019	202.145	2	20	Feedback	Neutral	True
204.58	2.623	Control	0.7143	n/a	No	2.623	n/a	n/a	NoResponse	0	0.0	n/a	2	20	ISIslide	Neutral	True
207.221	0.25	Control	0.6818000000000001	0.0	No	2.779	0.021	n/a	LatePress	0	n/a	n/a	2	21	Cue	Neutral	True
207.472	4.1	Control	0.6818000000000001	0.0	No	2.779	0.001	n/a	LatePress	0	n/a	n/a	2	21	Fixation	Neutral	True
211.568	0.19	Control	0.6818000000000001	0.003	No	2.779	-0.003	2.0	LatePress	0	0.199	210.767	2	21	Target	Neutral	True
211.767	0.3	Control	0.6818000000000001	0.003	No	2.779	-0.003	2.0	LatePress	0	0.199	n/a	2	21	ButtonPress	Neutral	True
211.768	0.51	Control	0.6818000000000001	n/a	No	2.779	n/a	n/a	LatePress	0	n/a	n/a	2	21	Blank	Neutral	True
212.27	1.45	Control	0.6818000000000001	n/a	No	2.779	n/a	5.0	LatePress	0	0.045	211.315	2	21	Feedback	Neutral	True
213.724	2.779	Control	0.6818000000000001	n/a	No	2.779	n/a	n/a	LatePress	0	0.0	n/a	2	21	ISIslide	Neutral	True
216.516	0.25	Control	0.6522	0.0	No	2.784	0.016	n/a	NoResponse	0	n/a	n/a	2	22	Cue	Neutral	False
216.767	4.0	Control	0.6522	0.0	No	2.784	0.001	2.0	NoResponse	0	3.285	219.052	2	22	Fixation	Neutral	False
220.052	0.3	Control	0.6522	0.0	No	2.784	0.001	2.0	NoResponse	0	3.285	n/a	2	22	ButtonPress	Neutral	False
220.762	0.18	Control	0.6522	0.004	No	2.784	-0.004	2.0	NoResponse	0	0.209	219.971	2	22	Target	Neutral	False
220.946	0.52	Control	0.6522	n/a	No	2.784	n/a	n/a	NoResponse	0	n/a	n/a	2	22	Blank	Neutral	False
220.971	0.3	Control	0.6522	0.004	No	2.784	-0.004	2.0	NoResponse	0	0.209	n/a	2	22	ButtonPress	Neutral	False
221.464	1.45	Control	0.6522	n/a	No	2.784	n/a	5.0	NoResponse	0	0.022	220.486	2	22	Feedback	Neutral	False
222.918	2.784	Control	0.6522	n/a	No	2.784	n/a	n/a	NoResponse	0	0.0	n/a	2	22	ISIslide	Neutral	False
225.727	0.25	Control	0.625	0.0	No	2.773	0.027	n/a	NoResponse	0	n/a	n/a	2	23	Cue	Neutral	True
225.978	3.9	Control	0.625	0.0	No	2.773	0.001	n/a	NoResponse	0	n/a	n/a	2	23	Fixation	Neutral	True
229.873	0.19	Control	0.625	0.004	No	2.773	-0.004	2.0	NoResponse	0	0.338	229.211	2	23	Target	Neutral	True
230.073	0.51	Control	0.625	n/a	No	2.773	n/a	n/a	NoResponse	0	n/a	n/a	2	23	Blank	Neutral	True
230.211	0.3	Control	0.625	0.004	No	2.773	-0.004	2.0	NoResponse	0	0.338	n/a	2	23	ButtonPress	Neutral	True
230.575	1.45	Control	0.625	n/a	No	2.773	n/a	5.0	NoResponse	0	0.033	229.608	2	23	Feedback	Neutral	True
232.029	2.773	Control	0.625	n/a	No	2.773	n/a	n/a	NoResponse	0	0.0	n/a	2	23	ISIslide	Neutral	True
234.821	0.25	Win2	0.6	0.0	No	3.129	0.021	n/a	NoResponse	0	n/a	n/a	2	24	Cue	MissedWin	True
235.071	3.95	Win2	0.6	0.001	No	3.129	0.0	n/a	NoResponse	0	n/a	n/a	2	24	Fixation	MissedWin	True
239.017	0.2	Win2	0.6	0.004	No	3.129	-0.004	2.0	NoResponse	0	0.204	238.221	2	24	Target	MissedWin	True
239.217	0.5	Win2	0.6	n/a	No	3.129	n/a	n/a	NoResponse	0	n/a	n/a	2	24	Blank	MissedWin	True
239.221	0.3	Win2	0.6	0.004	No	3.129	-0.004	2.0	NoResponse	0	0.204	n/a	2	24	ButtonPress	MissedWin	True
239.719	1.45	Win2	0.6	n/a	No	3.129	n/a	5.0	NoResponse	0	0.011	238.73	2	24	Feedback	MissedWin	True
241.173	3.129	Win2	0.6	n/a	No	3.129	n/a	n/a	NoResponse	0	0.0	n/a	2	24	ISIslide	MissedWin	True
244.316	0.25	Win2	0.6154	0.0	Yes	3.084	0.016	n/a	GoodResponse	1	n/a	n/a	3	25	Cue	Win	True
244.567	4.0	Win2	0.6154	0.0	Yes	3.084	0.001	n/a	GoodResponse	1	n/a	n/a	3	25	Fixation	Win	True
248.562	0.21	Win2	0.6154	0.004	Yes	3.084	-0.004	2.0	GoodResponse	1	0.203	247.765	3	25	Target	Win	True
248.765	0.3	Win2	0.6154	0.004	Yes	3.084	-0.004	2.0	GoodResponse	1	0.203	n/a	3	25	ButtonPress	Win	True
248.779	0.49	Win2	0.6154	n/a	Yes	3.084	n/a	n/a	GoodResponse	1	n/a	n/a	3	25	Blank	Win	True
249.264	1.45	Win2	0.6154	n/a	Yes	3.084	n/a	5.0	GoodResponse	1	0.027	248.291	3	25	Feedback	Win	True
250.718	3.084	Win2	0.6154	n/a	Yes	3.084	n/a	n/a	GoodResponse	1	0.0	n/a	3	25	ISIslide	Win	True
253.828	0.25	Win2	0.6296	0.0	Yes	2.922	0.028	n/a	GoodResponse	1	n/a	n/a	4	26	Cue	Win	True
254.078	3.95	Win2	0.6296	0.001	Yes	2.922	0.0	n/a	GoodResponse	1	n/a	n/a	4	26	Fixation	Win	True
258.024	0.22	Win2	0.6296	0.004	Yes	2.922	-0.004	2.0	GoodResponse	1	0.184	257.208	4	26	Target	Win	True
258.208	0.3	Win2	0.6296	0.004	Yes	2.922	-0.004	2.0	GoodResponse	1	0.184	n/a	4	26	ButtonPress	Win	True
258.258	0.48	Win2	0.6296	n/a	Yes	2.922	n/a	n/a	GoodResponse	1	n/a	n/a	4	26	Blank	Win	True
258.726	1.45	Win2	0.6296	n/a	Yes	2.922	n/a	5.0	GoodResponse	1	0.028	257.754	4	26	Feedback	Win	True
260.18	2.922	Win2	0.6296	n/a	Yes	2.922	n/a	n/a	GoodResponse	1	0.0	n/a	4	26	ISIslide	Win	True
263.122	0.25	Lose2	0.6429	0.0	Yes	2.828	0.022	n/a	GoodResponse	0	n/a	n/a	4	27	Cue	AvoidedLoss	True
263.373	4.05	Lose2	0.6429	0.0	Yes	2.828	0.001	n/a	GoodResponse	0	n/a	n/a	4	27	Fixation	AvoidedLoss	True
267.418	0.23	Lose2	0.6429	0.004	Yes	2.828	-0.004	2.0	GoodResponse	0	0.198	266.616	4	27	Target	AvoidedLoss	True
267.616	0.3	Lose2	0.6429	0.004	Yes	2.828	-0.004	2.0	GoodResponse	0	0.198	n/a	4	27	ButtonPress	AvoidedLoss	True
267.652	0.47	Lose2	0.6429	n/a	Yes	2.828	n/a	n/a	GoodResponse	0	n/a	n/a	4	27	Blank	AvoidedLoss	True
268.12	1.45	Lose2	0.6429	n/a	Yes	2.828	n/a	5.0	GoodResponse	0	0.048	267.168	4	27	Feedback	AvoidedLoss	True
269.575	2.828	Lose2	0.6429	n/a	Yes	2.828	n/a	n/a	GoodResponse	0	0.0	n/a	4	27	ISIslide	AvoidedLoss	True
272.417	0.25	Control	0.6552	0.0	Yes	2.833	0.017	n/a	GoodResponse	0	n/a	n/a	4	28	Cue	Neutral	True
272.667	4.05	Control	0.6552	0.001	Yes	2.833	0.0	n/a	GoodResponse	0	n/a	n/a	4	28	Fixation	Neutral	True
276.713	0.24	Control	0.6552	0.004	Yes	2.833	-0.004	2.0	GoodResponse	0	0.197	275.91	4	28	Target	Neutral	True
276.91	0.3	Control	0.6552	0.004	Yes	2.833	-0.004	2.0	GoodResponse	0	0.197	n/a	4	28	ButtonPress	Neutral	True
276.964	0.46	Control	0.6552	n/a	Yes	2.833	n/a	n/a	GoodResponse	0	n/a	n/a	4	28	Blank	Neutral	True
277.415	1.45	Control	0.6552	n/a	Yes	2.833	n/a	5.0	GoodResponse	0	0.022	276.437	4	28	Feedback	Neutral	True
278.869	2.833	Control	0.6552	n/a	Yes	2.833	n/a	n/a	GoodResponse	0	0.0	n/a	4	28	ISIslide	Neutral	True
281.728	0.25	Lose2	0.6333	0.0	No	2.822	0.028	n/a	NoResponse	-1	n/a	n/a	3	29	Cue	Loss	True
281.979	3.95	Lose2	0.6333	0.0	No	2.822	0.001	n/a	NoResponse	-1	n/a	n/a	3	29	Fixation	Loss	True
285.924	0.24	Lose2	0.6333	0.004	No	2.822	-0.004	2.0	NoResponse	-1	0.262	285.186	3	29	Target	Loss	True
286.175	0.46	Lose2	0.6333	n/a	No	2.822	n/a	n/a	NoResponse	-1	n/a	n/a	3	29	Blank	Loss	True
286.186	0.3	Lose2	0.6333	0.004	No	2.822	-0.004	2.0	NoResponse	-1	0.262	n/a	3	29	ButtonPress	Loss	True
286.626	1.45	Lose2	0.6333	n/a	No	2.822	n/a	5.0	NoResponse	-1	0.03	285.656	3	29	Feedback	Loss	True
288.08	2.822	Lose2	0.6333	n/a	No	2.822	n/a	n/a	NoResponse	-1	0.0	n/a	3	29	ISIslide	Loss	True
290.922	0.25	Win2	0.6452	0.0	Yes	2.778	0.022	n/a	GoodResponse	1	n/a	n/a	4	30	Cue	Win	True
291.173	3.9	Win2	0.6452	0.0	Yes	2.778	0.001	n/a	GoodResponse	1	n/a	n/a	4	30	Fixation	Win	True
295.068	0.25	Win2	0.6452	0.004	Yes	2.778	-0.004	2.0	GoodResponse	1	0.196	294.264	4	30	Target	Win	True
295.264	0.3	Win2	0.6452	0.004	Yes	2.778	-0.004	2.0	GoodResponse	1	0.196	n/a	4	30	ButtonPress	Win	True
295.319	0.45	Win2	0.6452	n/a	Yes	2.778	n/a	n/a	GoodResponse	1	n/a	n/a	4	30	Blank	Win	True
295.77	1.45	Win2	0.6452	n/a	Yes	2.778	n/a	5.0	GoodResponse	1	0.008	294.778	4	30	Feedback	Win	True
297.224	2.778	Win2	0.6452	n/a	Yes	2.778	n/a	n/a	GoodResponse	1	0.0	n/a	4	30	ISIslide	Win	True
300.016	0.25	Lose2	0.6562	0.0	Yes	2.834	0.016	n/a	GoodResponse	0	n/a	n/a	4	31	Cue	AvoidedLoss	True
300.267	4.05	Lose2	0.6562	0.0	Yes	2.834	0.001	n/a	GoodResponse	0	n/a	n/a	4	31	Fixation	AvoidedLoss	True
304.312	0.26	Lose2	0.6562	0.004	Yes	2.834	-0.004	2.0	GoodResponse	0	0.215	303.527	4	31	Target	AvoidedLoss	True
304.527	0.3	Lose2	0.6562	0.004	Yes	2.834	-0.004	2.0	GoodResponse	0	0.215	n/a	4	31	ButtonPress	AvoidedLoss	True
304.58	0.44	Lose2	0.6562	n/a	Yes	2.834	n/a	n/a	GoodResponse	0	n/a	n/a	4	31	Blank	AvoidedLoss	True
305.014	1.45	Lose2	0.6562	n/a	Yes	2.834	n/a	5.0	GoodResponse	0	0.033	304.047	4	31	Feedback	AvoidedLoss	True
306.469	2.834	Lose2	0.6562	n/a	Yes	2.834	n/a	n/a	GoodResponse	0	0.0	n/a	4	31	ISIslide	AvoidedLoss	True
309.327	0.25	Lose2	0.6364	0.0	No	2.623	0.027	n/a	LatePress	-1	n/a	n/a	3	32	Cue	Loss	True
309.578	4.15	Lose2	0.6364	0.0	No	2.623	0.001	n/a	LatePress	-1	n/a	n/a	3	32	Fixation	Loss	True
313.724	0.26	Lose2	0.6364	0.003	No	2.623	-0.003	2.0	LatePress	-1	0.267	312.991	3	32	Target	Loss	True
313.991	0.44	Lose2	0.6364	n/a	No	2.623	n/a	n/a	LatePress	-1	n/a	n/a	3	32	Blank	Loss	True
313.991	0.3	Lose2	0.6364	0.003	No	2.623	-0.003	2.0	LatePress	-1	0.267	n/a	3	32	ButtonPress	Loss	True
314.426	1.45	Lose2	0.6364	n/a	No	2.623	n/a	5.0	LatePress	-1	0.035	313.461	3	32	Feedback	Loss	True
315.88	2.623	Lose2	0.6364	n/a	No	2.623	n/a	n/a	LatePress	-1	0.0	n/a	3	32	ISIslide	Loss	True
318.522	0.25	Win2	0.6470999999999999	0.0	Yes	2.678	0.022	n/a	GoodResponse	1	n/a	n/a	4	33	Cue	Win	True
318.772	4.0	Win2	0.6470999999999999	0.0	Yes	2.678	0.0	n/a	GoodResponse	1	n/a	n/a	4	33	Fixation	Win	True
322.768	0.27	Win2	0.6470999999999999	0.004	Yes	2.678	-0.004	2.0	GoodResponse	1	0.211	321.979	4	33	Target	Win	True
322.979	0.3	Win2	0.6470999999999999	0.004	Yes	2.678	-0.004	2.0	GoodResponse	1	0.211	n/a	4	33	ButtonPress	Win	True
323.052	0.43	Win2	0.6470999999999999	n/a	Yes	2.678	n/a	n/a	GoodResponse	1	n/a	n/a	4	33	Blank	Win	True
323.47	1.45	Win2	0.6470999999999999	n/a	Yes	2.678	n/a	5.0	GoodResponse	1	0.016	322.486	4	33	Feedback	Win	True
324.924	2.678	Win2	0.6470999999999999	n/a	Yes	2.678	n/a	n/a	GoodResponse	1	0.0	n/a	4	33	ISIslide	Win	True
327.615	0.25	Lose2	0.6570999999999999	0.0	Yes	2.635	0.015	n/a	GoodResponse	0	n/a	n/a	4	34	Cue	AvoidedLoss	True
327.866	4.05	Lose2	0.6570999999999999	0.0	Yes	2.635	0.001	n/a	GoodResponse	0	n/a	n/a	4	34	Fixation	AvoidedLoss	True
331.912	0.28	Lose2	0.6570999999999999	0.003	Yes	2.635	-0.003	2.0	GoodResponse	0	0.244	331.156	4	34	Target	AvoidedLoss	True
332.156	0.3	Lose2	0.6570999999999999	0.003	Yes	2.635	-0.003	2.0	GoodResponse	0	0.244	n/a	4	34	ButtonPress	AvoidedLoss	True
332.196	0.42	Lose2	0.6570999999999999	n/a	Yes	2.635	n/a	n/a	GoodResponse	0	n/a	n/a	4	34	Blank	AvoidedLoss	True
332.614	1.45	Lose2	0.6570999999999999	n/a	Yes	2.635	n/a	5.0	GoodResponse	0	0.042	331.656	4	34	Feedback	AvoidedLoss	True
334.068	2.635	Lose2	0.6570999999999999	n/a	Yes	2.635	n/a	n/a	GoodResponse	0	0.0	n/a	4	34	ISIslide	AvoidedLoss	True
336.726	0.25	Lose2	0.6667000000000001	0.0	Yes	2.674	0.026	n/a	GoodResponse	0	n/a	n/a	4	35	Cue	AvoidedLoss	True
336.977	4.0	Lose2	0.6667000000000001	0.0	Yes	2.674	0.001	n/a	GoodResponse	0	n/a	n/a	4	35	Fixation	AvoidedLoss	True
340.972	0.28	Lose2	0.6667000000000001	0.004	Yes	2.674	-0.004	2.0	GoodResponse	0	0.209	340.181	4	35	Target	AvoidedLoss	True
341.181	0.3	Lose2	0.6667000000000001	0.004	Yes	2.674	-0.004	2.0	GoodResponse	0	0.209	n/a	4	35	ButtonPress	AvoidedLoss	True
341.256	0.42	Lose2	0.6667000000000001	n/a	Yes	2.674	n/a	n/a	GoodResponse	0	n/a	n/a	4	35	Blank	AvoidedLoss	True
341.674	1.45	Lose2	0.6667000000000001	n/a	Yes	2.674	n/a	5.0	GoodResponse	0	0.006	340.68	4	35	Feedback	AvoidedLoss	True
343.129	2.674	Lose2	0.6667000000000001	n/a	Yes	2.674	n/a	n/a	GoodResponse	0	0.0	n/a	4	35	ISIslide	AvoidedLoss	True
345.82	0.25	Control	0.6486	0.0	No	2.68	0.02	n/a	LatePress	0	n/a	n/a	4	36	Cue	Neutral	True
346.071	4.0	Control	0.6486	0.0	No	2.68	0.001	n/a	LatePress	0	n/a	n/a	4	36	Fixation	Neutral	True
350.066	0.27	Control	0.6486	0.004	No	2.68	-0.004	2.0	LatePress	0	0.28	349.346	4	36	Target	Neutral	True
350.346	0.3	Control	0.6486	0.004	No	2.68	-0.004	2.0	LatePress	0	0.28	n/a	4	36	ButtonPress	Neutral	True
350.35	0.43	Control	0.6486	n/a	No	2.68	n/a	n/a	LatePress	0	n/a	n/a	4	36	Blank	Neutral	True
350.768	1.45	Control	0.6486	n/a	No	2.68	n/a	5.0	LatePress	0	0.034	349.802	4	36	Feedback	Neutral	True
352.222	2.68	Control	0.6486	n/a	No	2.68	n/a	n/a	LatePress	0	0.0	n/a	4	36	ISIslide	Neutral	True
354.914	0.25	Win2	0.6579	0.0	Yes	2.886	0.014	n/a	GoodResponse	1	n/a	n/a	5	37	Cue	Win	True
355.165	4.0	Win2	0.6579	0.0	Yes	2.886	0.001	n/a	GoodResponse	1	n/a	n/a	5	37	Fixation	Win	True
359.16	0.28	Win2	0.6579	0.004	Yes	2.886	-0.004	2.0	GoodResponse	1	0.2	358.36	5	37	Target	Win	True
359.36	0.3	Win2	0.6579	0.004	Yes	2.886	-0.004	2.0	GoodResponse	1	0.2	n/a	5	37	ButtonPress	Win	True
359.444	0.42	Win2	0.6579	n/a	Yes	2.886	n/a	n/a	GoodResponse	1	n/a	n/a	5	37	Blank	Win	True
359.862	1.45	Win2	0.6579	n/a	Yes	2.886	n/a	5.0	GoodResponse	1	0.013	358.875	5	37	Feedback	Win	True
361.316	2.886	Win2	0.6579	n/a	Yes	2.886	n/a	n/a	GoodResponse	1	0.0	n/a	5	37	ISIslide	Win	True
364.225	0.25	Lose2	0.6409999999999999	0.0	No	2.825	0.025	n/a	NoResponse	-1	n/a	n/a	4	38	Cue	Loss	True
364.476	3.95	Lose2	0.6409999999999999	0.0	No	2.825	0.001	n/a	NoResponse	-1	n/a	n/a	4	38	Fixation	Loss	True
368.421	0.28	Lose2	0.6409999999999999	0.004	No	2.825	-0.004	2.0	NoResponse	-1	0.38	367.801	4	38	Target	Loss	True
368.705	0.42	Lose2	0.6409999999999999	n/a	No	2.825	n/a	n/a	NoResponse	-1	n/a	n/a	4	38	Blank	Loss	True
368.801	0.3	Lose2	0.6409999999999999	0.004	No	2.825	-0.004	2.0	NoResponse	-1	0.38	n/a	4	38	ButtonPress	Loss	True
369.123	1.45	Lose2	0.6409999999999999	n/a	No	2.825	n/a	5.0	NoResponse	-1	0.021	368.144	4	38	Feedback	Loss	True
370.577	2.825	Lose2	0.6409999999999999	n/a	No	2.825	n/a	n/a	NoResponse	-1	0.0	n/a	4	38	ISIslide	Loss	True
373.419	0.25	Win2	0.65	0.0	Yes	2.981	0.019	n/a	GoodResponse	1	n/a	n/a	5	39	Cue	Win	True
373.67	4.1	Win2	0.65	0.0	Yes	2.981	0.001	n/a	GoodResponse	1	n/a	n/a	5	39	Fixation	Win	True
377.766	0.29	Win2	0.65	0.003	Yes	2.981	-0.003	2.0	GoodResponse	1	0.228	376.994	5	39	Target	Win	True
377.994	0.3	Win2	0.65	0.003	Yes	2.981	-0.003	2.0	GoodResponse	1	0.228	n/a	5	39	ButtonPress	Win	True
378.067	0.41	Win2	0.65	n/a	Yes	2.981	n/a	n/a	GoodResponse	1	n/a	n/a	5	39	Blank	Win	True
378.468	1.45	Win2	0.65	n/a	Yes	2.981	n/a	5.0	GoodResponse	1	0.042	377.51	5	39	Feedback	Win	True
379.922	2.981	Win2	0.65	n/a	Yes	2.981	n/a	n/a	GoodResponse	1	0.0	n/a	5	39	ISIslide	Win	True
382.914	0.25	Win2	0.6585	0.001	Yes	2.736	0.014	n/a	GoodResponse	1	n/a	n/a	6	40	Cue	Win	True
383.165	3.95	Win2	0.6585	0.0	Yes	2.736	0.001	n/a	GoodResponse	1	n/a	n/a	6	40	Fixation	Win	True
387.11	0.3	Win2	0.6585	0.004	Yes	2.736	-0.004	2.0	GoodResponse	1	0.251	386.361	6	40	Target	Win	True
387.361	0.3	Win2	0.6585	0.004	Yes	2.736	-0.004	2.0	GoodResponse	1	0.251	n/a	6	40	ButtonPress	Win	True
387.411	0.4	Win2	0.6585	n/a	Yes	2.736	n/a	n/a	GoodResponse	1	n/a	n/a	6	40	Blank	Win	True
387.812	1.45	Win2	0.6585	n/a	Yes	2.736	n/a	5.0	GoodResponse	1	0.014	386.826	6	40	Feedback	Win	True
389.267	2.736	Win2	0.6585	n/a	Yes	2.736	n/a	n/a	GoodResponse	1	0.0	n/a	6	40	ISIslide	Win	True
392.025	0.25	Win2	0.6667000000000001	0.0	Yes	2.775	0.025	n/a	GoodResponse	1	n/a	n/a	7	41	Cue	Win	True
392.276	3.9	Win2	0.6667000000000001	0.0	Yes	2.775	0.001	n/a	GoodResponse	1	n/a	n/a	7	41	Fixation	Win	True
396.171	0.3	Win2	0.6667000000000001	0.004	Yes	2.775	-0.004	2.0	GoodResponse	1	0.196	395.367	7	41	Target	Win	True
396.367	0.3	Win2	0.6667000000000001	0.004	Yes	2.775	-0.004	2.0	GoodResponse	1	0.196	n/a	7	41	ButtonPress	Win	True
396.472	0.4	Win2	0.6667000000000001	n/a	Yes	2.775	n/a	n/a	GoodResponse	1	n/a	n/a	7	41	Blank	Win	True
396.873	1.45	Win2	0.6667000000000001	n/a	Yes	2.775	n/a	5.0	GoodResponse	1	0.026	395.899	7	41	Feedback	Win	True
398.327	2.775	Win2	0.6667000000000001	n/a	Yes	2.775	n/a	n/a	GoodResponse	1	0.0	n/a	7	41	ISIslide	Win	True
401.119	0.25	Control	0.6744	0.0	Yes	2.931	0.019	n/a	GoodResponse	0	n/a	n/a	7	42	Cue	Neutral	True
401.37	3.85	Control	0.6744	0.0	Yes	2.931	0.001	n/a	GoodResponse	0	n/a	n/a	7	42	Fixation	Neutral	True
405.215	0.29	Control	0.6744	0.004	Yes	2.931	-0.004	2.0	GoodResponse	0	0.229	404.444	7	42	Target	Neutral	True
405.444	0.3	Control	0.6744	0.004	Yes	2.931	-0.004	2.0	GoodResponse	0	0.229	n/a	7	42	ButtonPress	Neutral	True
405.516	0.41	Control	0.6744	n/a	Yes	2.931	n/a	n/a	GoodResponse	0	n/a	n/a	7	42	Blank	Neutral	True
405.917	1.45	Control	0.6744	n/a	Yes	2.931	n/a	5.0	GoodResponse	0	0.007	404.924	7	42	Feedback	Neutral	True
407.371	2.931	Control	0.6744	n/a	Yes	2.931	n/a	n/a	GoodResponse	0	0.0	n/a	7	42	ISIslide	Neutral	True
410.33	0.25	Win2	0.6818000000000001	0.0	Yes	3.17	0.03	n/a	GoodResponse	1	n/a	n/a	8	43	Cue	Win	True
410.581	4.0	Win2	0.6818000000000001	0.0	Yes	3.17	0.001	n/a	GoodResponse	1	n/a	n/a	8	43	Fixation	Win	True
414.576	0.28	Win2	0.6818000000000001	0.004	Yes	3.17	-0.004	2.0	GoodResponse	1	0.195	413.771	8	43	Target	Win	True
414.771	0.3	Win2	0.6818000000000001	0.004	Yes	3.17	-0.004	2.0	GoodResponse	1	0.195	n/a	8	43	ButtonPress	Win	True
414.86	0.42	Win2	0.6818000000000001	n/a	Yes	3.17	n/a	n/a	GoodResponse	1	n/a	n/a	8	43	Blank	Win	True
415.278	1.45	Win2	0.6818000000000001	n/a	Yes	3.17	n/a	5.0	GoodResponse	1	0.012	414.29	8	43	Feedback	Win	True
416.732	3.17	Win2	0.6818000000000001	n/a	Yes	3.17	n/a	n/a	GoodResponse	1	0.0	n/a	8	43	ISIslide	Win	True
419.925	0.25	Win2	0.6667000000000001	0.0	No	2.975	0.025	n/a	NoResponse	0	n/a	n/a	8	44	Cue	MissedWin	False
420.176	4.0	Win2	0.6667000000000001	0.0	No	2.975	0.001	n/a	NoResponse	0	n/a	n/a	8	44	Fixation	MissedWin	False
424.171	0.27	Win2	0.6667000000000001	0.004	No	2.975	-0.004	n/a	NoResponse	0	n/a	n/a	8	44	Target	MissedWin	False
424.456	0.43	Win2	0.6667000000000001	n/a	No	2.975	n/a	n/a	NoResponse	0	n/a	n/a	8	44	Blank	MissedWin	False
424.874	1.45	Win2	0.6667000000000001	n/a	No	2.975	n/a	5.0	NoResponse	0	0.026	423.9	8	44	Feedback	MissedWin	False
426.328	2.975	Win2	0.6667000000000001	n/a	No	2.975	n/a	n/a	NoResponse	0	0.0	n/a	8	44	ISIslide	MissedWin	False
429.32	0.25	Control	0.6739	0.0	Yes	2.88	0.02	n/a	GoodResponse	0	n/a	n/a	8	45	Cue	Neutral	True
429.571	4.1	Control	0.6739	0.0	Yes	2.88	0.001	n/a	GoodResponse	0	n/a	n/a	8	45	Fixation	Neutral	True
433.667	0.26	Control	0.6739	0.003	Yes	2.88	-0.003	2.0	GoodResponse	0	0.22	432.887	8	45	Target	Neutral	True
433.887	0.3	Control	0.6739	0.003	Yes	2.88	-0.003	2.0	GoodResponse	0	0.22	n/a	8	45	ButtonPress	Neutral	True
433.934	0.44	Control	0.6739	n/a	Yes	2.88	n/a	n/a	GoodResponse	0	n/a	n/a	8	45	Blank	Neutral	True
434.369	1.45	Control	0.6739	n/a	Yes	2.88	n/a	5.0	GoodResponse	0	0.043	433.412	8	45	Feedback	Neutral	True
435.823	2.88	Control	0.6739	n/a	Yes	2.88	n/a	n/a	GoodResponse	0	0.0	n/a	8	45	ISIslide	Neutral	True
438.715	0.25	Lose2	0.6809000000000001	0.0	Yes	3.385	0.015	n/a	GoodResponse	0	n/a	n/a	8	46	Cue	AvoidedLoss	True
438.966	4.0	Lose2	0.6809000000000001	0.0	Yes	3.385	0.001	n/a	GoodResponse	0	n/a	n/a	8	46	Fixation	AvoidedLoss	True
442.961	0.25	Lose2	0.6809000000000001	0.004	Yes	3.385	-0.004	2.0	GoodResponse	0	0.208	442.169	8	46	Target	AvoidedLoss	True
443.169	0.3	Lose2	0.6809000000000001	0.004	Yes	3.385	-0.004	2.0	GoodResponse	0	0.208	n/a	8	46	ButtonPress	AvoidedLoss	True
443.212	0.45	Lose2	0.6809000000000001	n/a	Yes	3.385	n/a	n/a	GoodResponse	0	n/a	n/a	8	46	Blank	AvoidedLoss	True
443.663	1.45	Lose2	0.6809000000000001	n/a	Yes	3.385	n/a	5.0	GoodResponse	0	0.017	442.68	8	46	Feedback	AvoidedLoss	True
445.118	3.385	Lose2	0.6809000000000001	n/a	Yes	3.385	n/a	n/a	GoodResponse	0	0.0	n/a	8	46	ISIslide	AvoidedLoss	True
448.528	0.25	Lose2	0.6875	0.0	Yes	2.672	0.028	n/a	GoodResponse	0	n/a	n/a	8	47	Cue	AvoidedLoss	True
448.778	4.0	Lose2	0.6875	0.001	Yes	2.672	0.0	n/a	GoodResponse	0	n/a	n/a	8	47	Fixation	AvoidedLoss	True
452.774	0.24	Lose2	0.6875	0.004	Yes	2.672	-0.004	2.0	GoodResponse	0	0.226	452.0	8	47	Target	AvoidedLoss	True
453	0.3	Lose2	0.6875	0.004	Yes	2.672	-0.004	2.0	GoodResponse	0	0.226	n/a	8	47	ButtonPress	AvoidedLoss	True
453.025	0.46	Lose2	0.6875	n/a	Yes	2.672	n/a	n/a	GoodResponse	0	n/a	n/a	8	47	Blank	AvoidedLoss	True
453.476	1.45	Lose2	0.6875	n/a	Yes	2.672	n/a	5.0	GoodResponse	0	0.008	452.484	8	47	Feedback	AvoidedLoss	True
454.93	2.672	Lose2	0.6875	n/a	Yes	2.672	n/a	n/a	GoodResponse	0	0.0	n/a	8	47	ISIslide	AvoidedLoss	True
457.622	0.25	Lose2	0.6735	0.0	No	3.028	0.022	n/a	NoResponse	-1	n/a	n/a	7	48	Cue	Loss	False
457.872	3.95	Lose2	0.6735	0.0	No	3.028	0.0	n/a	NoResponse	-1	n/a	n/a	7	48	Fixation	Loss	False
461.818	0.23	Lose2	0.6735	0.004	No	3.028	-0.004	n/a	NoResponse	-1	n/a	n/a	7	48	Target	Loss	False
462.052	0.47	Lose2	0.6735	n/a	No	3.028	n/a	n/a	NoResponse	-1	n/a	n/a	7	48	Blank	Loss	False
462.52	1.45	Lose2	0.6735	n/a	No	3.028	n/a	5.0	NoResponse	-1	0.037	461.557	7	48	Feedback	Loss	False
463.974	3.028	Lose2	0.6735	n/a	No	3.028	n/a	n/a	NoResponse	-1	0.0	n/a	7	48	ISIslide	Loss	False
467.016	0.25	Control	0.68	0.001	Yes	2.884	0.016	n/a	GoodResponse	0	n/a	n/a	7	49	Cue	Neutral	False
467.267	4.0	Control	0.68	0.0	Yes	2.884	0.001	2.0	GoodResponse	0	1.01	467.277	7	49	Fixation	Neutral	False
468.277	0.3	Control	0.68	0.0	Yes	2.884	0.001	2.0	GoodResponse	0	1.01	n/a	7	49	ButtonPress	Neutral	False
471.263	0.22	Control	0.68	0.003	Yes	2.884	-0.003	2.0	GoodResponse	0	0.206	470.469	7	49	Target	Neutral	False
471.469	0.3	Control	0.68	0.003	Yes	2.884	-0.003	2.0	GoodResponse	0	0.206	n/a	7	49	ButtonPress	Neutral	False
471.497	0.48	Control	0.68	n/a	Yes	2.884	n/a	n/a	GoodResponse	0	n/a	n/a	7	49	Blank	Neutral	False
471.965	1.45	Control	0.68	n/a	Yes	2.884	n/a	5.0	GoodResponse	0	0.007	470.972	7	49	Feedback	Neutral	False
473.419	2.884	Control	0.68	n/a	Yes	2.884	n/a	n/a	GoodResponse	0	0.0	n/a	7	49	ISIslide	Neutral	False
476.328	0.25	Control	0.6667000000000001	0.0	No	2.772	0.028	n/a	NoResponse	0	n/a	n/a	7	50	Cue	Neutral	True
476.578	4.0	Control	0.6667000000000001	0.001	No	2.772	0.0	n/a	NoResponse	0	n/a	n/a	7	50	Fixation	Neutral	True
480.574	0.21	Control	0.6667000000000001	0.004	No	2.772	-0.004	2.0	NoResponse	0	0.299	479.873	7	50	Target	Neutral	True
480.791	0.49	Control	0.6667000000000001	n/a	No	2.772	n/a	n/a	NoResponse	0	n/a	n/a	7	50	Blank	Neutral	True
480.873	0.3	Control	0.6667000000000001	0.004	No	2.772	-0.004	2.0	NoResponse	0	0.299	n/a	7	50	ButtonPress	Neutral	True
481.276	1.45	Control	0.6667000000000001	n/a	No	2.772	n/a	5.0	NoResponse	0	0.013	480.289	7	50	Feedback	Neutral	True
482.73	2.772	Control	0.6667000000000001	n/a	No	2.772	n/a	n/a	NoResponse	0	0.0	n/a	7	50	ISIslide	Neutral	True
485.522	0.25	Control	0.6537999999999999	0.0	No	2.728	0.022	n/a	NoResponse	0	n/a	n/a	7	51	Cue	Neutral	True
485.773	3.95	Control	0.6537999999999999	0.0	No	2.728	0.001	n/a	NoResponse	0	n/a	n/a	7	51	Fixation	Neutral	True
489.718	0.2	Control	0.6537999999999999	0.004	No	2.728	-0.004	2.0	NoResponse	0	0.235	488.953	7	51	Target	Neutral	True
489.918	0.5	Control	0.6537999999999999	n/a	No	2.728	n/a	n/a	NoResponse	0	n/a	n/a	7	51	Blank	Neutral	True
489.953	0.3	Control	0.6537999999999999	0.004	No	2.728	-0.004	2.0	NoResponse	0	0.235	n/a	7	51	ButtonPress	Neutral	True
490.42	1.45	Control	0.6537999999999999	n/a	No	2.728	n/a	5.0	NoResponse	0	0.04	489.46	7	51	Feedback	Neutral	True
491.874	2.728	Control	0.6537999999999999	n/a	No	2.728	n/a	n/a	NoResponse	0	0.0	n/a	7	51	ISIslide	Neutral	True
494.616	0.25	Control	0.6415000000000001	0.0	No	2.634	0.016	n/a	NoResponse	0	n/a	n/a	7	52	Cue	Neutral	True
494.867	4.05	Control	0.6415000000000001	0.0	No	2.634	0.001	n/a	NoResponse	0	n/a	n/a	7	52	Fixation	Neutral	True
498.912	0.21	Control	0.6415000000000001	0.004	No	2.634	-0.004	2.0	NoResponse	0	0.25	498.162	7	52	Target	Neutral	True
499.129	0.49	Control	0.6415000000000001	n/a	No	2.634	n/a	n/a	NoResponse	0	n/a	n/a	7	52	Blank	Neutral	True
499.162	0.3	Control	0.6415000000000001	0.004	No	2.634	-0.004	2.0	NoResponse	0	0.25	n/a	7	52	ButtonPress	Neutral	True
499.614	1.45	Control	0.6415000000000001	n/a	No	2.634	n/a	5.0	NoResponse	0	0.017	498.631	7	52	Feedback	Neutral	True
501.068	2.634	Control	0.6415000000000001	n/a	No	2.634	n/a	n/a	NoResponse	0	0.0	n/a	7	52	ISIslide	Neutral	True
503.726	0.25	Win2	0.6296	0.001	No	2.924	0.026	n/a	NoResponse	0	n/a	n/a	7	53	Cue	MissedWin	True
503.977	4.05	Win2	0.6296	0.0	No	2.924	0.001	n/a	NoResponse	0	n/a	n/a	7	53	Fixation	MissedWin	True
508.023	0.22	Win2	0.6296	0.003	No	2.924	-0.003	2.0	NoResponse	0	0.294	507.317	7	53	Target	MissedWin	True
508.257	0.48	Win2	0.6296	n/a	No	2.924	n/a	n/a	NoResponse	0	n/a	n/a	7	53	Blank	MissedWin	True
508.317	0.3	Win2	0.6296	0.003	No	2.924	-0.003	2.0	NoResponse	0	0.294	n/a	7	53	ButtonPress	MissedWin	True
508.725	1.45	Win2	0.6296	n/a	No	2.924	n/a	5.0	NoResponse	0	0.027	507.752	7	53	Feedback	MissedWin	True
510.179	2.924	Win2	0.6296	n/a	No	2.924	n/a	n/a	NoResponse	0	0.0	n/a	7	53	ISIslide	MissedWin	True
513.121	0.25	Win2	0.6364	0.0	Yes	2.729	0.021	n/a	GoodResponse	1	n/a	n/a	8	54	Cue	Win	True
513.372	3.95	Win2	0.6364	0.0	Yes	2.729	0.001	n/a	GoodResponse	1	n/a	n/a	8	54	Fixation	Win	True
517.317	0.23	Win2	0.6364	0.004	Yes	2.729	-0.004	2.0	GoodResponse	1	0.209	516.526	8	54	Target	Win	True
517.526	0.3	Win2	0.6364	0.004	Yes	2.729	-0.004	2.0	GoodResponse	1	0.209	n/a	8	54	ButtonPress	Win	True
517.551	0.47	Win2	0.6364	n/a	Yes	2.729	n/a	n/a	GoodResponse	1	n/a	n/a	8	54	Blank	Win	True
518.019	1.45	Win2	0.6364	n/a	Yes	2.729	n/a	5.0	GoodResponse	1	0.005	517.024	8	54	Feedback	Win	True
519.474	2.729	Win2	0.6364	n/a	Yes	2.729	n/a	n/a	GoodResponse	1	0.0	n/a	8	54	ISIslide	Win	True
522.215	0.25	Control	0.625	0.0	No	3.035	0.015	n/a	NoResponse	0	n/a	n/a	8	55	Cue	Neutral	True
522.466	3.95	Control	0.625	0.0	No	3.035	0.001	n/a	NoResponse	0	n/a	n/a	8	55	Fixation	Neutral	True
526.411	0.24	Control	0.625	0.004	No	3.035	-0.004	2.0	NoResponse	0	0.292	525.703	8	55	Target	Neutral	True
526.662	0.46	Control	0.625	n/a	No	3.035	n/a	n/a	NoResponse	0	n/a	n/a	8	55	Blank	Neutral	True
526.703	0.3	Control	0.625	0.004	No	3.035	-0.004	2.0	NoResponse	0	0.292	n/a	8	55	ButtonPress	Neutral	True
527.113	1.45	Control	0.625	n/a	No	3.035	n/a	5.0	NoResponse	0	0.03	526.143	8	55	Feedback	Neutral	True
528.568	3.035	Control	0.625	n/a	No	3.035	n/a	n/a	NoResponse	0	0.0	n/a	8	55	ISIslide	Neutral	True
531.627	0.25	Control	0.614	0.0	No	2.823	0.027	n/a	NoResponse	0	n/a	n/a	8	56	Cue	Neutral	True
531.877	3.95	Control	0.614	0.001	No	2.823	0.0	n/a	NoResponse	0	n/a	n/a	8	56	Fixation	Neutral	True
535.823	0.25	Control	0.614	0.004	No	2.823	-0.004	2.0	NoResponse	0	0.259	535.082	8	56	Target	Neutral	True
536.073	0.45	Control	0.614	n/a	No	2.823	n/a	n/a	NoResponse	0	n/a	n/a	8	56	Blank	Neutral	True
536.082	0.3	Control	0.614	0.004	No	2.823	-0.004	2.0	NoResponse	0	0.259	n/a	8	56	ButtonPress	Neutral	True
536.525	1.45	Control	0.614	n/a	No	2.823	n/a	5.0	NoResponse	0	0.032	535.557	8	56	Feedback	Neutral	True
537.979	2.823	Control	0.614	n/a	No	2.823	n/a	n/a	NoResponse	0	0.0	n/a	8	56	ISIslide	Neutral	True
540.821	0.25	Control	0.6034	0.0	No	3.479	0.021	n/a	NoResponse	0	n/a	n/a	8	57	Cue	Neutral	True
541.072	4.0	Control	0.6034	0.0	No	3.479	0.001	n/a	NoResponse	0	n/a	n/a	8	57	Fixation	Neutral	True
545.067	0.26	Control	0.6034	0.004	No	3.479	-0.004	2.0	NoResponse	0	0.281	544.348	8	57	Target	Neutral	True
545.334	0.44	Control	0.6034	n/a	No	3.479	n/a	n/a	NoResponse	0	n/a	n/a	8	57	Blank	Neutral	True
545.348	0.3	Control	0.6034	0.004	No	3.479	-0.004	2.0	NoResponse	0	0.281	n/a	8	57	ButtonPress	Neutral	True
545.769	1.45	Control	0.6034	n/a	No	3.479	n/a	5.0	NoResponse	0	0.008	544.777	8	57	Feedback	Neutral	True
547.223	3.479	Control	0.6034	n/a	No	3.479	n/a	n/a	NoResponse	0	0.0	n/a	8	57	ISIslide	Neutral	True
550.717	0.25	Win2	0.6102000000000001	0.0	Yes	2.733	0.017	n/a	GoodResponse	1	n/a	n/a	9	58	Cue	Win	True
550.968	4.05	Win2	0.6102000000000001	0.0	Yes	2.733	0.001	n/a	GoodResponse	1	n/a	n/a	9	58	Fixation	Win	True
555.013	0.27	Win2	0.6102000000000001	0.004	Yes	2.733	-0.004	2.0	GoodResponse	1	0.232	554.245	9	58	Target	Win	True
555.245	0.3	Win2	0.6102000000000001	0.004	Yes	2.733	-0.004	2.0	GoodResponse	1	0.232	n/a	9	58	ButtonPress	Win	True
555.298	0.43	Win2	0.6102000000000001	n/a	Yes	2.733	n/a	n/a	GoodResponse	1	n/a	n/a	9	58	Blank	Win	True
555.716	1.45	Win2	0.6102000000000001	n/a	Yes	2.733	n/a	5.0	GoodResponse	1	0.012	554.728	9	58	Feedback	Win	True
557.17	2.733	Win2	0.6102000000000001	n/a	Yes	2.733	n/a	n/a	GoodResponse	1	0.0	n/a	9	58	ISIslide	Win	True
559.928	0.25	Lose2	0.6167	0.0	Yes	2.672	0.028	n/a	GoodResponse	0	n/a	n/a	9	59	Cue	AvoidedLoss	True
560.179	4.0	Lose2	0.6167	0.0	Yes	2.672	0.001	n/a	GoodResponse	0	n/a	n/a	9	59	Fixation	AvoidedLoss	True
564.174	0.28	Lose2	0.6167	0.004	Yes	2.672	-0.004	2.0	GoodResponse	0	0.236	563.41	9	59	Target	AvoidedLoss	True
564.41	0.3	Lose2	0.6167	0.004	Yes	2.672	-0.004	2.0	GoodResponse	0	0.236	n/a	9	59	ButtonPress	AvoidedLoss	True
564.458	0.42	Lose2	0.6167	n/a	Yes	2.672	n/a	n/a	GoodResponse	0	n/a	n/a	9	59	Blank	AvoidedLoss	True
564.876	1.45	Lose2	0.6167	n/a	Yes	2.672	n/a	5.0	GoodResponse	0	0.022	563.898	9	59	Feedback	AvoidedLoss	True
566.331	2.672	Lose2	0.6167	n/a	Yes	2.672	n/a	n/a	GoodResponse	0	0.0	n/a	9	59	ISIslide	AvoidedLoss	True
569.022	0.25	Control	0.623	0.0	Yes	2.678	0.022	n/a	GoodResponse	0	n/a	n/a	9	60	Cue	Neutral	True
569.273	4.0	Control	0.623	0.0	Yes	2.678	0.001	n/a	GoodResponse	0	n/a	n/a	9	60	Fixation	Neutral	True
573.268	0.29	Control	0.623	0.004	Yes	2.678	-0.004	2.0	GoodResponse	0	0.208	572.476	9	60	Target	Neutral	True
573.476	0.3	Control	0.623	0.004	Yes	2.678	-0.004	2.0	GoodResponse	0	0.208	n/a	9	60	ButtonPress	Neutral	True
573.569	0.41	Control	0.623	n/a	Yes	2.678	n/a	n/a	GoodResponse	0	n/a	n/a	9	60	Blank	Neutral	True
573.97	1.45	Control	0.623	n/a	Yes	2.678	n/a	5.0	GoodResponse	0	0.001	572.971	9	60	Feedback	Neutral	True
575.425	2.678	Control	0.623	n/a	Yes	2.678	n/a	n/a	GoodResponse	0	0.0	n/a	9	60	ISIslide	Neutral	True
578.116	0.25	Lose2	0.629	0.0	Yes	2.984	0.016	n/a	GoodResponse	0	n/a	n/a	9	61	Cue	AvoidedLoss	True
578.367	4.0	Lose2	0.629	0.0	Yes	2.984	0.001	n/a	GoodResponse	0	n/a	n/a	9	61	Fixation	AvoidedLoss	True
582.362	0.3	Lose2	0.629	0.004	Yes	2.984	-0.004	2.0	GoodResponse	0	0.208	581.57	9	61	Target	AvoidedLoss	True
582.57	0.3	Lose2	0.629	0.004	Yes	2.984	-0.004	2.0	GoodResponse	0	0.208	n/a	9	61	ButtonPress	AvoidedLoss	True
582.663	0.4	Lose2	0.629	n/a	Yes	2.984	n/a	n/a	GoodResponse	0	n/a	n/a	9	61	Blank	AvoidedLoss	True
583.064	1.45	Lose2	0.629	n/a	Yes	2.984	n/a	5.0	GoodResponse	0	0.029	582.093	9	61	Feedback	AvoidedLoss	True
584.519	2.984	Lose2	0.629	n/a	Yes	2.984	n/a	n/a	GoodResponse	0	0.0	n/a	9	61	ISIslide	AvoidedLoss	True
587.528	0.25	Lose2	0.6349	0.0	Yes	2.872	0.028	n/a	GoodResponse	0	n/a	n/a	9	62	Cue	AvoidedLoss	True
587.778	3.9	Lose2	0.6349	0.0	Yes	2.872	0.0	n/a	GoodResponse	0	n/a	n/a	9	62	Fixation	AvoidedLoss	True
591.69	0.31	Lose2	0.6349	0.0	Yes	2.872	0.012	2.0	GoodResponse	0	0.207	590.897	9	62	Target	AvoidedLoss	True
591.897	0.3	Lose2	0.6349	0.0	Yes	2.872	0.012	2.0	GoodResponse	0	0.207	n/a	9	62	ButtonPress	AvoidedLoss	True
591.991	0.39	Lose2	0.6349	n/a	Yes	2.872	n/a	n/a	GoodResponse	0	n/a	n/a	9	62	Blank	AvoidedLoss	True
592.375	1.45	Lose2	0.6349	n/a	Yes	2.872	n/a	5.0	GoodResponse	0	0.036	591.411	9	62	Feedback	AvoidedLoss	True
593.83	2.872	Lose2	0.6349	n/a	Yes	2.872	n/a	n/a	GoodResponse	0	0.0	n/a	9	62	ISIslide	AvoidedLoss	True
596.722	0.25	Lose2	0.625	0.0	No	2.628	0.022	n/a	NoResponse	-1	n/a	n/a	8	63	Cue	Loss	False
596.973	4.05	Lose2	0.625	0.0	No	2.628	0.001	n/a	NoResponse	-1	n/a	n/a	8	63	Fixation	Loss	False
601.018	0.32	Lose2	0.625	0.004	No	2.628	-0.004	n/a	NoResponse	-1	n/a	n/a	8	63	Target	Loss	False
601.352	0.38	Lose2	0.625	n/a	No	2.628	n/a	n/a	NoResponse	-1	n/a	n/a	8	63	Blank	Loss	False
601.72	1.45	Lose2	0.625	n/a	No	2.628	n/a	5.0	NoResponse	-1	0.008	600.728	8	63	Feedback	Loss	False
603.174	2.628	Lose2	0.625	n/a	No	2.628	n/a	n/a	NoResponse	-1	0.0	n/a	8	63	ISIslide	Loss	False
605.816	0.25	Win2	0.6308	0.0	Yes	3.134	0.016	n/a	GoodResponse	1	n/a	n/a	9	64	Cue	Win	True
606.066	4.15	Win2	0.6308	0.001	Yes	3.134	0.0	n/a	GoodResponse	1	n/a	n/a	9	64	Fixation	Win	True
610.212	0.33	Win2	0.6308	0.004	Yes	3.134	-0.004	2.0	GoodResponse	1	0.201	609.413	9	64	Target	Win	True
610.413	0.3	Win2	0.6308	0.004	Yes	3.134	-0.004	2.0	GoodResponse	1	0.201	n/a	9	64	ButtonPress	Win	True
610.547	0.37	Win2	0.6308	n/a	Yes	3.134	n/a	n/a	GoodResponse	1	n/a	n/a	9	64	Blank	Win	True
610.914	1.45	Win2	0.6308	n/a	Yes	3.134	n/a	5.0	GoodResponse	1	0.033	609.947	9	64	Feedback	Win	True
612.369	3.134	Win2	0.6308	n/a	Yes	3.134	n/a	n/a	GoodResponse	1	0.0	n/a	9	64	ISIslide	Win	True
615.528	0.25	Control	0.6212	0.0	No	2.772	0.028	n/a	NoResponse	0	n/a	n/a	9	65	Cue	Neutral	True
615.779	4.0	Control	0.6212	0.0	No	2.772	0.001	n/a	NoResponse	0	n/a	n/a	9	65	Fixation	Neutral	True
619.774	0.34	Control	0.6212	0.004	No	2.772	-0.004	2.0	NoResponse	0	0.693	619.467	9	65	Target	Neutral	True
620.125	0.36	Control	0.6212	n/a	No	2.772	n/a	n/a	NoResponse	0	n/a	n/a	9	65	Blank	Neutral	True
620.467	0.3	Control	0.6212	0.004	No	2.772	-0.004	2.0	NoResponse	0	0.693	n/a	9	65	ButtonPress	Neutral	True
620.476	1.45	Control	0.6212	n/a	No	2.772	n/a	5.0	NoResponse	0	0.032	619.508	9	65	Feedback	Neutral	True
621.931	2.772	Control	0.6212	n/a	No	2.772	n/a	n/a	NoResponse	0	0.0	n/a	9	65	ISIslide	Neutral	True
624.722	0.25	Win2	0.6269	0.0	Yes	2.778	0.022	n/a	GoodResponse	1	n/a	n/a	10	66	Cue	Win	True
624.973	3.9	Win2	0.6269	0.0	Yes	2.778	0.001	n/a	GoodResponse	1	n/a	n/a	10	66	Fixation	Win	True
628.868	0.35	Win2	0.6269	0.004	Yes	2.778	-0.004	2.0	GoodResponse	1	0.219	628.087	10	66	Target	Win	True
629.087	0.3	Win2	0.6269	0.004	Yes	2.778	-0.004	2.0	GoodResponse	1	0.219	n/a	10	66	ButtonPress	Win	True
629.219	0.35	Win2	0.6269	n/a	Yes	2.778	n/a	n/a	GoodResponse	1	n/a	n/a	10	66	Blank	Win	True
629.57	1.45	Win2	0.6269	n/a	Yes	2.778	n/a	5.0	GoodResponse	1	0.011	628.581	10	66	Feedback	Win	True
631.025	2.778	Win2	0.6269	n/a	Yes	2.778	n/a	n/a	GoodResponse	1	0.0	n/a	10	66	ISIslide	Win	True
633.816	0.25	Control	0.6324000000000001	0.0	Yes	2.734	0.016	n/a	GoodResponse	0	n/a	n/a	10	67	Cue	Neutral	True
634.067	3.95	Control	0.6324000000000001	0.0	Yes	2.734	0.001	n/a	GoodResponse	0	n/a	n/a	10	67	Fixation	Neutral	True
638.012	0.36	Control	0.6324000000000001	0.004	Yes	2.734	-0.004	2.0	GoodResponse	0	0.215	637.227	10	67	Target	Neutral	True
638.227	0.3	Control	0.6324000000000001	0.004	Yes	2.734	-0.004	2.0	GoodResponse	0	0.215	n/a	10	67	ButtonPress	Neutral	True
638.38	0.34	Control	0.6324000000000001	n/a	Yes	2.734	n/a	n/a	GoodResponse	0	n/a	n/a	10	67	Blank	Neutral	True
638.714	1.45	Control	0.6324000000000001	n/a	Yes	2.734	n/a	5.0	GoodResponse	0	0.037	637.751	10	67	Feedback	Neutral	True
640.169	2.734	Control	0.6324000000000001	n/a	Yes	2.734	n/a	n/a	GoodResponse	0	0.0	n/a	10	67	ISIslide	Neutral	True
642.927	0.25	Win2	0.6377	0.0	Yes	3.073	0.027	n/a	GoodResponse	1	n/a	n/a	11	68	Cue	Win	True
643.178	4.0	Win2	0.6377	0.0	Yes	3.073	0.001	n/a	GoodResponse	1	n/a	n/a	11	68	Fixation	Win	True
647.173	0.37	Win2	0.6377	0.004	Yes	3.073	-0.004	2.0	GoodResponse	1	0.184	646.357	11	68	Target	Win	True
647.357	0.3	Win2	0.6377	0.004	Yes	3.073	-0.004	2.0	GoodResponse	1	0.184	n/a	11	68	ButtonPress	Win	True
647.557	0.33	Win2	0.6377	n/a	Yes	3.073	n/a	n/a	GoodResponse	1	n/a	n/a	11	68	Blank	Win	True
647.875	1.45	Win2	0.6377	n/a	Yes	3.073	n/a	5.0	GoodResponse	1	0.047	646.922	11	68	Feedback	Win	True
649.329	3.073	Win2	0.6377	n/a	Yes	3.073	n/a	n/a	GoodResponse	1	0.0	n/a	11	68	ISIslide	Win	True
652.422	0.25	Win2	0.6429	0.0	Yes	3.228	0.022	n/a	GoodResponse	1	n/a	n/a	12	69	Cue	Win	True
652.673	3.95	Win2	0.6429	0.0	Yes	3.228	0.001	n/a	GoodResponse	1	n/a	n/a	12	69	Fixation	Win	True
656.618	0.38	Win2	0.6429	0.004	Yes	3.228	-0.004	2.0	GoodResponse	1	0.23	655.848	12	69	Target	Win	True
656.848	0.3	Win2	0.6429	0.004	Yes	3.228	-0.004	2.0	GoodResponse	1	0.23	n/a	12	69	ButtonPress	Win	True
657.002	0.32	Win2	0.6429	n/a	Yes	3.228	n/a	n/a	GoodResponse	1	n/a	n/a	12	69	Blank	Win	True
657.32	1.45	Win2	0.6429	n/a	Yes	3.228	n/a	5.0	GoodResponse	1	0.017	656.337	12	69	Feedback	Win	True
658.774	3.228	Win2	0.6429	n/a	Yes	3.228	n/a	n/a	GoodResponse	1	0.0	n/a	12	69	ISIslide	Win	True
662.017	0.25	Lose2	0.6479	0.001	Yes	3.033	0.017	n/a	GoodResponse	0	n/a	n/a	12	70	Cue	AvoidedLoss	True
662.268	4.05	Lose2	0.6479	0.0	Yes	3.033	0.001	n/a	GoodResponse	0	n/a	n/a	12	70	Fixation	AvoidedLoss	True
666.314	0.39	Lose2	0.6479	0.003	Yes	3.033	-0.003	2.0	GoodResponse	0	0.198	665.512	12	70	Target	AvoidedLoss	True
666.512	0.3	Lose2	0.6479	0.003	Yes	3.033	-0.003	2.0	GoodResponse	0	0.198	n/a	12	70	ButtonPress	AvoidedLoss	True
666.715	0.31	Lose2	0.6479	n/a	Yes	3.033	n/a	n/a	GoodResponse	0	n/a	n/a	12	70	Blank	AvoidedLoss	True
667.016	1.45	Lose2	0.6479	n/a	Yes	3.033	n/a	5.0	GoodResponse	0	0.028	666.044	12	70	Feedback	AvoidedLoss	True
668.47	3.033	Lose2	0.6479	n/a	Yes	3.033	n/a	n/a	GoodResponse	0	0.0	n/a	12	70	ISIslide	AvoidedLoss	True
671.529	0.25	Win2	0.6528	0.0	Yes	2.721	0.029	n/a	GoodResponse	1	n/a	n/a	13	71	Cue	Win	True
671.78	4.05	Win2	0.6528	0.0	Yes	2.721	0.001	n/a	GoodResponse	1	n/a	n/a	13	71	Fixation	Win	True
675.825	0.4	Win2	0.6528	0.004	Yes	2.721	-0.004	2.0	GoodResponse	1	0.237	675.062	13	71	Target	Win	True
676.062	0.3	Win2	0.6528	0.004	Yes	2.721	-0.004	2.0	GoodResponse	1	0.237	n/a	13	71	ButtonPress	Win	True
676.227	0.3	Win2	0.6528	n/a	Yes	2.721	n/a	n/a	GoodResponse	1	n/a	n/a	13	71	Blank	Win	True
676.528	1.45	Win2	0.6528	n/a	Yes	2.721	n/a	5.0	GoodResponse	1	0.029	675.557	13	71	Feedback	Win	True
677.982	2.721	Win2	0.6528	n/a	Yes	2.721	n/a	n/a	GoodResponse	1	0.0	n/a	13	71	ISIslide	Win	True
680.723	0.25	Win2	0.6575	0.001	Yes	2.777	0.023	n/a	GoodResponse	1	n/a	n/a	14	72	Cue	Win	True
680.974	4.1	Win2	0.6575	0.0	Yes	2.777	0.001	n/a	GoodResponse	1	n/a	n/a	14	72	Fixation	Win	True
685.07	0.41	Win2	0.6575	0.003	Yes	2.777	-0.003	2.0	GoodResponse	1	0.232	684.302	14	72	Target	Win	True
685.302	0.3	Win2	0.6575	0.003	Yes	2.777	-0.003	2.0	GoodResponse	1	0.232	n/a	14	72	ButtonPress	Win	True
685.488	0.29	Win2	0.6575	n/a	Yes	2.777	n/a	n/a	GoodResponse	1	n/a	n/a	14	72	Blank	Win	True
685.772	1.45	Win2	0.6575	n/a	Yes	2.777	n/a	5.0	GoodResponse	1	0.007	684.779	14	72	Feedback	Win	True
687.226	2.777	Win2	0.6575	n/a	Yes	2.777	n/a	n/a	GoodResponse	1	0.0	n/a	14	72	ISIslide	Win	True
690.018	0.25	Win2	0.6622	0.0	Yes	2.682	0.018	n/a	GoodResponse	1	n/a	n/a	15	73	Cue	Win	True
690.269	4.0	Win2	0.6622	0.0	Yes	2.682	0.001	n/a	GoodResponse	1	n/a	n/a	15	73	Fixation	Win	True
694.264	0.41	Win2	0.6622	0.004	Yes	2.682	-0.004	2.0	GoodResponse	1	0.215	693.479	15	73	Target	Win	True
694.479	0.3	Win2	0.6622	0.004	Yes	2.682	-0.004	2.0	GoodResponse	1	0.215	n/a	15	73	ButtonPress	Win	True
694.682	0.29	Win2	0.6622	n/a	Yes	2.682	n/a	n/a	GoodResponse	1	n/a	n/a	15	73	Blank	Win	True
694.966	1.45	Win2	0.6622	n/a	Yes	2.682	n/a	5.0	GoodResponse	1	0.029	693.995	15	73	Feedback	Win	True
696.421	2.682	Win2	0.6622	n/a	Yes	2.682	n/a	n/a	GoodResponse	1	0.0	n/a	15	73	ISIslide	Win	True
699.129	0.25	Lose2	0.6667000000000001	0.0	Yes	2.621	0.029	n/a	GoodResponse	0	n/a	n/a	15	74	Cue	AvoidedLoss	True
699.379	4.05	Lose2	0.6667000000000001	0.0	Yes	2.621	0.0	n/a	GoodResponse	0	n/a	n/a	15	74	Fixation	AvoidedLoss	True
703.425	0.41	Lose2	0.6667000000000001	0.004	Yes	2.621	-0.004	2.0	GoodResponse	0	0.206	702.631	15	74	Target	AvoidedLoss	True
703.631	0.3	Lose2	0.6667000000000001	0.004	Yes	2.621	-0.004	2.0	GoodResponse	0	0.206	n/a	15	74	ButtonPress	AvoidedLoss	True
703.843	0.29	Lose2	0.6667000000000001	n/a	Yes	2.621	n/a	n/a	GoodResponse	0	n/a	n/a	15	74	Blank	AvoidedLoss	True
704.127	1.45	Lose2	0.6667000000000001	n/a	Yes	2.621	n/a	5.0	GoodResponse	0	0.039	703.166	15	74	Feedback	AvoidedLoss	True
705.581	2.621	Lose2	0.6667000000000001	n/a	Yes	2.621	n/a	n/a	GoodResponse	0	0.0	n/a	15	74	ISIslide	AvoidedLoss	True
708.223	0.25	Lose2	0.6711	0.0	Yes	2.927	0.023	n/a	GoodResponse	0	n/a	n/a	15	75	Cue	AvoidedLoss	True
708.473	3.95	Lose2	0.6711	0.0	Yes	2.927	0.0	n/a	GoodResponse	0	n/a	n/a	15	75	Fixation	AvoidedLoss	True
712.418	0.4	Lose2	0.6711	0.005	Yes	2.927	-0.005	2.0	GoodResponse	0	0.225	711.643	15	75	Target	AvoidedLoss	True
712.643	0.3	Lose2	0.6711	0.005	Yes	2.927	-0.005	2.0	GoodResponse	0	0.225	n/a	15	75	ButtonPress	AvoidedLoss	True
712.82	0.3	Lose2	0.6711	n/a	Yes	2.927	n/a	n/a	GoodResponse	0	n/a	n/a	15	75	Blank	AvoidedLoss	True
713.121	1.45	Lose2	0.6711	n/a	Yes	2.927	n/a	5.0	GoodResponse	0	0.021	712.142	15	75	Feedback	AvoidedLoss	True
714.575	2.927	Lose2	0.6711	n/a	Yes	2.927	n/a	n/a	GoodResponse	0	0.0	n/a	15	75	ISIslide	AvoidedLoss	True
717.517	0.25	Control	0.6753	0.0	Yes	3.233	0.017	n/a	GoodResponse	0	n/a	n/a	15	76	Cue	Neutral	True
717.768	4.05	Control	0.6753	0.0	Yes	3.233	0.001	n/a	GoodResponse	0	n/a	n/a	15	76	Fixation	Neutral	True
721.813	0.39	Control	0.6753	0.004	Yes	3.233	-0.004	2.0	GoodResponse	0	0.345	721.158	15	76	Target	Neutral	True
722.158	0.3	Control	0.6753	0.004	Yes	3.233	-0.004	2.0	GoodResponse	0	0.345	n/a	15	76	ButtonPress	Neutral	True
722.214	0.31	Control	0.6753	n/a	Yes	3.233	n/a	n/a	GoodResponse	0	n/a	n/a	15	76	Blank	Neutral	True
722.515	1.45	Control	0.6753	n/a	Yes	3.233	n/a	5.0	GoodResponse	0	0.041	721.556	15	76	Feedback	Neutral	True
723.97	3.233	Control	0.6753	n/a	Yes	3.233	n/a	n/a	GoodResponse	0	0.0	n/a	15	76	ISIslide	Neutral	True
727.229	0.25	Lose2	0.6795	0.001	Yes	2.571	0.029	n/a	GoodResponse	0	n/a	n/a	15	77	Cue	AvoidedLoss	True
727.48	3.95	Lose2	0.6795	0.0	Yes	2.571	0.001	n/a	GoodResponse	0	n/a	n/a	15	77	Fixation	AvoidedLoss	True
731.425	0.38	Lose2	0.6795	0.004	Yes	2.571	-0.004	2.0	GoodResponse	0	0.234	730.659	15	77	Target	AvoidedLoss	True
731.659	0.3	Lose2	0.6795	0.004	Yes	2.571	-0.004	2.0	GoodResponse	0	0.234	n/a	15	77	ButtonPress	AvoidedLoss	True
731.81	0.32	Lose2	0.6795	n/a	Yes	2.571	n/a	n/a	GoodResponse	0	n/a	n/a	15	77	Blank	AvoidedLoss	True
732.128	1.45	Lose2	0.6795	n/a	Yes	2.571	n/a	5.0	GoodResponse	0	0.038	731.166	15	77	Feedback	AvoidedLoss	True
733.582	2.571	Lose2	0.6795	n/a	Yes	2.571	n/a	n/a	GoodResponse	0	0.0	n/a	15	77	ISIslide	AvoidedLoss	True
